seq,time_us,ax,ay,az,gx,gy,gz,mx,my,mz,drop_flag
0,0,0.048470016568899155,0.06247691437602043,-1.0108152627944946,-0.14881426095962524,-0.2704303562641144,0.09076892584562302,31.240646362304688,-9.667862892150879,40.4671516418457,0
1,10070,0.03970886394381523,-0.04225146770477295,-1.00968337059021,-0.3225497305393219,0.1113678365945816,-0.6704160571098328,30.010528564453125,-10.08318042755127,40.375247955322266,0
2,19778,-0.0010113418102264404,-0.003584203775972128,-1.008615493774414,0.07540924847126007,-0.14948327839374542,0.6436640024185181,29.31275749206543,-10.237804412841797,40.85844039916992,0
3,30081,-0.0842498242855072,0.0008862921386025846,-1.0257595777511597,0.35385793447494507,1.5523689985275269,0.12314315885305405,29.987619400024414,-10.735651969909668,40.097660064697266,0
4,40129,-0.0032148808240890503,-0.007464369758963585,-1.0191811323165894,-0.2792435586452484,0.3325665295124054,-0.31295570731163025,29.610546112060547,-9.642922401428223,41.55067825317383,0
5,50040,0.05775560066103935,0.0612696148455143,-0.9717418551445007,-0.4157401919364929,-0.5470442771911621,0.4521697759628296,30.07151222229004,-11.665623664855957,40.8663330078125,0
6,60024,-0.039340853691101074,-0.02736455760896206,-1.0018951892852783,-0.24900925159454346,-0.4076356589794159,-0.46305379271507263,29.114118576049805,-8.853263854980469,39.85781478881836,0
7,70196,-0.005424319300800562,0.07004882395267487,-1.0143392086029053,-0.9008085131645203,0.09439210593700409,0.3693510591983795,30.862796783447266,-8.419865608215332,39.361610412597656,0
8,79923,-0.01461599487811327,-0.035822056233882904,-0.9819431900978088,1.2209057807922363,-0.6086772680282593,0.3330632746219635,29.761035919189453,-7.9701619148254395,41.14449691772461,0
9,89833,0.019177507609128952,-0.06358922272920609,-0.9874176383018494,0.34262382984161377,-0.9552896022796631,-0.36372482776641846,30.011524200439453,-7.506730556488037,40.81959915161133,0
10,100068,-0.00020816476899199188,-0.07959583401679993,-0.9742593765258789,0.43494856357574463,0.4785413146018982,-0.24496708810329437,31.630823135375977,-12.743834495544434,38.433204650878906,0
11,110270,0.015794387087225914,0.054171402007341385,-0.9906595349311829,-0.671083927154541,0.013853614218533039,-0.27570992708206177,29.748641967773438,-9.223684310913086,40.36942672729492,0
12,120228,0.005224097054451704,-0.046960365027189255,-0.9617114067077637,0.03675555810332298,0.2321881800889969,0.7456713318824768,30.511524200439453,-11.262474060058594,41.563262939453125,0
13,130369,0.001126189366914332,0.04686511307954788,-1.0038596391677856,-1.177932620048523,-0.19910839200019836,0.605091392993927,30.90428352355957,-9.08678150177002,41.32170867919922,0
14,140127,-0.004942817613482475,-0.04948461428284645,-0.9886079430580139,0.12294066697359085,0.10372035205364227,0.6521400213241577,28.459190368652344,-9.968220710754395,41.82124710083008,0
15,149938,0.00020445830887183547,0.027860114350914955,-0.9856715202331543,0.6549798250198364,0.11013816297054291,0.16169050335884094,30.792449951171875,-11.074995040893555,38.92460632324219,0
16,160109,0.022736553102731705,-0.07631056010723114,-0.9703588485717773,-0.0510876290500164,-0.271729052066803,0.025949623435735703,28.904340744018555,-8.968114852905273,38.776859283447266,0
17,170138,-0.029028169810771942,-0.015372244641184807,-0.974588930606842,-0.004597874358296394,-0.11731278151273727,0.36302411556243896,32.05769729614258,-9.96893310546875,37.742454528808594,0
18,180170,-0.041564784944057465,-0.02024669386446476,-1.0064198970794678,0.2610577642917633,0.29689821600914,-0.7617427706718445,29.083776473999023,-10.624168395996094,41.492271423339844,0
19,190141,0.04341160133481026,-0.00460819574072957,-1.0202653408050537,0.12014903128147125,0.025223903357982635,0.5343847274780273,30.723276138305664,-10.865157127380371,38.87629318237305,0
20,200001,-0.014010580256581306,-0.05360031500458717,-0.9963033199310303,0.7689141631126404,-0.01936277002096176,-0.009505914524197578,30.460500717163086,-8.877365112304688,39.29691696166992,0
21,210016,0.10681124031543732,0.01565106399357319,-1.032981514930725,-0.06780882924795151,-0.2116030901670456,0.7177141308784485,30.402578353881836,-11.390780448913574,39.20370101928711,0
22,220260,0.011481714434921741,-0.01008401159197092,-0.976940929889679,0.11799639463424683,-0.15894225239753723,-0.008538087829947472,30.407405853271484,-10.81994342803955,39.528038024902344,0
23,229765,-0.05713590607047081,-0.034290652722120285,-0.9897926449775696,0.02419976331293583,0.10499194264411926,-0.5537451505661011,31.492374420166016,-8.258729934692383,40.013916015625,0
24,239876,-0.045805174857378006,-0.0007209341274574399,-1.0158257484436035,-0.3018357455730438,-0.5815633535385132,-0.555411696434021,30.067262649536133,-11.232626914978027,39.423828125,0
25,249835,-0.018397467210888863,0.05394734814763069,-1.0331727266311646,-0.6678445339202881,0.37242498993873596,0.4666925370693207,28.16193962097168,-8.840967178344727,38.24295425415039,0
26,259869,-0.0236403439193964,-0.03767440840601921,-0.9909517168998718,0.06149829179048538,-0.10417160391807556,1.0764633417129517,29.203662872314453,-11.55040168762207,40.39458465576172,0
27,269941,-0.018596043810248375,0.0471404530107975,-1.022495150566101,-1.0784709453582764,-0.2325352430343628,0.00495666079223156,29.685991287231445,-11.20694637298584,40.34842300415039,0
28,279919,0.054103005677461624,-0.09067440778017044,-0.9761667251586914,0.5662863254547119,0.049892012029886246,-0.0062125991098582745,29.31312370300293,-9.533950805664062,38.8735237121582,0
29,290125,-0.015081309713423252,0.04886845499277115,-0.9799382090568542,-0.34753644466400146,-0.6177934408187866,-0.4905758500099182,30.91542625427246,-10.184035301208496,40.68246841430664,0
30,300039,-0.04373858869075775,-0.0014771282440051436,-1.0091849565505981,0.49393635988235474,0.3943282663822174,-0.6243144869804382,30.087736129760742,-9.816825866699219,39.61054611206055,0
31,309824,0.0955425500869751,0.09864312410354614,-0.9837271571159363,-0.24284978210926056,0.8472347259521484,0.6748715043067932,29.719213485717773,-9.76427173614502,40.21379470825195,0
32,320102,-0.01114443689584732,0.0033211514819413424,-0.9768786430358887,0.5776556730270386,-0.948919951915741,-0.3393309414386749,28.859092712402344,-11.978041648864746,41.047420501708984,0
33,329968,-0.05030332878232002,-0.06474555283784866,-1.007506251335144,-1.4277641773223877,-0.1950765699148178,-0.23089852929115295,32.71402359008789,-9.353796005249023,40.85043716430664,0
34,339915,-0.07494483143091202,-0.1584577113389969,-0.9829599857330322,-0.17252835631370544,-0.3222225606441498,0.7765116095542908,31.038606643676758,-10.344182968139648,40.72519302368164,0
35,349997,0.04855048283934593,-0.025393513962626457,-1.0018866062164307,0.19988270103931427,-0.20329123735427856,-0.581285297870636,29.1000919342041,-9.03520393371582,39.172149658203125,0
36,360043,0.10419675707817078,-0.02095872350037098,-0.9930166602134705,0.4750487804412842,0.21983636915683746,-0.15584643185138702,30.237770080566406,-9.13861083984375,39.61612319946289,0
37,369906,0.018746327608823776,-0.024335365742444992,-1.0154657363891602,0.22357313334941864,0.4571751356124878,0.7072617411613464,29.65937042236328,-9.724534034729004,37.970149993896484,0
38,380061,0.07180524617433548,0.0402643159031868,-1.0398880243301392,0.48185795545578003,-0.5068091750144958,-0.2614443004131317,32.003501892089844,-9.323631286621094,40.85581970214844,0
39,390239,0.009923324920237064,0.0657646656036377,-0.9857063889503479,0.4151964485645294,0.4617815613746643,-0.6069821119308472,28.48130226135254,-9.079499244689941,39.82981872558594,0
40,400143,-0.051660843193531036,0.025257844477891922,-0.9737439751625061,0.03152841702103615,-0.32797056436538696,-0.6252715587615967,30.802114486694336,-9.222569465637207,40.619625091552734,0
41,410271,-0.1212124228477478,-0.02665744535624981,-0.9850327968597412,1.0008044242858887,-0.15992452204227448,-0.3493962585926056,31.43962287902832,-9.184625625610352,40.38279342651367,0
42,419736,0.06945596635341644,-0.07415977120399475,-1.0137673616409302,0.527065634727478,0.5020871758460999,-0.09217975288629532,30.376285552978516,-9.030515670776367,40.86766052246094,0
43,430110,0.07471916079521179,-0.04552138224244118,-0.9767083525657654,-1.1443023681640625,-0.1906949132680893,-0.2946261167526245,31.337907791137695,-10.136088371276855,41.87845230102539,0
44,439846,0.0469827763736248,-0.008614081889390945,-1.0291427373886108,0.09905239194631577,-0.24508753418922424,0.08262505382299423,30.243335723876953,-9.715300559997559,40.912994384765625,0
45,449780,-0.01551376935094595,-0.0659814178943634,-0.9656670689582825,0.39356571435928345,-0.03713839128613472,-0.30569350719451904,31.148462295532227,-8.821120262145996,41.11350631713867,0
46,459880,0.00386910536326468,-0.1195378303527832,-1.0175845623016357,0.5354520082473755,-0.5832526087760925,0.56862473487854,32.19194412231445,-9.160355567932129,39.67839050292969,0
47,469849,-0.026578305289149284,-0.02704976312816143,-1.0177068710327148,0.5063652992248535,0.42087098956108093,0.9890009760856628,30.142536163330078,-9.217997550964355,42.58128356933594,0
48,479965,0.02011791057884693,0.01929490640759468,-0.9978976249694824,0.45202821493148804,-0.380833238363266,-0.4251306354999542,29.38233184814453,-9.187760353088379,40.34294128417969,0
49,489891,-0.029180260375142097,-0.02320050448179245,-0.9996212124824524,-0.1661774069070816,-0.02231074683368206,0.9389181733131409,30.104839324951172,-9.620562553405762,38.325233459472656,0
50,499660,-0.0007206934969872236,-0.06911628693342209,-0.9937617778778076,-0.09100327640771866,-0.06503740698099136,-0.46923691034317017,31.06502342224121,-11.947665214538574,41.56431198120117,0
51,510110,0.05866675078868866,0.05994270741939545,-1.0223578214645386,-0.15932387113571167,-0.20148253440856934,0.15412572026252747,29.403959274291992,-10.31709098815918,40.1876220703125,0
52,520091,-0.03492210432887077,-0.08171463757753372,-1.0234981775283813,-0.5758410692214966,0.556898295879364,-0.641010582447052,29.23509979248047,-10.147344589233398,39.78395080566406,0
53,529986,0.032364167273044586,-0.1918061077594757,-0.9916279911994934,-0.37963369488716125,0.881904661655426,-0.7557355761528015,30.085683822631836,-10.067574501037598,39.249305725097656,0
54,540035,0.05521216243505478,-0.033123914152383804,-1.0286437273025513,0.1536489874124527,-0.10705944895744324,-0.7691500782966614,29.884506225585938,-10.769624710083008,40.11211395263672,0
55,550242,-0.030641473829746246,-0.03269430249929428,-0.990977942943573,0.11217240989208221,-0.4747433066368103,0.3270784914493561,30.6619930267334,-10.76988410949707,40.155853271484375,0
56,560105,0.05334709584712982,0.0460716150701046,-1.0364165306091309,0.9897885918617249,0.9575616121292114,-0.35590311884880066,30.986059188842773,-9.688531875610352,41.6767578125,0
57,570165,0.017564069479703903,-0.013880805112421513,-0.9904800653457642,-0.4772537052631378,0.3175985515117645,-0.1576184183359146,29.60418701171875,-10.898496627807617,40.7629280090332,0
58,580110,0.044548675417900085,0.014732594601809978,-0.9620277881622314,0.6363168954849243,0.09558222442865372,-0.32238462567329407,30.327369689941406,-10.858656883239746,40.52848434448242,0
59,590001,-0.04827485233545303,0.04392180219292641,-1.031687617301941,0.6291263699531555,-0.10405828803777695,-0.536117434501648,31.367631912231445,-9.959567070007324,40.5948486328125,0
60,599524,-0.09195774048566818,0.027149954810738564,-0.9970980286598206,-0.7407247424125671,0.04375166818499565,1.1632333993911743,28.548295974731445,-8.344198226928711,38.48675537109375,0
61,610153,-0.043312087655067444,-0.041919123381376266,-1.0031341314315796,0.03582019358873367,-0.5090577602386475,-0.6167835593223572,30.488697052001953,-9.276955604553223,39.62467575073242,0
62,620056,0.04349047690629959,0.045295193791389465,-1.0212717056274414,0.34800785779953003,-0.5675613284111023,0.194780632853508,30.407102584838867,-10.634261131286621,41.3946418762207,0
63,629924,-0.005389467813074589,0.021181287243962288,-0.9895832538604736,-0.3079616129398346,0.34039267897605896,0.062003057450056076,29.753820419311523,-10.772546768188477,40.359344482421875,0
64,640120,0.005309777799993753,-0.0075766099616885185,-1.0323278903961182,0.9177960157394409,0.8126011490821838,-0.28127849102020264,30.483192443847656,-11.105276107788086,40.480323791503906,0
65,649870,-0.09044799208641052,0.020428188145160675,-1.0178229808807373,0.40156877040863037,-0.344179630279541,0.07557635009288788,32.72041702270508,-11.106287956237793,39.714080810546875,0
66,659705,0.059305477887392044,-0.04755527153611183,-1.0264922380447388,-0.08896122872829437,0.3003288209438324,0.23391969501972198,32.407379150390625,-11.008245468139648,40.9844970703125,0
67,670135,0.02122349850833416,-0.013179883360862732,-1.0215187072753906,0.41150805354118347,0.03215213119983673,0.7798646688461304,30.33980941772461,-10.579182624816895,39.412418365478516,0
68,680293,0.041845738887786865,0.023280367255210876,-1.0192341804504395,0.07580907642841339,-0.552769660949707,0.5014978647232056,29.40692138671875,-8.004096031188965,38.126258850097656,0
69,689966,0.01844264753162861,0.02317521721124649,-0.9746984243392944,-1.4270718097686768,0.5681527256965637,-0.5861496925354004,29.422588348388672,-10.023324966430664,40.30172348022461,0
70,699853,0.026241157203912735,0.05970033258199692,-0.9806813597679138,-0.9882692694664001,0.26665908098220825,-0.23903200030326843,29.632293701171875,-10.6675386428833,39.3953971862793,0
71,710095,0.06060757488012314,-0.09023583680391312,-1.0008047819137573,-0.13014937937259674,0.13665689527988434,0.9012603759765625,29.560720443725586,-8.151789665222168,39.59112548828125,0
72,719942,-0.09362353384494781,0.11239197850227356,-1.0031139850616455,0.8047338724136353,0.06646887212991714,0.3558286130428314,30.17905616760254,-9.555299758911133,39.65011215209961,0
73,730005,0.056268204003572464,-0.050433941185474396,-1.0002636909484863,0.11998672783374786,0.29273322224617004,0.17959603667259216,30.683774948120117,-10.730073928833008,38.91694641113281,0
74,740162,-0.019637415185570717,-0.0716196820139885,-1.0253653526306152,0.1500120609998703,0.38686898350715637,0.984167754650116,28.165895462036133,-11.361473083496094,40.358070373535156,0
75,749913,0.03732734173536301,-0.0014902971452102065,-1.0146489143371582,0.04212893918156624,0.5779183506965637,0.233348086476326,30.54853057861328,-9.847746849060059,38.36325454711914,0
76,760239,-0.007056595291942358,0.019458679482340813,-0.9997121691703796,-1.0128921270370483,-0.31315550208091736,0.4111975431442261,30.785476684570312,-10.29884147644043,39.233543395996094,0
77,770111,-0.015174380503594875,-0.02285471372306347,-0.9729673862457275,-0.011447842232882977,-0.23549433052539825,0.0499611496925354,30.05060577392578,-9.671220779418945,40.680931091308594,0
78,780075,0.04345880076289177,-0.035250063985586166,-0.9985163807868958,0.588118851184845,-0.6002926230430603,0.15461967885494232,27.887483596801758,-10.541206359863281,39.50076675415039,0
79,789927,-0.007290954701602459,0.10293460637331009,-0.9940555095672607,0.49861013889312744,-0.0832831934094429,1.252382755279541,28.761432647705078,-11.019773483276367,41.46446228027344,0
80,799841,-0.004365469794720411,0.04102662578225136,-0.9781736731529236,0.01893119141459465,0.21962758898735046,0.5145580172538757,29.60956382751465,-11.118110656738281,40.72196578979492,0
81,810251,0.07284436374902725,0.037641506642103195,-1.027858018875122,0.48024415969848633,-0.19447794556617737,-0.21994410455226898,30.422170639038086,-8.062517166137695,38.42496109008789,0
82,819857,0.005736022721976042,0.035060591995716095,-1.0118048191070557,0.4016546308994293,0.879421055316925,0.03362199291586876,28.963558197021484,-8.981663703918457,40.1375846862793,0
83,830203,0.06408587843179703,0.05722229555249214,-0.99632328748703,-0.10803364962339401,0.6964473724365234,0.011466759257018566,30.284658432006836,-10.1542387008667,40.45924377441406,0
84,839999,-0.015418344177305698,0.018453586846590042,-0.9941957592964172,-0.34027501940727234,0.4912012815475464,0.5315450429916382,31.473745346069336,-8.523776054382324,39.52366638183594,0
85,849923,0.0737968236207962,0.04280750826001167,-0.9755228757858276,0.9665588736534119,-0.16694429516792297,-0.05578989535570145,31.541852951049805,-8.11365032196045,41.21588134765625,0
86,859847,-0.04914725571870804,0.06128142774105072,-1.0000693798065186,0.22055618464946747,0.3024561405181885,0.23677851259708405,29.130882263183594,-11.004545211791992,38.697601318359375,0
87,870315,-0.08483662456274033,0.032970134168863297,-1.004282832145691,-0.5478582382202148,-0.3900734782218933,0.5540558099746704,31.32892608642578,-10.697704315185547,40.0451774597168,0
88,879690,0.03502937778830528,-0.033767782151699066,-0.9868959188461304,-0.337354451417923,0.4368710219860077,0.12053343653678894,29.993038177490234,-9.872576713562012,38.86497116088867,0
89,889924,-0.06155293807387352,-0.04572218656539917,-0.9922422766685486,-0.5584018230438232,-0.34762126207351685,-0.22791814804077148,30.721187591552734,-9.189255714416504,37.83940124511719,0
90,900013,-0.06303426623344421,-0.0190596804022789,-0.98385089635849,0.46440282464027405,-0.12735199928283691,-0.7463915348052979,29.624723434448242,-10.731839179992676,39.7301025390625,0
91,910149,0.014005366712808609,-0.007837848737835884,-1.0018723011016846,0.6104837656021118,-0.3356286287307739,0.06512611359357834,29.24064064025879,-9.134028434753418,38.31583786010742,0
92,919902,-0.05870228260755539,-0.02885803021490574,-1.028055191040039,0.7399052977561951,-0.40429165959358215,-0.9966837167739868,28.662874221801758,-10.152240753173828,39.75297927856445,0
93,930020,-0.03816259652376175,-0.08694100379943848,-0.9753995537757874,-0.710783839225769,0.4883698523044586,0.25728797912597656,31.01311683654785,-9.854899406433105,40.03449630737305,0
94,939829,0.011453719809651375,-0.03884114697575569,-0.9642245769500732,-0.5519682168960571,0.7365584969520569,-0.22207550704479218,29.90049171447754,-10.709490776062012,39.89879608154297,0
95,949910,-0.0475112684071064,-0.00039686544914729893,-0.9829243421554565,0.0704323872923851,0.16380883753299713,-0.5395680069923401,27.770523071289062,-9.897989273071289,40.21562957763672,0
96,959881,-0.09961774945259094,0.04716555401682854,-0.9739605188369751,-0.7442636489868164,0.6505182981491089,0.09693993628025055,30.912574768066406,-10.300745010375977,40.985897064208984,0
97,969963,0.008498786948621273,-0.017187492921948433,-0.987891435623169,-0.13483862578868866,0.08540921658277512,-0.10392804443836212,30.608278274536133,-10.621795654296875,41.49123764038086,0
98,980062,0.011092882603406906,0.08378079533576965,-1.0143706798553467,0.04457516223192215,-0.9724937081336975,-0.23869550228118896,28.695619583129883,-9.052282333374023,39.47737121582031,0
99,990083,0.021944986656308174,-0.05300555378198624,-1.0351591110229492,-0.7082495093345642,-0.2756001055240631,-0.045750945806503296,28.604978561401367,-10.56938362121582,39.40320587158203,0
100,1000061,0.009000657126307487,-0.009900054894387722,-0.9811864495277405,0.35612404346466064,1.1156978607177734,-0.16892941296100616,31.272764205932617,-10.945208549499512,38.82645797729492,0
101,1010076,0.03525461629033089,-0.02041960321366787,-1.0018689632415771,0.07302425056695938,-0.2900494933128357,0.3696863353252411,30.99840545654297,-10.701545715332031,38.945247650146484,0
102,1019880,-0.05087161436676979,-0.09203851222991943,-1.0251260995864868,0.20265606045722961,0.20615361630916595,-0.006620332133024931,31.358692169189453,-9.876309394836426,38.69876480102539,0
103,1030091,-0.00431102653965354,-0.0659392699599266,-0.9955517649650574,-0.02086031436920166,0.35889342427253723,1.1794449090957642,29.74482536315918,-11.424899101257324,38.799861907958984,0
104,1039930,0.08142588287591934,-0.04224014654755592,-0.9718492031097412,-0.8182882070541382,-0.4711509943008423,0.18114954233169556,28.317893981933594,-11.080140113830566,41.958560943603516,0
105,1050179,-0.11836133897304535,0.09424304962158203,-0.9972724914550781,-0.6077231168746948,-0.11968794465065002,0.8536880016326904,30.750728607177734,-10.40158462524414,39.21576690673828,0
106,1060234,-0.009352833032608032,-0.009396575391292572,-0.9929595589637756,-0.20857343077659607,-0.40371760725975037,-0.2194359451532364,29.305461883544922,-10.873163223266602,40.4785041809082,0
107,1070073,0.002371196635067463,0.004552967380732298,-0.9985983371734619,-0.18654386699199677,0.18038976192474365,0.20572622120380402,30.078901290893555,-9.649886131286621,39.45869827270508,0
108,1079901,-0.0825534537434578,-0.013118083588778973,-0.9972484111785889,-1.1400243043899536,0.30071502923965454,-0.41458094120025635,30.425954818725586,-9.913592338562012,40.4833869934082,0
109,1089899,-0.09474359452724457,0.009033863432705402,-0.9873260855674744,0.39936646819114685,-0.9030559062957764,0.46328556537628174,30.20699119567871,-9.308870315551758,39.82667922973633,0
110,1100284,0.017630573362112045,0.019450850784778595,-0.999679684638977,0.4911273717880249,0.4799974858760834,-0.14024004340171814,30.22414779663086,-11.4740629196167,41.26137161254883,0
111,1110060,0.061820339411497116,-0.012891150079667568,-0.9796769618988037,0.32533738017082214,0.4294290542602539,-0.5323129296302795,29.501523971557617,-10.146190643310547,39.358211517333984,0
112,1119843,-0.004968374036252499,-0.023864228278398514,-0.9875593185424805,-0.009589293040335178,-0.6767467260360718,0.22792060673236847,29.102495193481445,-10.287753105163574,41.1569709777832,0
113,1129788,-0.020814379677176476,0.04822075366973877,-0.9942829012870789,-0.33553725481033325,0.18591444194316864,-0.5710365176200867,31.673297882080078,-9.16892147064209,40.09748840332031,0
114,1140211,0.04256941378116608,0.0169492457062006,-1.0176993608474731,-0.9640350937843323,0.1780208796262741,0.31976082921028137,32.55386734008789,-10.583283424377441,41.22887420654297,0
115,1150003,-0.012837272137403488,-0.07909378409385681,-0.9936597943305969,-0.062157824635505676,0.29593324661254883,-0.39011675119400024,30.494915008544922,-10.0393648147583,40.2537841796875,0
116,1160125,0.03451190143823624,-0.055275555700063705,-0.9776199460029602,-0.37183916568756104,0.9003157615661621,-0.294802188873291,30.57805633544922,-10.952347755432129,39.22184371948242,0
117,1169788,-0.05105465650558472,-0.02896437793970108,-1.006507396697998,0.12225175648927689,-0.11057586967945099,-0.47206389904022217,28.964277267456055,-8.918540000915527,40.5347900390625,0
118,1180008,0.04766776040196419,0.0656333863735199,-1.028921127319336,1.5894516706466675,-0.2733065187931061,0.001438296283595264,30.59061050415039,-8.438356399536133,39.85048294067383,0
119,1189900,-0.004994126036763191,-0.00631962763145566,-1.0086332559585571,0.6289282441139221,0.49199700355529785,0.9129523634910583,30.226682662963867,-9.789510726928711,39.58760070800781,0
120,1200247,-0.005232562776654959,0.10647742450237274,-0.9855095148086548,0.23353350162506104,-0.5307522416114807,0.5804082751274109,30.832523345947266,-10.53187084197998,39.38204574584961,0
121,1210027,-0.012804933823645115,-0.060778431594371796,-0.9986404776573181,0.5305892825126648,0.07194233685731888,0.3408673405647278,31.375877380371094,-9.292097091674805,40.37830352783203,0
122,1219845,-0.04719441384077072,0.032846253365278244,-1.0127586126327515,-0.3741426467895508,0.5080434083938599,0.3483932316303253,31.00224494934082,-9.58311939239502,39.57260513305664,0
123,1229906,-0.13591070473194122,-0.01645878329873085,-1.002606987953186,0.18562471866607666,0.15506388247013092,-0.3796168565750122,32.16828918457031,-8.930031776428223,40.0399284362793,0
124,1240154,-0.0958266481757164,0.008538889698684216,-1.0104790925979614,0.34834736585617065,-0.6870980858802795,0.2351812720298767,30.243017196655273,-11.58487606048584,40.307281494140625,0
125,1250027,-0.002024735091254115,0.07933113723993301,-1.018593668937683,-0.24322235584259033,-0.688687801361084,0.3941642940044403,29.071197509765625,-10.376419067382812,40.49488830566406,0
126,1259856,-0.06411384791135788,0.012382233515381813,-1.0330272912979126,1.7492003440856934,0.15110011398792267,0.8701722621917725,30.17219352722168,-10.370516777038574,39.822784423828125,0
127,1270005,0.04466908052563667,-0.00333743030205369,-0.9867350459098816,-0.6248420476913452,0.33351632952690125,-0.03190700709819794,30.07975196838379,-10.66757869720459,39.341426849365234,0
128,1280294,0.01030197273939848,0.011843170039355755,-1.0145007371902466,0.3568692207336426,-0.6016259789466858,-0.008740286342799664,29.49629020690918,-8.979466438293457,40.22950744628906,0
129,1290107,0.06148994714021683,0.03495948389172554,-0.9789511561393738,0.21467599272727966,-0.36074578762054443,0.060464076697826385,32.24022674560547,-10.5875825881958,41.55512619018555,0
130,1300068,0.006280174478888512,0.10896172374486923,-0.9888055920600891,0.4656336009502411,-0.5363785624504089,-0.40503382682800293,32.00484085083008,-9.529081344604492,40.19104766845703,0
131,1310043,0.08318562805652618,0.020065803080797195,-0.9625406265258789,-0.06704165041446686,-0.12880460917949677,0.11907189339399338,29.278961181640625,-8.77064037322998,40.73611831665039,0
132,1320080,-0.04014169052243233,-0.07642009854316711,-1.0015435218811035,-0.3135249614715576,0.757632851600647,-0.031940244138240814,29.931211471557617,-7.32963228225708,40.88199234008789,0
133,1329605,-0.14990535378456116,0.023699212819337845,-0.9908899068832397,-0.08188480138778687,-1.1564617156982422,0.13222038745880127,30.997344970703125,-9.272064208984375,41.12763214111328,0
134,1340117,-0.01145150139927864,-0.03082420863211155,-1.030208706855774,0.0034678541123867035,0.36882394552230835,0.013120579533278942,30.691368103027344,-12.15673542022705,39.87056350708008,0
135,1349738,0.06615353375673294,-0.03247169405221939,-1.0033090114593506,0.07247783988714218,-0.2435545176267624,-0.1548275351524353,30.497987747192383,-10.009126663208008,40.38583755493164,0
136,1360007,-0.077165387570858,-0.10064508765935898,-0.9966211915016174,0.43716296553611755,0.1835634410381317,-0.7203875184059143,28.97259521484375,-7.988056659698486,40.38251495361328,0
137,1370195,-0.041186027228832245,-0.1706145703792572,-1.023184061050415,0.1981661468744278,-0.016855189576745033,-0.5541065335273743,28.9909610748291,-10.804913520812988,40.62730407714844,0
138,1380155,-0.06540174037218094,0.021693134680390358,-0.969580352306366,0.048026006668806076,0.3905225396156311,-0.09477148205041885,29.750078201293945,-10.815922737121582,39.56486511230469,0
139,1390059,-0.0676926001906395,-0.05838849022984505,-1.0321437120437622,-0.2511773109436035,-0.2258548140525818,0.2935328185558319,29.331106185913086,-10.136226654052734,41.80788040161133,0
140,1400184,-0.013866059482097626,0.041698236018419266,-1.0382084846496582,-0.1196151077747345,0.05304931849241257,0.09909132122993469,30.057270050048828,-10.463810920715332,40.845420837402344,0
141,1410155,0.033200547099113464,0.053672827780246735,-0.9797647595405579,-0.24300524592399597,0.5982062220573425,-0.030616307631134987,29.917949676513672,-11.00421142578125,40.520015716552734,0
142,1419755,0.05932952091097832,0.10664556920528412,-0.9948447942733765,0.41345104575157166,-0.1465764045715332,-0.45087385177612305,30.235984802246094,-10.328827857971191,39.24932098388672,0
143,1430217,-0.056670963764190674,-0.009252969175577164,-1.0110217332839966,-0.4110288918018341,0.5376786589622498,0.6543375849723816,29.128765106201172,-8.914193153381348,37.52858352661133,0
144,1440277,-0.03562404587864876,0.0747496709227562,-0.9920194149017334,-0.3760397434234619,1.0336848497390747,-1.2197778224945068,30.97760581970215,-10.324649810791016,39.609954833984375,0
145,1449966,0.031025420874357224,0.020746782422065735,-0.9463582634925842,-0.6932067275047302,-0.2749752700328827,-0.31284964084625244,29.447551727294922,-10.089936256408691,39.71500015258789,0
146,1459959,0.015312150120735168,-0.04294531047344208,-1.0143711566925049,0.06272672861814499,0.24559645354747772,0.8571111559867859,31.701534271240234,-11.33776569366455,41.26438522338867,0
147,1469990,0.029838545247912407,0.0984654575586319,-1.0159122943878174,0.9093977212905884,-0.5090633630752563,0.12112024426460266,31.002233505249023,-10.876797676086426,40.52869415283203,0
148,1479703,-0.003229571506381035,0.016915032640099525,-1.0171597003936768,-0.8515275120735168,-0.9228105545043945,-0.35769984126091003,29.328706741333008,-9.583516120910645,39.93620300292969,0
149,1489970,0.0020934799686074257,0.025021789595484734,-0.9999423027038574,-0.06187361478805542,-0.29801037907600403,-0.35373902320861816,29.95341682434082,-10.022369384765625,40.46672058105469,0
150,1499887,0.017034942284226418,-0.002934421179816127,-1.0159519910812378,-0.6465634107589722,-0.21261243522167206,0.3762509226799011,28.8531436920166,-11.127243041992188,39.060646057128906,0
151,1509934,0.008532794192433357,-0.011635101400315762,-1.005511999130249,-0.41321733593940735,0.39632388949394226,0.7964034676551819,32.38835144042969,-9.31612777709961,39.02418899536133,0
152,1520119,-0.0037830460350960493,-0.0546104721724987,-1.0129404067993164,-0.4365788996219635,-0.10785429924726486,-0.23407188057899475,31.181381225585938,-10.535758972167969,40.875694274902344,0
153,1530154,0.0024114688858389854,-0.03689810633659363,-0.9872828125953674,0.357770711183548,0.326831191778183,-0.1882893443107605,30.337190628051758,-9.031637191772461,39.79810333251953,0
154,1539941,-0.11647960543632507,-0.03200177103281021,-0.9947451949119568,0.19106425344944,0.25575459003448486,0.4376901686191559,29.8512020111084,-8.979422569274902,40.20154571533203,0
155,1549763,-0.024231957271695137,-0.020551273599267006,-1.0124942064285278,-0.6835956573486328,-0.09558931738138199,0.5398974418640137,29.57416343688965,-10.012089729309082,39.16477966308594,0
156,1560052,-0.031193271279335022,-0.018966922536492348,-1.0006786584854126,-0.016478322446346283,1.0076613426208496,-0.22523517906665802,31.330541610717773,-9.97925090789795,38.8836784362793,0
157,1569856,0.03758879005908966,0.02532184310257435,-0.9855462312698364,-0.4255746901035309,-1.4091765880584717,1.5376369953155518,31.089962005615234,-9.503884315490723,39.508331298828125,0
158,1580243,0.08514026552438736,0.09084993600845337,-0.9784110188484192,0.541340708732605,0.8331451416015625,-0.6247979998588562,30.698497772216797,-11.574100494384766,39.561031341552734,0
159,1590381,0.0402207188308239,-0.007857167162001133,-0.9917138814926147,-0.13391095399856567,0.46495673060417175,0.06501113623380661,30.639827728271484,-10.28116226196289,40.295433044433594,0
160,1599865,-0.026611343026161194,0.03995108976960182,-1.0189229249954224,-0.17155782878398895,-0.32029736042022705,-0.3748420476913452,30.629819869995117,-8.973211288452148,40.50415802001953,0
161,1610024,0.07836844772100449,0.03070155717432499,-0.9643513560295105,0.16635508835315704,0.8013232350349426,0.10089430212974548,28.090246200561523,-10.302836418151855,41.45609664916992,0
162,1619981,0.029843326658010483,0.03358946368098259,-1.0142532587051392,-0.2896311581134796,0.10505475848913193,0.016285168007016182,31.100175857543945,-11.585884094238281,41.29130554199219,0
163,1630005,-0.06644341349601746,-0.012088276445865631,-1.0141488313674927,-0.6103017330169678,-1.269445538520813,-0.8550178408622742,30.02890396118164,-10.31075668334961,37.6041374206543,0
164,1639822,0.037558067589998245,-0.009212205186486244,-1.0132219791412354,-0.7123580574989319,0.17173561453819275,0.4540671706199646,29.70958709716797,-11.179872512817383,39.606834411621094,0
165,1649908,-0.04331134632229805,-0.03554171696305275,-1.0181224346160889,0.9401513934135437,0.4433841109275818,-0.3128111660480499,30.540889739990234,-9.867749214172363,38.842384338378906,0
166,1659812,-0.01272763591259718,0.060550790280103683,-0.9732494950294495,-0.6543986201286316,-0.6577652096748352,0.12959198653697968,30.91499137878418,-10.681818008422852,39.567142486572266,0
167,1669766,-0.027859864756464958,0.08516727387905121,-1.0056698322296143,-0.25423532724380493,0.2159181386232376,-1.193910002708435,29.810989379882812,-10.647114753723145,41.44742965698242,0
168,1679802,-0.04706756770610809,-0.0320594422519207,-1.0252087116241455,-0.27040472626686096,-0.8915873169898987,-0.782474160194397,29.622005462646484,-11.510714530944824,39.938201904296875,0
169,1690154,-0.05384651944041252,0.08705799281597137,-0.9784600138664246,0.7342628240585327,0.2021445482969284,0.19987450540065765,30.16657829284668,-8.967448234558105,42.939788818359375,0
170,1699902,-0.131000816822052,0.011312661692500114,-0.9455606937408447,0.06121167913079262,9.697474160930142e-05,0.16608190536499023,30.030427932739258,-8.88001823425293,40.07474136352539,0
171,1710059,0.05821206793189049,0.05656711384654045,-0.9954167008399963,0.31620559096336365,0.13830165565013885,0.5287799835205078,30.69753074645996,-9.200826644897461,40.6988410949707,0
172,1719836,0.07565773278474808,-0.01432854775339365,-0.9893845319747925,-0.12388718873262405,0.2965503931045532,-0.4050123989582062,29.569847106933594,-10.250866889953613,39.099815368652344,0
173,1730125,0.004611256066709757,-0.003025552025064826,-1.0048091411590576,-0.39614829421043396,0.32051166892051697,-0.0815008357167244,29.5476131439209,-10.258228302001953,40.725040435791016,0
174,1739961,0.035024840384721756,-0.01976999081671238,-1.0052976608276367,-0.624602198600769,-0.4062817394733429,-0.1529352366924286,31.454092025756836,-10.049304962158203,39.15399169921875,0
175,1749981,-0.09455528855323792,-0.0005489167524501681,-0.9962870478630066,-0.2204427272081375,-0.5801524519920349,-0.2975033223628998,30.329296112060547,-10.520508766174316,40.45881652832031,0
176,1759865,-0.10283804684877396,0.03326916694641113,-0.9999904632568359,0.26330727338790894,-0.28998297452926636,1.148953914642334,29.74254035949707,-10.806119918823242,40.804508209228516,0
177,1770264,0.017280450090765953,0.0695774182677269,-1.0269458293914795,-0.4743306040763855,-0.6538345813751221,0.5676631331443787,31.899137496948242,-9.941177368164062,40.41017150878906,0
178,1779891,-0.010064088739454746,0.02626607194542885,-1.0341581106185913,0.08898653835058212,-0.24631021916866302,-0.38380202651023865,29.238630294799805,-10.92124080657959,39.031246185302734,0
179,1789968,-0.10781097412109375,-0.0019575906917452812,-1.0069106817245483,-0.5758281350135803,0.15155845880508423,0.3225475549697876,29.497116088867188,-9.397978782653809,38.95496368408203,0
180,1800255,0.05145467072725296,-0.04182472825050354,-1.0209808349609375,-0.6056473255157471,0.11567823588848114,0.5061177015304565,31.313608169555664,-10.541024208068848,40.43854522705078,0
181,1809963,0.038247622549533844,0.06896108388900757,-0.9797908067703247,-0.09481828659772873,-0.12257786840200424,0.014049834571778774,33.392921447753906,-8.570173263549805,37.88363265991211,0
182,1820192,0.0510985441505909,-0.024367770180106163,-1.011826753616333,-0.0037658573128283024,-0.04776070639491081,0.28480371832847595,30.048982620239258,-11.226580619812012,39.263301849365234,0
183,1830049,-0.0017363798106089234,0.04617699980735779,-0.9816003441810608,-0.4629584550857544,-1.4568287134170532,0.9254832863807678,28.983840942382812,-10.341079711914062,39.59059524536133,0
184,1839806,-0.04014826565980911,-0.11888265609741211,-0.9868433475494385,0.26445209980010986,-0.06553010642528534,-0.11524216830730438,30.535356521606445,-10.061537742614746,40.330787658691406,0
185,1850084,-0.045033812522888184,-0.060793425887823105,-1.0276985168457031,0.19350214302539825,0.5600730180740356,-0.2878779470920563,27.89305305480957,-9.841930389404297,40.79689407348633,0
186,1860367,-0.003124780021607876,0.027943260967731476,-0.9977958798408508,-0.5460152626037598,0.3864724040031433,1.3168742656707764,29.34470558166504,-10.095101356506348,39.36248016357422,0
187,1869812,-0.06054193899035454,0.0915815606713295,-0.9812389016151428,-0.16865064203739166,0.24199840426445007,0.0798351988196373,31.427244186401367,-9.599857330322266,39.08493423461914,0
188,1880102,-0.0562264546751976,-0.0858980044722557,-0.999069333076477,-0.14053605496883392,0.42147624492645264,-0.5060878396034241,28.554399490356445,-9.601788520812988,40.20293045043945,0
189,1890118,0.0271198358386755,0.055546071380376816,-0.9949843883514404,0.3274776041507721,-0.4345201849937439,-0.03854432329535484,30.135677337646484,-8.36670207977295,39.77350616455078,0
190,1899977,-0.0050625912845134735,-0.006845722906291485,-0.9758576154708862,0.5663426518440247,-0.5110568404197693,-0.04147749021649361,30.66958999633789,-9.919090270996094,40.24326705932617,0
191,1909856,-0.0923982560634613,0.008580745197832584,-1.0192004442214966,-0.4306022822856903,0.24693861603736877,1.118356466293335,30.8284969329834,-9.797677040100098,40.347957611083984,0
192,1920085,-0.01511735375970602,0.0867248922586441,-1.0139291286468506,-0.5539461374282837,-0.5651919841766357,0.342631071805954,30.912439346313477,-9.549175262451172,40.511993408203125,0
193,1930018,-0.08011649549007416,-0.020249290391802788,-1.030460238456726,-0.4565408229827881,-0.03847670555114746,0.10871943086385727,29.347444534301758,-10.181103706359863,41.1987419128418,0
194,1940206,-0.005615188740193844,0.05363399535417557,-0.9968265891075134,0.3876771032810211,-0.004191327374428511,-0.1684272289276123,29.94890594482422,-9.805546760559082,40.319766998291016,0
195,1950149,-0.03183210641145706,-0.03267969563603401,-1.0400266647338867,0.2190944105386734,0.055181097239255905,-0.23279441893100739,27.702177047729492,-9.47422981262207,41.099430084228516,0
196,1960153,0.043619100004434586,-0.018477223813533783,-0.976244330406189,0.06731043010950089,-0.0077580600045621395,0.3452749252319336,29.27588653564453,-11.49453067779541,40.91999435424805,0
197,1969981,0.009820091538131237,0.06072189286351204,-1.0255615711212158,0.32673022150993347,0.09848012775182724,0.2910623550415039,29.624303817749023,-11.301304817199707,40.66712951660156,0
198,1980363,-0.05262194573879242,0.038289155811071396,-0.9858328104019165,0.548359215259552,-0.7361816167831421,0.018012402579188347,30.22787857055664,-11.325468063354492,39.15141296386719,0
199,1990040,0.022530557587742805,0.1052854061126709,-1.0335204601287842,-0.07832461595535278,0.6735745668411255,-0.8350963592529297,30.233272552490234,-10.008666038513184,39.384334564208984,0
200,2000129,0.02047421596944332,0.05598488822579384,-0.9991233348846436,0.5386022925376892,0.14003095030784607,0.7235507369041443,30.28226089477539,-8.898116111755371,39.67037582397461,0
201,2009994,0.03780147060751915,-0.0009529353701509535,-0.972458004951477,0.5705162286758423,-0.57716965675354,0.524065375328064,30.21626853942871,-10.333039283752441,38.540348052978516,0
202,2020002,0.07392678409814835,0.023918502032756805,-1.018683671951294,0.6144601702690125,-0.1026969701051712,0.642893373966217,29.958023071289062,-11.551752090454102,40.59235382080078,0
203,2029643,0.09623803943395615,-0.03115488961338997,-0.9822535514831543,0.8907478451728821,-0.43104761838912964,-1.4804844856262207,30.116573333740234,-9.62697982788086,38.900787353515625,0
204,2039988,-0.05667171999812126,-0.038156908005476,-0.9987781643867493,-1.283152461051941,0.18792809545993805,0.22543489933013916,31.04074478149414,-9.288844108581543,38.36623764038086,0
205,2049894,0.09190312027931213,-0.006785132922232151,-0.9941852688789368,-1.290143609046936,0.6100053787231445,-0.34440556168556213,29.25973129272461,-8.308778762817383,39.03082275390625,0
206,2060079,0.019054414704442024,-0.023487135767936707,-0.9884418845176697,0.29359495639801025,0.45462551712989807,0.6917832493782043,29.166088104248047,-8.549853324890137,41.43574142456055,0
207,2070097,0.0752573013305664,0.06398125737905502,-0.9956745505332947,0.362067848443985,-0.35493943095207214,0.33370980620384216,30.59524917602539,-11.436399459838867,39.69779586791992,0
208,2080008,-0.024240806698799133,-0.0505901463329792,-1.004906177520752,-0.3897865414619446,0.7710816860198975,0.33736124634742737,29.156848907470703,-9.94343376159668,40.99726104736328,0
209,2089964,0.014132129959762096,0.039373479783535004,-1.0167945623397827,0.12734556198120117,-0.026021108031272888,-0.41722214221954346,31.313220977783203,-11.118382453918457,40.40577697753906,0
210,2100187,0.06692703813314438,0.07245706766843796,-1.0365067720413208,0.6098629832267761,-0.12096987664699554,-0.2913235127925873,29.37156867980957,-9.555109024047852,40.62793731689453,0
211,2110058,0.025127314031124115,0.01622183807194233,-0.9523339867591858,-0.04788593575358391,0.029697317630052567,0.31354591250419617,29.71709632873535,-8.044937133789062,41.59158706665039,0
212,2120023,-0.06321664154529572,-0.03940015286207199,-1.0317007303237915,0.056000009179115295,0.02897287718951702,0.4057435691356659,29.401960372924805,-7.658463478088379,38.54226303100586,0
213,2130002,0.01934264414012432,-0.006779293995350599,-1.0228009223937988,-0.3063682019710541,-0.1718459576368332,0.4647304117679596,29.529293060302734,-10.318257331848145,39.424747467041016,0
214,2139889,0.03273462876677513,0.003789889393374324,-0.9643991589546204,0.22059166431427002,-0.14618119597434998,-0.2390873283147812,30.53806495666504,-10.369542121887207,40.11933898925781,0
215,2150050,0.001444441033527255,0.07805846631526947,-0.9757899045944214,0.39903441071510315,0.6388793587684631,-0.7422178983688354,29.86017417907715,-9.642646789550781,40.69002151489258,0
216,2160076,-0.015709834173321724,-0.009283475577831268,-0.9673643112182617,0.3225560188293457,-0.04149897024035454,0.30581387877464294,29.162492752075195,-10.791202545166016,40.63408279418945,0
217,2169901,-0.02612062357366085,-0.0007579342345707119,-1.006507396697998,0.7743865847587585,-0.6307987570762634,-0.2698988616466522,29.325485229492188,-10.130999565124512,38.98000717163086,0
218,2180112,-0.006039820611476898,-0.021699661388993263,-0.9737162590026855,-0.05300641804933548,0.6921398043632507,-0.24225406348705292,29.29802703857422,-8.869022369384766,40.259010314941406,0
219,2190054,0.04947911202907562,-0.078880175948143,-0.9933379292488098,-0.4811787009239197,-0.16738517582416534,-0.3702690005302429,31.82272720336914,-9.711055755615234,40.00385284423828,0
220,2199715,0.051618143916130066,0.038379132747650146,-0.9966034889221191,0.36149832606315613,0.9264423251152039,-1.1018779277801514,30.722583770751953,-9.454861640930176,37.576480865478516,0
221,2209739,0.07566316425800323,-0.028080973774194717,-1.021666169166565,0.07413128018379211,0.19628694653511047,0.17990347743034363,27.938213348388672,-8.530374526977539,40.779563903808594,0
222,2219966,0.04669111222028732,0.06839344650506973,-0.9867458343505859,-0.3026488423347473,-0.609142541885376,0.8842504024505615,28.954389572143555,-10.419413566589355,38.67447280883789,0
223,2230087,0.01168670691549778,-0.043100856244564056,-1.0234661102294922,-0.04375991225242615,-0.670146107673645,-0.6621965765953064,29.90984344482422,-8.435425758361816,40.07810592651367,0
224,2240163,0.009312033653259277,-0.052996233105659485,-1.016703724861145,-0.21015535295009613,-0.5734879374504089,-0.5062721967697144,29.734569549560547,-12.1434907913208,39.572513580322266,0
225,2249979,0.0477306954562664,0.031381234526634216,-1.0046859979629517,0.40922853350639343,-0.5755262970924377,-0.6668922901153564,29.52387046813965,-11.180684089660645,39.49666213989258,0
226,2259939,0.005963275674730539,0.02314927987754345,-1.0447075366973877,-0.45864975452423096,0.3963460326194763,0.122813381254673,29.106250762939453,-9.151654243469238,38.79429244995117,0
227,2270177,-0.0038497280329465866,-0.03283978998661041,-1.008558988571167,-0.6094020009040833,0.18896889686584473,-0.3014787435531616,30.813514709472656,-10.274538040161133,40.658714294433594,0
228,2280155,-0.031401973217725754,-0.005815853364765644,-0.9731612205505371,-0.06475303322076797,-0.7068386077880859,0.49850189685821533,30.484607696533203,-9.256080627441406,39.620811462402344,0
229,2289935,0.0912330150604248,0.004016130231320858,-0.9746776223182678,-0.6824629306793213,0.2659022808074951,0.3085610866546631,30.31902313232422,-8.761712074279785,39.41055679321289,0
230,2300091,0.051010046154260635,0.0562470518052578,-1.0307165384292603,0.5152631998062134,0.45982781052589417,0.07495524734258652,30.31245231628418,-9.421146392822266,41.735836029052734,0
231,2310075,0.005058653187006712,0.010347042232751846,-0.9951362013816833,0.6116572022438049,0.19310244917869568,0.8597953915596008,32.70576095581055,-10.822853088378906,38.84335708618164,0
232,2320211,0.08272571116685867,0.04177301377058029,-1.0046600103378296,-0.5349427461624146,-0.13553398847579956,0.17885801196098328,30.50574493408203,-11.409099578857422,39.84638977050781,0
233,2329939,0.01828855648636818,-0.02029835619032383,-0.9663363099098206,-0.4404667317867279,-0.070337675511837,0.4066641330718994,29.498790740966797,-9.56877326965332,39.82602310180664,0
234,2340063,-0.000981551012955606,-0.07819449156522751,-0.9768238663673401,-0.13502554595470428,-0.298269659280777,-0.7907724976539612,28.305294036865234,-10.434171676635742,40.99074172973633,0
235,2349771,0.030583519488573074,0.06020126864314079,-1.00977623462677,0.007529187016189098,0.2306901514530182,0.43838971853256226,29.832416534423828,-10.71384334564209,40.26749038696289,0
236,2360241,-0.02080710418522358,-0.020818112418055534,-0.9885616898536682,0.8578264117240906,-1.191107153892517,-0.2844982147216797,29.730224609375,-8.332348823547363,40.19565200805664,0
237,2369867,0.03298606723546982,-0.03912869840860367,-1.0054949522018433,-0.6856943964958191,-0.8566979765892029,0.5694417953491211,30.644699096679688,-10.347372055053711,38.5478515625,0
238,2380026,-0.1114640161395073,0.10452830046415329,-0.9762160181999207,0.3420250117778778,-0.1941825896501541,-0.60325688123703,30.02632713317871,-10.094855308532715,40.8853759765625,0
239,2390116,0.012762149795889854,0.03852951154112816,-1.0066415071487427,-0.4463321566581726,0.4725266098976135,-1.0205198526382446,28.738178253173828,-9.680015563964844,38.4801139831543,0
240,2399987,0.07579083740711212,0.009408785961568356,-1.0179507732391357,0.18737544119358063,0.031165828928351402,-0.04293164610862732,29.84023094177246,-12.22214126586914,39.656883239746094,0
241,2410193,-0.025783807039260864,0.021500714123249054,-0.9760894775390625,-0.038918547332286835,0.6817111372947693,-0.44458886981010437,30.147321701049805,-11.412335395812988,41.93473815917969,0
242,2419700,-0.007726533338427544,-0.06300187855958939,-0.9890055060386658,-0.973673403263092,-0.42775121331214905,0.39839163422584534,30.525714874267578,-10.195625305175781,40.6264533996582,0
243,2429949,0.056862253695726395,0.01584751345217228,-1.0174697637557983,0.2715319097042084,-0.7665150165557861,-0.5213623046875,31.232240676879883,-8.572845458984375,39.52938461303711,0
244,2440156,-0.09841950237751007,0.08148901164531708,-0.9929390549659729,0.22811995446681976,-0.20906995236873627,0.5736518502235413,29.182817459106445,-11.167886734008789,41.295711517333984,0
245,2450335,-0.05540188029408455,0.0015389046166092157,-1.0093345642089844,-0.44752591848373413,0.3223513662815094,-1.0232926607131958,29.367176055908203,-9.332324028015137,38.49323272705078,0
246,2459970,-0.042798083275556564,-0.07859361916780472,-0.978751003742218,1.4894181489944458,0.3162679374217987,0.6150346398353577,30.734085083007812,-8.613849639892578,41.84642791748047,0
247,2470058,-0.058818645775318146,0.06139737367630005,-0.9972313642501831,0.4584144353866577,-0.22539149224758148,0.6922480463981628,29.577768325805664,-10.157870292663574,41.37581253051758,0
248,2480192,-0.06024209037423134,0.04503258690237999,-0.9824197292327881,-0.26186108589172363,0.5572843551635742,0.47408077120780945,28.85561180114746,-9.616732597351074,38.0506591796875,0
249,2489899,0.002380776684731245,-0.002511156490072608,-1.0120512247085571,-0.1020788848400116,0.7578920722007751,-0.5070371627807617,28.357942581176758,-9.885133743286133,41.57560348510742,0
250,2499888,0.024727122858166695,0.002233335515484214,-1.019646167755127,-0.5134474635124207,-0.3751285672187805,-0.0871463194489479,29.46224021911621,-9.5683012008667,40.83954620361328,0
251,2510208,-0.02393149957060814,-0.016148163005709648,-1.0135351419448853,0.05859246850013733,-0.6337953805923462,0.3465965986251831,30.26495933532715,-10.677238464355469,39.813446044921875,0
252,2519989,0.023897571489214897,-0.05430164188146591,-0.9607695937156677,-0.1316649168729782,0.5145407319068909,0.17876863479614258,28.821914672851562,-8.167150497436523,38.33382797241211,0
253,2530012,0.005335786379873753,0.00016482308274134994,-1.0114846229553223,-0.5750651359558105,0.3968212306499481,-0.29745957255363464,29.975255966186523,-9.609728813171387,40.94268798828125,0
254,2539958,0.008131545037031174,-0.0376618467271328,-0.9899719953536987,-0.5937474966049194,0.3910669684410095,-0.5545519590377808,30.85881996154785,-9.884173393249512,39.723114013671875,0
255,2549855,-0.05928985774517059,-0.05381583422422409,-1.0126980543136597,0.35022619366645813,-0.6526688933372498,0.3074508607387543,29.57137680053711,-9.581527709960938,39.58367156982422,0
256,2560016,-0.004495466127991676,-0.08675014972686768,-1.0077382326126099,0.4167598485946655,0.6365426182746887,-0.38869133591651917,28.84575080871582,-10.845515251159668,39.73682403564453,0
257,2570075,0.006633078679442406,0.034254781901836395,-1.0048344135284424,-0.6261969208717346,0.7601454257965088,-0.587434709072113,28.818811416625977,-11.570122718811035,39.48855972290039,0
258,2580139,0.04270998015999794,0.016617819666862488,-1.0149670839309692,-0.3187735676765442,-0.36352506279945374,0.044160597026348114,29.229286193847656,-9.023275375366211,40.80160903930664,0
259,2589852,0.1267509162425995,-0.004849099088460207,-0.9878730177879333,0.4971548914909363,0.21817274391651154,-0.6105531454086304,31.907785415649414,-8.952606201171875,39.839237213134766,0
260,2600150,0.06375101208686829,0.03790711611509323,-1.0525975227355957,0.7133941054344177,-0.3895018398761749,0.06380823999643326,30.555143356323242,-8.789280891418457,40.997230529785156,0
261,2609838,0.09278938174247742,0.08010365068912506,-1.0065743923187256,-0.5387313365936279,0.568363606929779,-0.18891261518001556,30.735380172729492,-10.670880317687988,41.28330612182617,0
262,2619920,0.025502542033791542,-0.06734535098075867,-0.9930405616760254,0.6056807637214661,-0.5920543074607849,0.8055809140205383,30.811113357543945,-10.730669975280762,40.870384216308594,0
263,2630098,0.01185531448572874,-0.0362391397356987,-1.0139639377593994,-0.41379618644714355,0.2821621298789978,0.6598479151725769,27.972347259521484,-10.10222339630127,38.8895378112793,0
264,2639797,0.0038002305664122105,0.007574790623039007,-0.9859046339988708,-0.36733368039131165,0.28766384720802307,-0.5960841774940491,28.069000244140625,-8.61538314819336,39.43626403808594,0
265,2649837,0.026844609528779984,-0.028763718903064728,-0.9963281750679016,0.8519071340560913,-1.2915749549865723,-0.033787865191698074,27.81593894958496,-9.440190315246582,40.62968063354492,0
266,2659976,0.021212132647633553,-0.005286366678774357,-0.9918282628059387,-0.012840664945542812,0.07674438506364822,0.21043024957180023,29.71030044555664,-8.607416152954102,41.54276657104492,0
267,2669905,-0.01080694142729044,-0.09315253794193268,-0.9976540803909302,0.5347729325294495,0.21039487421512604,0.08465526252985,29.451316833496094,-9.414758682250977,39.58387756347656,0
268,2679871,0.08104104548692703,-0.030241528525948524,-1.0019956827163696,-0.28019219636917114,-0.034639518707990646,-0.11379112303256989,31.03409194946289,-11.843448638916016,40.32626724243164,0
269,2689906,-0.050765510648489,0.023611735552549362,-1.0287153720855713,0.0558316633105278,0.009561347775161266,-0.4567618668079376,30.900300979614258,-10.551276206970215,39.91081237792969,0
270,2699836,-0.01786639541387558,0.02659541182219982,-0.9861376881599426,-0.8728069067001343,0.8685466647148132,0.5696579217910767,29.95525550842285,-10.570363998413086,40.832096099853516,0
271,2709945,-0.09548503160476685,-0.03712264448404312,-1.0199929475784302,-0.9954593777656555,-0.2962724268436432,-0.30745261907577515,30.437702178955078,-10.76773452758789,41.31302261352539,0
272,2720038,0.007428323850035667,-0.07752815634012222,-0.9784919619560242,0.047464240342378616,0.26670876145362854,0.22104264795780182,31.288387298583984,-10.113785743713379,40.66999435424805,0
273,2729941,0.012843995355069637,-0.054352980107069016,-1.0138720273971558,0.2058955729007721,0.2604241669178009,-0.19387869536876678,30.81795883178711,-10.409306526184082,38.827091217041016,0
274,2739897,-0.02015870250761509,0.000782543036621064,-0.983888566493988,-0.03267114236950874,-0.9523879289627075,0.24370500445365906,29.465656280517578,-9.630219459533691,39.78981018066406,0
275,2750062,0.03741020709276199,0.05481976270675659,-1.0061243772506714,0.2734137177467346,0.10454988479614258,0.3718430995941162,29.963272094726562,-10.508655548095703,40.7926025390625,0
276,2759857,-0.05940708890557289,0.03511001914739609,-1.024454116821289,-0.057377614080905914,0.6017992496490479,-0.6336313486099243,30.688859939575195,-9.283164024353027,39.43806076049805,0
277,2769860,0.016848113387823105,-0.012241874821484089,-1.0038294792175293,0.2180921882390976,0.3183269500732422,-0.010904683731496334,29.733976364135742,-8.772648811340332,39.06705093383789,0
278,2780009,-0.09915879368782043,0.0541202649474144,-1.007622241973877,0.015695873647928238,0.030497901141643524,-0.8194761276245117,30.506742477416992,-10.732772827148438,39.29916000366211,0
279,2789852,-0.03894706442952156,-0.033882949501276016,-1.0049442052841187,0.04060830548405647,-0.37937068939208984,-0.44754791259765625,31.951799392700195,-10.275691986083984,40.82884979248047,0
280,2799605,-0.025678623467683792,-0.05088585242629051,-1.0097545385360718,-0.13634291291236877,0.0016235465882346034,0.9389083385467529,28.84486198425293,-9.199515342712402,39.14786148071289,0
281,2809960,0.05162721499800682,0.02664460614323616,-1.0081825256347656,0.41225653886795044,0.521068811416626,-0.2176990658044815,28.83679962158203,-9.51902961730957,41.601043701171875,0
282,2820000,-0.07702232152223587,0.03434387966990471,-0.971938967704773,-0.32289665937423706,-0.34468594193458557,-0.6840788722038269,28.605770111083984,-10.060040473937988,40.051326751708984,0
283,2830198,0.005257141310721636,0.05646919086575508,-0.9841904640197754,-0.46352213621139526,0.3991169035434723,-0.701974093914032,30.551231384277344,-9.427619934082031,37.282989501953125,0
284,2839894,0.03198784962296486,-0.13516269624233246,-1.0093575716018677,-0.052613772451877594,0.21314233541488647,0.04310530796647072,29.66161346435547,-12.018600463867188,38.63160705566406,0
285,2849963,-0.018743891268968582,-0.013962678611278534,-0.9988390207290649,-0.19831903278827667,-0.466317355632782,-0.4525173306465149,31.338106155395508,-10.221613883972168,39.678688049316406,0
286,2860238,-0.012159853242337704,0.020584765821695328,-1.0302683115005493,-0.10480092465877533,0.3737921416759491,0.09975878149271011,29.17870330810547,-9.953204154968262,40.506202697753906,0
287,2870037,0.038839757442474365,0.07598769664764404,-0.9903244972229004,-0.18966519832611084,0.3499082922935486,1.1229935884475708,31.404827117919922,-11.6092529296875,41.42317199707031,0
288,2880103,0.023499395698308945,-0.017676793038845062,-0.9925976991653442,0.6624646186828613,-0.01708507351577282,0.3077671527862549,26.852161407470703,-11.534263610839844,41.288002014160156,0
289,2889951,0.02541951648890972,0.014910928905010223,-1.0127021074295044,0.5173282623291016,-0.3980538845062256,0.06565370410680771,29.778675079345703,-9.202232360839844,37.867435455322266,0
290,2899924,0.00036098904092796147,-0.005246153101325035,-1.0310075283050537,-0.33893463015556335,-0.056757863610982895,0.4353184998035431,31.4985408782959,-8.887979507446289,38.64556884765625,0
291,2909818,-0.0363774336874485,-0.10815153270959854,-0.9698745608329773,-0.22858314216136932,-0.5313208103179932,-0.1936059147119522,30.31459617614746,-11.481304168701172,41.022911071777344,0
292,2919978,0.009508640505373478,0.021893836557865143,-0.9389387369155884,-0.4307703375816345,-0.16957734525203705,-0.7140030264854431,28.587190628051758,-9.158084869384766,41.270347595214844,0
293,2929859,0.036762535572052,0.004802284296602011,-1.0255143642425537,0.5570189952850342,0.11410849541425705,0.26214632391929626,30.645788192749023,-10.682251930236816,40.9544677734375,0
294,2939988,-0.07777886092662811,0.05732668563723564,-0.9750098586082458,0.014166885055601597,0.36573052406311035,0.027217766270041466,28.854814529418945,-10.085960388183594,41.04179763793945,0
295,2950044,-0.022126704454421997,0.07461179792881012,-0.9831697940826416,-0.6011132597923279,0.9295142889022827,0.3192058205604553,30.607755661010742,-9.707717895507812,38.37004089355469,0
296,2960006,0.014004390686750412,-0.026788871735334396,-1.0119224786758423,-0.5069623589515686,0.09444674849510193,-0.4425082206726074,27.983081817626953,-9.485455513000488,42.07553482055664,0
297,2969927,-0.03574555367231369,0.020313821732997894,-1.0014889240264893,-0.5110309720039368,0.2737390100955963,0.5270878076553345,30.726314544677734,-9.47061824798584,39.39903259277344,0
298,2980085,0.07328248769044876,-0.049252502620220184,-1.0077064037322998,-0.40938571095466614,0.5720433592796326,-0.7527931332588196,30.69293785095215,-8.903397560119629,39.57785415649414,0
299,2989976,0.022393373772501945,0.01627187989652157,-0.9921383261680603,-0.23004062473773956,0.8188446164131165,-0.01975644938647747,28.431100845336914,-9.087499618530273,40.24200439453125,0
300,3000203,-0.07523111253976822,0.11903293430805206,-1.0228468179702759,0.3743397891521454,0.2348325103521347,-0.5160307288169861,30.564199447631836,-10.173649787902832,40.20566177368164,0
301,3010294,0.043724872171878815,0.01433163695037365,-0.9777788519859314,-0.2769746780395508,-0.37308743596076965,0.11639895290136337,29.23762321472168,-12.731228828430176,37.09561538696289,0
302,3019841,0.08915384858846664,0.08058479428291321,-1.0109013319015503,0.45587366819381714,-0.045564696192741394,-0.682068407535553,29.91652488708496,-8.39876937866211,39.97292709350586,0
303,3029859,-0.034303780645132065,0.04579894617199898,-1.0067071914672852,-0.29053425788879395,0.20988743007183075,-0.16166630387306213,30.51811408996582,-9.697001457214355,39.91541290283203,0
304,3039999,-0.04931192100048065,0.014012319967150688,-0.9924919009208679,0.1008097305893898,0.7728955745697021,-0.3392625153064728,31.569751739501953,-7.907253265380859,41.22178268432617,0
305,3050033,0.01728636771440506,0.005023568402975798,-1.024120569229126,-0.11000362783670425,-0.1848680078983307,-0.09417182207107544,27.814411163330078,-10.061294555664062,39.605857849121094,0
306,3060007,0.05073626711964607,-0.02194320224225521,-1.0243210792541504,0.5272915363311768,0.006700551602989435,-0.3023354411125183,29.64164161682129,-10.593841552734375,39.80067825317383,0
307,3069900,0.02985507622361183,0.05406956747174263,-1.0325639247894287,1.1073737144470215,-0.22215481102466583,-0.29996180534362793,29.357465744018555,-10.683792114257812,38.071990966796875,0
308,3080269,0.027844490483403206,-0.10191534459590912,-0.9760221838951111,0.01072525791823864,-0.6488750576972961,-0.5639533400535583,30.72408676147461,-10.16651439666748,39.3654670715332,0
309,3089949,-0.02189726009964943,-0.046016205102205276,-0.9985278248786926,-0.8063548803329468,-0.2323165237903595,-0.2020406424999237,29.177446365356445,-10.831278800964355,40.750823974609375,0
310,3100168,-0.0008548357873223722,0.04674294590950012,-0.9822506308555603,-0.415370374917984,-0.8042874932289124,0.7859622836112976,30.317642211914062,-11.37851619720459,38.44889450073242,0
311,3109870,-0.03397907316684723,-0.011441532522439957,-0.9928273558616638,-0.006378890946507454,0.2935768961906433,0.09372826665639877,29.80329132080078,-9.344094276428223,39.89288330078125,0
312,3120038,0.039700038731098175,-0.06681257486343384,-1.036511778831482,0.2806267738342285,-0.454600065946579,0.38389259576797485,30.981088638305664,-8.219095230102539,40.61550521850586,0
313,3129933,0.080683134496212,-0.013212744146585464,-1.006929636001587,-0.2574846148490906,0.16539864242076874,-0.533329427242279,29.580347061157227,-10.934319496154785,40.178958892822266,0
314,3139728,0.07324802130460739,0.08191806077957153,-1.014285922050476,-0.13836297392845154,-0.9456377625465393,0.5161333084106445,30.53786849975586,-10.37291145324707,39.69462203979492,0
315,3149819,0.09284079819917679,0.01990458182990551,-0.993651807308197,-0.5127745866775513,0.08618789166212082,-0.48312899470329285,29.884441375732422,-10.435530662536621,37.41345977783203,0
316,3159900,-0.00995025783777237,0.011530335992574692,-0.9883561730384827,-0.24604663252830505,-0.03495887294411659,-0.2768888473510742,28.35569190979004,-10.931211471557617,39.93205642700195,0
317,3170101,0.06996825337409973,0.042229972779750824,-0.9922124147415161,0.4678193926811218,0.07906914502382278,-0.4544457495212555,33.131038665771484,-9.381790161132812,39.876373291015625,0
318,3180202,-0.028453279286623,0.0023010303266346455,-0.9982807040214539,-0.5857855677604675,-0.6088317632675171,0.3784407675266266,28.699155807495117,-10.491823196411133,39.288326263427734,0
319,3190030,-0.0366351418197155,0.11177883297204971,-1.021178960800171,-0.053084224462509155,-0.301309734582901,-0.1903514415025711,29.30377769470215,-10.33730697631836,40.816654205322266,0
320,3199935,-0.11451412737369537,0.045235469937324524,-1.007832407951355,0.3801710903644562,0.25413480401039124,-0.11319972574710846,29.263675689697266,-11.622603416442871,39.4445686340332,0
321,3209922,-0.018797237426042557,0.011675435118377209,-1.0031274557113647,0.3477514982223511,-0.09852690249681473,0.04871980473399162,29.100488662719727,-9.87193775177002,39.42580032348633,0
322,3219999,0.023598887026309967,0.10355214774608612,-0.9985188245773315,-0.37981975078582764,-0.06680525094270706,-0.35983768105506897,29.883081436157227,-8.487241744995117,39.93888854980469,0
323,3230179,0.025171836838126183,-0.023942237719893456,-1.0104724168777466,0.2041296362876892,0.2020864635705948,0.11749475449323654,30.158161163330078,-11.697334289550781,40.59398651123047,0
324,3240146,0.06699483096599579,-0.02577463909983635,-0.9719932675361633,0.8970676064491272,0.6083275675773621,-0.5526370406150818,29.495540618896484,-11.58723258972168,41.65410232543945,0
325,3249985,0.023481225594878197,0.03886273130774498,-0.9758741855621338,0.32982513308525085,-0.309477299451828,1.0631201267242432,31.463449478149414,-10.644881248474121,39.461082458496094,0
326,3260104,-0.009959312155842781,0.06322477757930756,-0.9907990097999573,0.062045466154813766,-0.002975295763462782,-0.7045975923538208,30.549861907958984,-8.879426002502441,41.22032928466797,0
327,3269973,-0.015035982243716717,0.081009142100811,-1.0305030345916748,0.6345664858818054,0.3911871612071991,0.1363425850868225,30.60235023498535,-10.150762557983398,40.119667053222656,0
328,3279808,-0.05033525452017784,-0.06411511451005936,-1.006219506263733,0.40063321590423584,0.7553371787071228,0.42838460206985474,30.226421356201172,-7.8661699295043945,39.27824401855469,0
329,3289911,-0.00258446391671896,-0.059138111770153046,-1.0104424953460693,0.2959463596343994,-0.336783230304718,0.1441696733236313,31.651020050048828,-10.643146514892578,38.967926025390625,0
330,3299953,-0.00364566408097744,0.10092505812644958,-1.0044976472854614,-0.3459603786468506,0.8678251504898071,0.5913292169570923,29.814720153808594,-10.177557945251465,39.573204040527344,0
331,3310150,-0.027243750169873238,-0.09211275726556778,-0.9975497722625732,-0.8713505864143372,0.2706288993358612,0.5234813094139099,30.117938995361328,-9.570688247680664,42.06344223022461,0
332,3320240,-0.046142224222421646,-0.05119643360376358,-0.9711988568305969,-0.0516015887260437,-0.08039438724517822,-0.23946408927440643,29.89118194580078,-10.594046592712402,40.59343338012695,0
333,3330100,-0.10653817653656006,-0.03535007685422897,-1.02798593044281,-0.2695310115814209,0.06912169605493546,-0.5366688966751099,29.70301055908203,-13.04994010925293,41.00926971435547,0
334,3340070,-0.012674550525844097,-0.1143653616309166,-0.9673989415168762,0.035526376217603683,0.562849760055542,0.14725930988788605,31.07485008239746,-7.908017158508301,39.2689208984375,0
335,3349887,-0.002239302732050419,0.015583307482302189,-0.9942427277565002,0.7039012908935547,-0.973330557346344,0.32814398407936096,29.46467399597168,-11.745676040649414,40.92255783081055,0
336,3359873,0.05550096556544304,0.03055029734969139,-0.9900455474853516,0.4201703369617462,-0.11217329651117325,0.1387469619512558,31.011594772338867,-11.295835494995117,40.953697204589844,0
337,3370006,0.0253888126462698,0.04396672546863556,-1.0094287395477295,1.5590362548828125,-0.20916251838207245,0.009054647758603096,30.09478759765625,-10.62524127960205,39.81147003173828,0
338,3380291,-0.05820366367697716,-0.023862214758992195,-1.0194745063781738,-0.3136806786060333,-0.0890999510884285,-0.4837277829647064,30.148496627807617,-9.637079238891602,40.46773147583008,0
339,3390084,0.13612274825572968,0.01970839872956276,-1.0097479820251465,-0.7559143304824829,0.011348018422722816,-0.5648258924484253,30.0461483001709,-10.816560745239258,38.85139083862305,0
340,3399925,0.023608380928635597,-0.043405480682849884,-0.9768337607383728,0.37342369556427,0.5763214230537415,0.023917874321341515,30.90009880065918,-10.034554481506348,39.459346771240234,0
341,3410047,0.035392582416534424,-0.009560800157487392,-1.0141668319702148,-0.628618061542511,0.664154589176178,0.07178091257810593,30.406410217285156,-11.402813911437988,41.65081787109375,0
342,3419979,-0.006692948285490274,0.02886638045310974,-1.029779076576233,-0.050976742058992386,-0.43981921672821045,-0.21251919865608215,29.43376350402832,-9.329675674438477,40.280330657958984,0
343,3429677,0.02913912571966648,-0.08256090432405472,-0.9987385869026184,-0.12444807589054108,-0.678919792175293,0.10471387207508087,28.512258529663086,-10.518333435058594,39.33258056640625,0
344,3440280,-0.023130517452955246,-0.09892631322145462,-1.0060086250305176,-0.10612545162439346,0.33545222878456116,0.6573010683059692,29.735769271850586,-9.223652839660645,41.234073638916016,0
345,3450156,0.0015442762523889542,-0.05597919598221779,-0.9899259209632874,-1.010296106338501,0.7792623043060303,-0.5728085041046143,29.272581100463867,-9.261826515197754,40.20989227294922,0
346,3460240,0.06354035437107086,0.021005138754844666,-0.986458957195282,-0.015851501375436783,-0.26806190609931946,-0.312098890542984,29.257596969604492,-9.539722442626953,39.607330322265625,0
347,3469973,0.007674817927181721,-0.05323485657572746,-1.0614553689956665,0.646157443523407,-0.6489180326461792,0.5009402632713318,31.2741756439209,-10.861359596252441,39.83190155029297,0
348,3480291,0.10128075629472733,0.0869622752070427,-1.0231701135635376,-0.033543799072504044,0.6637129783630371,-0.4789285957813263,30.61935806274414,-9.122519493103027,39.061309814453125,0
349,3489901,-0.04979071021080017,-0.08614367246627808,-0.9795510768890381,-0.04982893168926239,-0.4861844480037689,-0.6968153715133667,28.92417335510254,-10.508319854736328,40.48541259765625,0
350,3500143,0.11196828633546829,0.004779295064508915,-1.0292870998382568,0.3253377079963684,0.5651292204856873,-0.20006076991558075,31.023460388183594,-8.994669914245605,39.20268249511719,0
351,3509955,0.03710078075528145,-0.015575027093291283,-1.0220084190368652,-1.114972710609436,-0.4230930507183075,0.2998203635215759,30.5908203125,-9.1904935836792,38.944095611572266,0
352,3520203,0.11062195897102356,-0.012156100012362003,-0.9497149586677551,0.5108697414398193,-0.6401211023330688,0.07256893068552017,29.799352645874023,-10.35347843170166,40.454349517822266,0
353,3529986,0.03737331181764603,0.04987303912639618,-1.0111335515975952,0.5565508604049683,-0.10548639297485352,-0.7481011748313904,30.206823348999023,-10.237642288208008,41.788124084472656,0
354,3539922,0.08301054686307907,-0.04366178810596466,-1.0409634113311768,-0.38192012906074524,0.7951340675354004,-0.10881594568490982,30.07929801940918,-9.473159790039062,40.58719253540039,0
355,3549750,0.07736478000879288,0.019693734124302864,-1.00640070438385,0.2437504529953003,0.4648723304271698,0.4613158702850342,30.69853973388672,-9.481545448303223,42.26801681518555,0
356,3559859,0.1630716174840927,-0.03327600657939911,-1.0097944736480713,-0.30208292603492737,0.8753368854522705,-0.624484658241272,30.30487823486328,-9.550724983215332,38.032169342041016,0
357,3570056,-0.030186647549271584,-0.011020892299711704,-1.0153602361679077,-0.4997999966144562,-0.4009335935115814,-0.6776755452156067,30.458742141723633,-10.588846206665039,39.85042953491211,0
358,3580058,-0.06132330745458603,0.007954436354339123,-1.0067594051361084,-0.6071179509162903,0.21533487737178802,0.5726131200790405,29.659971237182617,-10.562505722045898,43.22941207885742,0
359,3589803,0.02606298215687275,0.028188087046146393,-0.9568818211555481,0.6622341275215149,0.016890063881874084,-0.25503313541412354,31.418479919433594,-12.103407859802246,39.58805465698242,0
360,3600129,0.013088610023260117,0.030136872082948685,-0.9754512906074524,1.198089361190796,0.13068576157093048,-1.0593008995056152,30.906757354736328,-10.576395988464355,39.875606536865234,0
361,3610096,0.07195042818784714,-0.05483562871813774,-0.9787126779556274,-0.37721601128578186,0.1436060667037964,-0.2427290976047516,28.0881404876709,-10.516082763671875,40.686012268066406,0
362,3619998,-0.01631406880915165,0.008694794028997421,-1.0021415948867798,0.07756171375513077,-0.14765243232250214,1.0097861289978027,28.807804107666016,-11.11660385131836,38.49433517456055,0
363,3630090,-0.054768603295087814,-0.010606116615235806,-1.0413681268692017,-0.011130078695714474,0.23855982720851898,0.42420047521591187,27.598825454711914,-9.999387741088867,40.194068908691406,0
364,3640073,0.009106303565204144,0.037615977227687836,-0.9926511645317078,-0.11879818886518478,0.24131526052951813,0.6903354525566101,31.10886573791504,-10.835866928100586,40.93219757080078,0
365,3649972,0.035310566425323486,-0.008662430569529533,-0.9764323830604553,0.18775710463523865,-0.07503817230463028,0.37670543789863586,29.922618865966797,-8.555033683776855,41.81820297241211,0
366,3660147,0.0774632915854454,0.0737924575805664,-1.0271599292755127,-0.10931341350078583,-0.15989066660404205,0.60081946849823,27.9305362701416,-9.983329772949219,40.37763977050781,0
367,3669936,0.017435865476727486,-0.06990393996238708,-0.9788888096809387,-0.06041504815220833,0.5953930616378784,0.4483124017715454,29.575162887573242,-9.058547019958496,38.06096649169922,0
368,3680123,0.03988427668809891,-0.026708662509918213,-1.0256820917129517,-0.7234640717506409,-0.000733395863790065,-0.4258231222629547,30.10814094543457,-10.380739212036133,38.29258346557617,0
369,3690248,-0.08936675637960434,0.044267188757658005,-1.010961890220642,-0.39843884110450745,0.8404229879379272,-0.6350697875022888,30.138872146606445,-9.122318267822266,39.12348556518555,0
370,3700079,-0.0155017776414752,0.007801841013133526,-0.9975771307945251,0.026026329025626183,-0.2839621305465698,0.8420703411102295,29.136680603027344,-9.794445991516113,40.552364349365234,0
371,3710077,-0.048145901411771774,-9.10325616132468e-05,-1.0189729928970337,-0.13333173096179962,-0.16810224950313568,0.0423167385160923,29.444271087646484,-8.730741500854492,39.201087951660156,0
372,3719929,0.05972616747021675,0.05284086614847183,-1.0151432752609253,0.30280953645706177,-0.4739539623260498,0.9977130889892578,29.841079711914062,-10.607353210449219,39.722084045410156,0
373,3729783,0.025574561208486557,-0.013259964063763618,-0.9876969456672668,0.033508848398923874,-1.0340461730957031,1.3547897338867188,30.838375091552734,-9.309826850891113,39.459983825683594,0
374,3740033,-0.04407849907875061,0.010274960659444332,-1.0341168642044067,-0.25917237997055054,-0.27141493558883667,0.4481421113014221,29.824277877807617,-10.953032493591309,41.0898551940918,0
375,3749647,0.0005587789928540587,0.0431131087243557,-1.0115973949432373,-0.3006420135498047,0.07952911406755447,-0.8261221647262573,29.490907669067383,-9.884071350097656,39.477264404296875,0
376,3759843,-0.020285772159695625,0.015584317967295647,-1.0322802066802979,0.31869828701019287,-0.6768502593040466,0.38720959424972534,29.88265037536621,-10.659941673278809,40.2635612487793,0
377,3770272,-0.010207117535173893,0.06388463824987411,-1.0058313608169556,-0.8614749312400818,-0.17426316440105438,0.3181397020816803,30.606464385986328,-10.2441987991333,41.3828239440918,0
378,3779923,-0.00967993400990963,0.010608097538352013,-0.9661751389503479,0.2222902923822403,0.19943000376224518,0.7289685606956482,29.325542449951172,-11.760943412780762,40.08833694458008,0
379,3789977,-0.03371547907590866,-0.018967069685459137,-1.034829020500183,-0.38912004232406616,0.3824046850204468,0.09660381823778152,29.195375442504883,-9.737357139587402,39.995262145996094,0
380,3800130,0.04095717892050743,-0.0031067952513694763,-1.0082435607910156,-0.5711368322372437,-0.23499028384685516,0.4939952790737152,30.69351577758789,-9.089552879333496,39.38584899902344,0
381,3810055,-0.019757593050599098,-0.002463762881234288,-1.0089459419250488,-0.43072524666786194,0.16796980798244476,1.2209827899932861,29.811037063598633,-8.543368339538574,39.76752471923828,0
382,3820240,0.02187466435134411,0.03112173080444336,-0.9691812992095947,-0.32598188519477844,-0.12110871076583862,0.5990121960639954,31.1706485748291,-8.72618579864502,39.86129379272461,0
383,3829653,-0.01183943822979927,0.04005107283592224,-1.040729284286499,0.5375692844390869,0.5840491056442261,0.010582907125353813,29.642000198364258,-10.277520179748535,40.259559631347656,0
384,3840049,0.052766598761081696,0.04255823791027069,-0.9927809238433838,-0.2609013319015503,0.47460296750068665,-0.6389859914779663,29.676362991333008,-8.871883392333984,40.827518463134766,0
385,3850170,0.12416525930166245,-0.038283124566078186,-0.9947702288627625,0.27944260835647583,0.39842870831489563,-0.08623349666595459,29.4605655670166,-10.762284278869629,39.665130615234375,0
386,3860001,-0.024066541343927383,-0.02478492259979248,-1.023470163345337,0.003999017179012299,0.45456463098526,0.7190602421760559,31.546621322631836,-9.874817848205566,38.726383209228516,0
387,3869826,-0.09796983748674393,0.05167478322982788,-0.9815188646316528,0.24295581877231598,0.2809140384197235,-0.03379213809967041,30.63092041015625,-9.871299743652344,39.97247314453125,0
388,3880168,-0.0032708679791539907,-0.10702061653137207,-1.0086896419525146,-1.0301706790924072,-0.6745198369026184,0.3113396167755127,31.691265106201172,-10.218084335327148,40.51897048950195,0
389,3889813,-0.11397567391395569,0.05376589670777321,-0.9964156746864319,0.2982417047023773,-0.3947286009788513,-0.22182172536849976,29.778566360473633,-9.003475189208984,39.009376525878906,0
390,3899734,0.017918067052960396,0.02979649044573307,-1.0123193264007568,-0.6354043483734131,-0.009094114415347576,-0.2448042333126068,29.4729061126709,-10.361516952514648,41.3128776550293,0
391,3910119,0.007145555689930916,-0.005849511828273535,-0.9633598327636719,0.2645893096923828,0.5254022479057312,0.2772466838359833,27.479448318481445,-9.282258987426758,38.27228927612305,0
392,3919939,-0.004958993289619684,0.11786212772130966,-0.9855319857597351,-1.1742182970046997,-0.01136455312371254,0.44204261898994446,30.949338912963867,-9.52415657043457,39.77665328979492,0
393,3929905,-0.023545628413558006,0.010591283440589905,-1.024288535118103,-0.5695810317993164,-0.1807498335838318,-0.5123751759529114,28.90155601501465,-8.329870223999023,39.840919494628906,0
394,3940123,0.046566616743803024,-0.038159336894750595,-0.9826719164848328,0.10735367983579636,-0.7231849431991577,-1.0509142875671387,28.630529403686523,-10.463798522949219,40.281707763671875,0
395,3950193,0.09967794269323349,0.10512986034154892,-1.0097497701644897,0.500217080116272,0.7280572056770325,1.8949822187423706,30.157901763916016,-9.226310729980469,40.47808837890625,0
396,3959793,-0.02450963668525219,0.030200863257050514,-1.0301086902618408,-0.004745135083794594,0.21210114657878876,-0.4302996098995209,30.32328224182129,-9.157719612121582,41.55351257324219,0
397,3970121,0.0010162306716665626,-0.06440768390893936,-1.0452659130096436,0.8557455539703369,0.10307637602090836,-0.003166054142639041,31.05262565612793,-10.655067443847656,40.1605339050293,0
398,3980000,-0.04985706880688667,0.02020677551627159,-1.0397155284881592,0.1050412654876709,0.36088258028030396,0.38128525018692017,28.94778060913086,-10.9900484085083,40.52443313598633,0
399,3990177,0.04435130953788757,0.0034699004609137774,-1.02939772605896,0.14429029822349548,0.3300706744194031,0.6858795881271362,28.91533851623535,-10.149161338806152,40.059940338134766,0
400,4000085,0.005526318214833736,-0.010525844059884548,-1.0208481550216675,0.3115505278110504,0.35850027203559875,-0.9919174313545227,31.333345413208008,-11.435113906860352,39.57534408569336,0
401,4009929,-0.002425849437713623,-0.02974790707230568,-1.0386255979537964,-0.38207945227622986,-0.4433746039867401,0.24975064396858215,29.692134857177734,-8.649885177612305,40.466796875,0
402,4020075,0.05232641100883484,0.006448814645409584,-1.0143053531646729,0.5123063325881958,0.7264623641967773,-0.022344928234815598,31.59375762939453,-8.601912498474121,41.196407318115234,0
403,4030048,0.08295505493879318,-0.0833897516131401,-1.0239633321762085,0.3313682973384857,0.6454841494560242,0.5552917122840881,28.140838623046875,-10.950736045837402,40.290260314941406,0
404,4039957,0.06557049602270126,-0.0032340772449970245,-0.9827520847320557,0.7686323523521423,-0.9306999444961548,-0.09062374383211136,29.43548011779785,-9.493059158325195,40.94557189941406,0
405,4050081,-0.046768948435783386,-0.003968111239373684,-0.9862155318260193,0.8158270716667175,-0.10228729993104935,0.4436134099960327,31.3668270111084,-9.16080093383789,38.41135787963867,0
406,4060148,-0.026447201147675514,-0.018137428909540176,-0.9796568751335144,-0.507819652557373,0.8564630746841431,0.26415690779685974,29.422040939331055,-9.201593399047852,38.71989059448242,0
407,4070321,0.0601595938205719,0.046491023153066635,-0.9864891767501831,-0.07059099525213242,-0.32352447509765625,0.013041321188211441,29.80219268798828,-9.596799850463867,39.424766540527344,0
408,4080078,0.052060678601264954,0.09047812223434448,-0.9810818433761597,-0.05376575514674187,0.23845361173152924,0.3580113649368286,30.58607292175293,-8.610481262207031,40.12454605102539,0
409,4089982,0.0020842079538851976,-0.08494993299245834,-0.9955266118049622,-0.07162374258041382,-0.8036566972732544,0.5269768834114075,29.640989303588867,-12.908540725708008,39.0897102355957,0
410,4099874,0.019410928711295128,-0.023077305406332016,-0.9722490310668945,-0.1848982274532318,0.6166406869888306,-0.7471480965614319,30.89703369140625,-10.259352684020996,40.246490478515625,0
411,4109887,0.07617977261543274,-0.08381175994873047,-1.0073997974395752,0.5000802278518677,-0.33099108934402466,0.09537595510482788,31.367843627929688,-8.342988014221191,39.87496566772461,0
412,4120104,-0.06976895034313202,0.0027502740267664194,-0.9655185341835022,-0.22366802394390106,0.19230368733406067,0.24520175158977509,28.913150787353516,-11.56614875793457,40.422584533691406,0
413,4130070,0.09730236977338791,-0.045946016907691956,-1.0087662935256958,0.02978641912341118,0.15977759659290314,-0.7044408917427063,30.622581481933594,-9.90650463104248,40.788299560546875,0
414,4140094,0.015182271599769592,-0.078273706138134,-1.046012043952942,-0.20283229649066925,0.43444305658340454,0.9737558960914612,30.076562881469727,-8.152619361877441,37.55527114868164,0
415,4150041,-0.02426600456237793,-0.031967684626579285,-0.9697666764259338,-0.3239804208278656,1.641615390777588,0.3110429346561432,30.093664169311523,-7.874562740325928,39.25973892211914,0
416,4160003,0.018532920628786087,-0.03452335670590401,-0.9944291710853577,-0.31193825602531433,-0.704581081867218,0.28093135356903076,29.657934188842773,-9.762239456176758,39.912437438964844,0
417,4170019,0.03151659667491913,0.008181938901543617,-1.0016988515853882,-0.20460371673107147,-0.6095842123031616,0.1044197753071785,28.992908477783203,-10.207985877990723,37.919864654541016,0
418,4179840,0.03879062831401825,-0.04622916132211685,-1.0651421546936035,0.06693847477436066,0.4694156050682068,-0.8785623908042908,29.89841079711914,-8.707335472106934,42.06244659423828,0
419,4189953,0.0006323360721580684,0.007526892237365246,-1.009026050567627,0.84782874584198,0.46553847193717957,-0.5478674173355103,29.848247528076172,-11.286943435668945,39.5626220703125,0
420,4200246,-0.011646490544080734,-0.07135997712612152,-1.0114774703979492,0.40176820755004883,-0.4057801365852356,0.2919877767562866,30.6935977935791,-11.416635513305664,37.837825775146484,0
421,4209913,0.041273657232522964,0.09513966739177704,-0.9904822111129761,-0.569274365901947,0.003556059207767248,-0.5720199346542358,31.18785858154297,-9.805398941040039,42.047882080078125,0
422,4220292,-0.04078393429517746,0.04852284863591194,-1.0354089736938477,-0.1928713470697403,0.2244131863117218,-0.2246568351984024,29.81329917907715,-11.933406829833984,39.49856185913086,0
423,4229929,-0.048406779766082764,0.0017947289161384106,-0.9963250756263733,-0.35129937529563904,-0.003916011191904545,-0.462630033493042,28.994192123413086,-10.81722354888916,41.937339782714844,0
424,4239958,0.08113861083984375,-0.057185325771570206,-0.9991437792778015,0.16379673779010773,-0.21668127179145813,1.000223159790039,30.054349899291992,-9.304901123046875,39.62485885620117,0
425,4250113,0.025180572643876076,0.06488240510225296,-1.01080322265625,0.10153669863939285,-0.8503687977790833,0.6496120095252991,29.720325469970703,-9.771571159362793,38.559688568115234,0
426,4259795,0.02391466684639454,-0.008150717243552208,-0.9946491718292236,0.9287950396537781,-0.10025031864643097,-0.8608635663986206,29.736635208129883,-9.224315643310547,38.1507682800293,0
427,4270049,-0.02717791311442852,0.04454747214913368,-0.9671112895011902,0.3042058050632477,-1.0267778635025024,0.26189467310905457,30.033966064453125,-10.286312103271484,39.7971305847168,0
428,4279996,-0.028872376307845116,-0.06130396947264671,-1.004817008972168,1.2183117866516113,-0.3139018714427948,-0.4405357241630554,29.894433975219727,-11.562403678894043,41.123313903808594,0
429,4290152,-0.07553986459970474,0.029420576989650726,-0.9887732863426208,0.14351855218410492,-0.4405779540538788,0.7108250260353088,31.188108444213867,-11.005101203918457,40.74900817871094,0
430,4299997,-0.02407199889421463,-0.013886493630707264,-1.005074143409729,-0.4615512490272522,0.6912816166877747,-0.19457286596298218,29.87272071838379,-9.471118927001953,39.90589904785156,0
431,4309930,0.030330142006278038,0.008982026018202305,-1.0118848085403442,-0.5533912181854248,-0.8421898484230042,-0.9044854640960693,29.94858741760254,-10.267995834350586,39.66913986206055,0
432,4320034,0.018587572500109673,0.025361299514770508,-0.9985889196395874,-0.18574734032154083,-0.4274457097053528,-0.512283980846405,29.698549270629883,-10.671632766723633,38.719757080078125,0
433,4330037,0.029765425249934196,0.02805137075483799,-1.0066884756088257,0.049278952181339264,0.31088706851005554,0.8380284309387207,30.280792236328125,-11.43145751953125,39.940406799316406,0
434,4339861,-0.043198686093091965,-0.06932223588228226,-0.9918526411056519,0.15849986672401428,0.060543760657310486,0.5402804613113403,30.33506202697754,-8.637715339660645,42.12132263183594,0
435,4349940,-0.053633805364370346,-0.005205228924751282,-0.9926949143409729,-0.4583040475845337,0.4874597191810608,-0.12286951392889023,30.004440307617188,-8.911601066589355,42.66926956176758,0
436,4359791,-0.0168840903788805,0.027806701138615608,-1.0118777751922607,-0.7544586062431335,0.4867541491985321,-0.048835307359695435,29.311540603637695,-9.454570770263672,40.24942398071289,0
437,4369853,-0.09871822595596313,-0.11092931777238846,-1.0025322437286377,0.4704943597316742,-0.20765461027622223,0.5599574446678162,29.588396072387695,-10.655561447143555,39.93963623046875,0
438,4379979,0.08286947757005692,0.09816674143075943,-1.0073213577270508,0.354170024394989,0.6350984573364258,-0.1615818589925766,29.82923126220703,-10.35781478881836,39.97887420654297,0
439,4390010,0.010120855644345284,-0.00845975149422884,-0.9964892864227295,-0.07321121543645859,-0.08250880986452103,-0.07780066877603531,31.160545349121094,-10.157777786254883,39.3370246887207,0
440,4399952,-0.05737261101603508,0.07930880784988403,-0.9731233716011047,-0.0916999876499176,-0.38244184851646423,-0.4238881766796112,31.76670265197754,-8.679963111877441,40.71989822387695,0
441,4409900,0.027197260409593582,0.09624917060136795,-1.0458635091781616,0.8026288747787476,-0.1589215248823166,-0.44209837913513184,30.594329833984375,-11.942612648010254,39.7977294921875,0
442,4419791,-0.14372509717941284,-0.05734885856509209,-0.9841828346252441,0.2544817328453064,0.12547270953655243,0.6426748633384705,29.12459373474121,-9.790691375732422,39.9688835144043,0
443,4429930,0.006255438085645437,0.03318706154823303,-1.0699461698532104,-0.18719515204429626,-0.9908473491668701,0.063505157828331,30.097185134887695,-9.823691368103027,39.54798126220703,0
444,4440097,-0.0030783358961343765,0.0010421223705634475,-0.99530428647995,0.4285588562488556,0.10276881605386734,0.11218104511499405,31.3192195892334,-10.105342864990234,40.496768951416016,0
445,4449818,-0.007416283246129751,0.010882453061640263,-0.9753201007843018,1.3005975484848022,-0.0032213146332651377,-0.6317726373672485,29.944482803344727,-11.013766288757324,41.66637420654297,0
446,4459891,-0.002307035494595766,-0.024736113846302032,-0.9878096580505371,-0.7844621539115906,-0.0847080871462822,-0.9569615125656128,28.929304122924805,-11.050606727600098,40.11883544921875,0
447,4469678,0.01747136563062668,0.00240027136169374,-0.9969850778579712,-0.15027965605258942,-0.8143367171287537,0.7780838012695312,30.989402770996094,-9.047431945800781,41.04351043701172,0
448,4479942,0.04842209443449974,0.0038629446644335985,-1.025733470916748,0.029235856607556343,-1.0238404273986816,0.0018162253545597196,32.28822326660156,-11.418013572692871,39.063140869140625,0
449,4490104,-0.024773770943284035,-0.0012002423172816634,-1.0064195394515991,-0.292277067899704,-0.04534507542848587,-0.5998321771621704,27.745241165161133,-9.63425350189209,38.475303649902344,0
450,4500088,0.0019183404510840774,-0.045811716467142105,-1.0071170330047607,-0.1711101084947586,-0.6352207660675049,0.09243420511484146,30.61813735961914,-11.21491527557373,40.4314079284668,0
451,4509990,0.02999316342175007,0.0025471611879765987,-0.9828864336013794,-0.9773711562156677,-0.18633171916007996,-0.3994300365447998,29.068777084350586,-9.971028327941895,40.856475830078125,0
452,4520115,0.055957332253456116,-0.06986857205629349,-1.0101262331008911,-0.4732748866081238,-0.31860992312431335,0.3167400360107422,28.878414154052734,-9.69246768951416,39.5066032409668,0
453,4529948,0.019134121015667915,-0.04606328159570694,-1.0290606021881104,-0.41648203134536743,0.1194596067070961,-0.8488386869430542,29.4681396484375,-9.660279273986816,39.94668197631836,0
454,4539931,-0.016347728669643402,-0.018367677927017212,-1.0109140872955322,-0.7914369106292725,0.7800238132476807,-0.5407088398933411,29.936981201171875,-11.360576629638672,39.444297790527344,0
455,4549991,-0.06127386540174484,-0.050629664212465286,-0.9703759551048279,-0.6068521738052368,-0.12943106889724731,0.6744537353515625,29.459678649902344,-10.269294738769531,38.44453811645508,0
456,4559858,-0.030317531898617744,-0.050792332738637924,-1.0209273099899292,0.06853343546390533,-0.39654073119163513,-0.43658164143562317,30.735429763793945,-9.883150100708008,39.35807418823242,0
457,4570020,-0.16050738096237183,-0.09170658886432648,-0.9992436170578003,-0.11762446910142899,0.06957876682281494,-0.03162514790892601,29.84394073486328,-10.263554573059082,40.644962310791016,0
458,4579991,-0.018097801133990288,-0.04963580146431923,-1.0073797702789307,-0.08204519748687744,0.5273364782333374,0.5334879755973816,29.267169952392578,-9.2286376953125,40.4299201965332,0
459,4589857,0.020275555551052094,-0.045026667416095734,-0.9888144731521606,-0.04319140687584877,-0.05810224264860153,1.0410847663879395,29.657424926757812,-10.674779891967773,40.272178649902344,0
460,4600026,-0.06078832969069481,0.07424309104681015,-0.9719264507293701,-0.07051748782396317,-0.19710323214530945,0.24656109511852264,31.525897979736328,-10.313132286071777,40.79730224609375,0
461,4609915,0.013364894315600395,-0.03931298106908798,-1.030197262763977,-0.5754887461662292,-0.26309332251548767,0.5519752502441406,28.789085388183594,-9.469219207763672,39.55275344848633,0
462,4620159,0.08462562412023544,0.009933841414749622,-0.998178243637085,-0.028931736946105957,0.545436441898346,0.502604067325592,30.795780181884766,-9.196786880493164,40.51918029785156,0
463,4630141,-0.05649147927761078,-0.05725378543138504,-1.026578664779663,-0.01167373824864626,-0.26721155643463135,0.23414036631584167,30.589481353759766,-10.080159187316895,38.77687072753906,0
464,4640246,0.05495845526456833,0.026093121618032455,-1.001785397529602,-0.026368990540504456,-0.6164116263389587,1.4076862335205078,31.329343795776367,-10.835687637329102,39.94266891479492,0
465,4649895,0.11234508454799652,0.014488830231130123,-1.0094726085662842,0.25398874282836914,-0.19839349389076233,-0.5463693141937256,28.246963500976562,-10.793241500854492,39.57635498046875,0
466,4659944,0.10930948704481125,-0.02116195484995842,-0.988585889339447,0.6266965866088867,0.18300966918468475,0.5423067212104797,29.079219818115234,-10.439823150634766,39.98058319091797,0
467,4670234,0.0016108989948406816,7.869656110415235e-05,-0.9861435890197754,0.3507055342197418,-0.4105371832847595,0.38519856333732605,30.510629653930664,-11.370684623718262,41.4297981262207,0
468,4680102,0.01881902851164341,-0.0104335593059659,-0.9718741774559021,-0.15090270340442657,-0.8249309659004211,0.03078071027994156,30.196430206298828,-9.380448341369629,40.06569290161133,0
469,4689860,0.0647229477763176,0.0182674340903759,-0.963109016418457,0.2453368604183197,-0.848784327507019,0.286769837141037,32.068538665771484,-7.944523811340332,41.58748245239258,0
470,4699935,0.06363379210233688,0.04341897740960121,-1.005851149559021,-1.2302308082580566,-0.14532889425754547,0.22508716583251953,29.62978172302246,-9.047118186950684,40.96327590942383,0
471,4710008,0.06035960838198662,0.09860530495643616,-0.9675981998443604,0.15650342404842377,0.13404732942581177,0.838740885257721,29.0930233001709,-8.084030151367188,41.77109909057617,0
472,4720246,0.022634433582425117,0.012371326796710491,-1.029797911643982,-0.010621678084135056,-0.4361388385295868,-0.63823002576828,29.868623733520508,-9.856123924255371,39.47420120239258,0
473,4729922,-0.025318237021565437,-0.07891964912414551,-1.044067144393921,0.8528937101364136,0.10242200642824173,-0.2433919906616211,29.776084899902344,-8.809903144836426,41.07872009277344,0
474,4740049,-0.001700148219242692,-0.029134858399629593,-1.0018465518951416,0.05452660471200943,0.6630315184593201,-0.4600151777267456,30.438434600830078,-9.248791694641113,39.65020751953125,0
475,4749788,0.0473749004304409,-0.033393848687410355,-1.0154820680618286,0.14989963173866272,0.009966879151761532,-0.6161806583404541,29.963781356811523,-9.800244331359863,39.81536865234375,0
476,4760277,-0.02426997572183609,0.039891261607408524,-1.046002745628357,-0.2559433877468109,0.210937961935997,-0.36646220088005066,30.189367294311523,-9.053975105285645,39.88618087768555,0
477,4770106,-0.018972566351294518,-0.013862907886505127,-0.9916384220123291,-0.7477824091911316,0.4475422203540802,1.047828197479248,29.308805465698242,-9.461810111999512,40.43738555908203,0
478,4780240,0.0017764783697202802,-0.019800253212451935,-1.0199472904205322,0.43953949213027954,-0.49772536754608154,-0.37810060381889343,28.456586837768555,-10.12619400024414,39.68662643432617,0
479,4789764,9.083069016924128e-05,-0.06701366603374481,-1.0078637599945068,0.3709857761859894,-0.7913431525230408,-0.6088628768920898,29.960172653198242,-10.235237121582031,40.0072021484375,0
480,4800067,-0.013985484838485718,0.0016108985291793942,-1.0108413696289062,0.5807588696479797,0.22204925119876862,-0.5940160155296326,29.54482650756836,-9.101798057556152,38.57530212402344,0
481,4809984,0.07069762051105499,0.01570097729563713,-0.9982829093933105,0.4849780201911926,-0.5047456622123718,-0.7186552882194519,30.804306030273438,-10.667571067810059,39.15496063232422,0
482,4819923,-0.035616692155599594,-0.040747202932834625,-1.005692958831787,0.6413610577583313,0.05586659163236618,0.0238205473870039,28.33902931213379,-10.55148696899414,40.681976318359375,0
483,4830285,-0.10842378437519073,0.05357036367058754,-1.0040701627731323,-0.5359892249107361,-1.028248906135559,-0.43823128938674927,28.83729362487793,-10.586669921875,40.44105529785156,0
484,4839941,0.05732397735118866,-0.00486547127366066,-1.0129221677780151,-0.45038971304893494,-0.942291259765625,0.22525061666965485,29.659706115722656,-9.784358978271484,41.00862503051758,0
485,4850120,-0.1275831013917923,-0.01693549193441868,-0.9372941255569458,0.060091532766819,-0.3341433107852936,0.012284130789339542,28.116313934326172,-9.111771583557129,39.8243522644043,0
486,4859919,0.012791123241186142,-0.0194611344486475,-0.9842783212661743,-0.07344362139701843,0.17886726558208466,0.764037549495697,31.470861434936523,-9.375753402709961,40.734127044677734,0
487,4870073,-0.04467255622148514,-0.12096849083900452,-0.9802297949790955,-0.06881843507289886,0.1294785887002945,-0.2545735836029053,30.368131637573242,-9.990285873413086,39.763916015625,0
488,4879880,-0.016858190298080444,0.03652022406458855,-0.9868067502975464,0.46040579676628113,0.28358832001686096,0.22920706868171692,31.244977951049805,-12.024723052978516,40.38596725463867,0
489,4889945,0.08686093986034393,-0.024574685841798782,-0.9931628704071045,0.5412325263023376,-0.32927510142326355,0.9160251617431641,30.01904296875,-11.387175559997559,38.94081115722656,0
490,4899991,-0.035052355378866196,-0.10591360181570053,-0.9934712648391724,-0.044868435710668564,0.8705540895462036,0.408818781375885,30.703475952148438,-8.03288459777832,40.28587341308594,0
491,4910034,0.04362724348902702,0.03237839415669441,-1.0127099752426147,-0.697711706161499,-0.759979248046875,-0.32320085167884827,28.805572509765625,-9.973767280578613,40.63662338256836,0
492,4919813,-0.06402859836816788,0.07951232045888901,-0.996610701084137,-0.47572535276412964,0.2215566784143448,0.35303521156311035,30.961923599243164,-12.371980667114258,38.73569107055664,0
493,4929908,-0.060305237770080566,-0.051825836300849915,-1.017293095588684,0.7099313735961914,0.49480071663856506,1.0110595226287842,28.228065490722656,-9.524772644042969,39.980751037597656,0
494,4940196,0.06985819339752197,-0.028064895421266556,-0.9937876462936401,0.38194018602371216,-0.02926129288971424,0.8759832978248596,30.127025604248047,-11.287360191345215,41.891265869140625,0
495,4949760,0.04453360661864281,-0.02452065423130989,-1.030617356300354,-1.0472034215927124,-0.04364573955535889,-0.3676042854785919,31.060209274291992,-10.58903980255127,39.879119873046875,0
496,4960149,0.007069563493132591,-0.018114900216460228,-1.040680170059204,0.3754701018333435,-0.3837471008300781,0.016035256907343864,29.981679916381836,-11.71214485168457,38.476139068603516,0
497,4969971,0.07349437475204468,0.028685254976153374,-1.0102624893188477,-0.1291203647851944,0.15072016417980194,0.4201740324497223,28.259973526000977,-10.138349533081055,40.22587966918945,0
498,4980087,-0.05425836145877838,0.10232865065336227,-0.9885953664779663,-0.4899251461029053,-0.1835048794746399,0.40748101472854614,29.346586227416992,-9.972484588623047,40.79353713989258,0
499,4990076,0.08327709138393402,0.0511668361723423,-1.03086519241333,0.40607553720474243,0.1786506026983261,-0.589683473110199,29.302324295043945,-10.757564544677734,41.03854751586914,0
500,4999879,-0.10598313808441162,-0.043846674263477325,-1.0166751146316528,0.3322983980178833,0.310894638299942,0.41241759061813354,29.457517623901367,-9.703936576843262,40.414669036865234,0
501,5009635,-0.01549903117120266,0.022351721301674843,-0.9943757057189941,-0.0006247987621463835,-1.0497887134552002,-0.4740924537181854,29.565067291259766,-10.618986129760742,41.02958297729492,0
502,5019896,0.012737549841403961,0.03633558377623558,-1.0138473510742188,-0.303411066532135,0.33117055892944336,-0.5584481358528137,29.531543731689453,-10.57732105255127,39.3525276184082,0
503,5030005,0.1034141555428505,-0.07595254480838776,-0.97420334815979,0.06730709224939346,-0.0005206128116697073,0.20233485102653503,30.08221435546875,-10.016868591308594,40.90938186645508,0
504,5040190,-0.02256624773144722,-0.02741086483001709,-0.9876810312271118,0.5206100344657898,-0.4923361837863922,-0.7172948122024536,29.665353775024414,-8.085789680480957,39.58338165283203,0
505,5049703,0.04288511350750923,-0.059329159557819366,-1.0146381855010986,-0.8517842888832092,-0.25008687376976013,0.3498595356941223,30.505704879760742,-10.639036178588867,39.32231903076172,0
506,5059959,0.09483756124973297,0.049422215670347214,-1.0022693872451782,-0.0635858103632927,-0.28138962388038635,0.37748387455940247,29.30766487121582,-10.806425094604492,41.78575897216797,0
507,5070063,-0.021950457245111465,0.0073089636862277985,-1.034070611000061,0.41400888562202454,1.1522547006607056,0.15463119745254517,30.36180305480957,-9.141246795654297,39.73612976074219,0
508,5079976,0.0406138114631176,-0.029598547145724297,-0.9433807730674744,0.8091914057731628,-0.8571260571479797,-0.5579280853271484,30.66822052001953,-9.883910179138184,39.76311111450195,0
509,5090042,0.022731592878699303,-0.07249536365270615,-1.0532851219177246,-0.5414355993270874,-0.5045356750488281,-0.20047321915626526,28.476306915283203,-10.866710662841797,39.326744079589844,0
510,5099879,0.056085556745529175,0.039645157754421234,-0.950977623462677,-0.31841254234313965,-0.6482152342796326,0.396638423204422,28.982595443725586,-10.617622375488281,39.594932556152344,0
511,5110139,0.05837337300181389,-0.0281368400901556,-0.9787108302116394,0.009863208048045635,-0.11908680200576782,0.18382973968982697,31.347440719604492,-9.727056503295898,40.11787033081055,0
512,5120132,0.11453913897275925,0.01351253967732191,-0.9937228560447693,-0.5361894965171814,0.9459168314933777,-0.48296791315078735,31.945941925048828,-8.423996925354004,39.20167541503906,0
513,5130012,-0.12478510290384293,-0.0028164731338620186,-0.9651992917060852,-0.00024310400476679206,0.14248493313789368,0.6141844391822815,30.46737289428711,-11.1614351272583,40.053653717041016,0
514,5140053,0.04403044283390045,0.0090143121778965,-0.9928014278411865,-0.047339677810668945,-0.22165556252002716,-0.631581723690033,30.377626419067383,-8.854327201843262,39.766319274902344,0
515,5150043,0.003676058491691947,-0.01478012278676033,-0.9787932634353638,-0.037116143852472305,0.11184991151094437,0.6000339984893799,32.593109130859375,-11.096687316894531,38.683563232421875,0
516,5159639,-0.027442708611488342,0.014785828068852425,-0.9631693959236145,0.17185688018798828,-0.1292918473482132,0.35481148958206177,29.63964080810547,-10.099942207336426,39.93999099731445,0
517,5170181,0.016231654211878777,0.014769081026315689,-1.0177198648452759,0.3245769143104553,0.038924384862184525,-0.0637684091925621,29.882915496826172,-9.49805736541748,40.27436065673828,0
518,5179968,0.028404489159584045,0.002584792673587799,-0.9991908073425293,0.21558597683906555,-0.7415110468864441,-0.6574824452400208,28.19765281677246,-10.01612663269043,41.1007194519043,0
519,5190000,-0.05178343877196312,0.02349315583705902,-1.007245421409607,0.8608220219612122,-0.15204507112503052,0.15341423451900482,30.282838821411133,-9.599434852600098,40.47111892700195,0
520,5200253,0.02135542966425419,-0.0331057608127594,-0.9951618313789368,0.3890223503112793,0.049936749041080475,-0.12869881093502045,30.19973373413086,-11.536409378051758,40.644710540771484,0
521,5209968,0.08781471103429794,-0.13392463326454163,-0.9968937039375305,0.2282581478357315,-0.21552209556102753,0.5196529030799866,29.22466278076172,-10.540009498596191,41.6874885559082,0
522,5219676,-0.010277916677296162,-0.04349370300769806,-0.9743103981018066,-0.4875956177711487,0.24282394349575043,0.3036048412322998,27.58371353149414,-10.887977600097656,39.67300033569336,0
523,5229958,-0.02295050583779812,-0.04631800949573517,-1.0235159397125244,0.47545135021209717,-0.2204052209854126,-0.23639823496341705,30.074033737182617,-9.339552879333496,40.32240676879883,0
524,5240113,0.0200640931725502,-0.06331817060709,-0.9984018206596375,-0.21563084423542023,-0.6327800750732422,0.03661414608359337,28.408613204956055,-12.554737091064453,40.28789520263672,0
525,5250069,-0.01994733139872551,0.03121993876993656,-0.9978080987930298,0.23490984737873077,-0.6352856159210205,0.4728814363479614,30.579635620117188,-8.91234016418457,40.53215408325195,0
526,5260092,0.027065185829997063,-0.07937370985746384,-0.9964549541473389,0.40016278624534607,-1.1927616596221924,-0.21469028294086456,28.80837631225586,-9.803047180175781,39.324398040771484,0
527,5269949,-0.09080704301595688,0.01288051251322031,-0.9973747134208679,-0.4722568690776825,-0.1264210045337677,0.4334568977355957,29.04227066040039,-10.095536231994629,41.019893646240234,0
528,5279961,0.014600742608308792,-0.02230961062014103,-0.9976599216461182,-0.24835900962352753,-0.7311698198318481,-0.5693747997283936,30.05518913269043,-8.830266952514648,40.08134460449219,0
529,5290226,-0.0951174944639206,-0.033116865903139114,-0.9961724281311035,-0.2527736723423004,-0.13647879660129547,-1.2358973026275635,29.29100799560547,-10.115973472595215,39.76045227050781,0
530,5299949,-0.014986763708293438,-0.09473350644111633,-1.0303573608398438,-0.3441419303417206,0.09101180732250214,-0.6817100048065186,29.845821380615234,-9.206608772277832,41.60496139526367,0
531,5310052,0.024050146341323853,-0.0360880084335804,-1.013318657875061,0.18888972699642181,-0.5404544472694397,0.18291088938713074,29.26184844970703,-10.709346771240234,39.17289733886719,0
532,5319855,0.012944014742970467,0.08924102038145065,-1.0181125402450562,0.6323655843734741,0.02560628391802311,0.26044753193855286,28.492361068725586,-9.673100471496582,37.2100830078125,0
533,5330219,-0.015625886619091034,0.03347740322351456,-1.0132849216461182,0.10447511821985245,0.16869893670082092,0.4854591488838196,30.01677894592285,-8.906023979187012,39.304107666015625,0
534,5339878,0.021157382056117058,-0.023519588634371758,-1.0163580179214478,0.12748073041439056,-0.530104398727417,-1.5528297424316406,30.585430145263672,-9.478070259094238,40.788997650146484,0
535,5349775,-0.062300849705934525,0.01862671785056591,-1.0172358751296997,0.2299736887216568,-0.18371707201004028,-0.4458477199077606,29.88728904724121,-9.305192947387695,41.94392013549805,0
536,5360217,-0.0046125249937176704,0.006771457381546497,-0.9883891940116882,0.4740815758705139,-0.09928151965141296,-0.24211685359477997,29.877286911010742,-10.940237998962402,39.261661529541016,0
537,5369806,0.023240545764565468,0.06805529445409775,-0.9834409356117249,-0.3157813847064972,0.4098467230796814,0.3515743911266327,28.741657257080078,-10.245284080505371,38.283687591552734,0
538,5380020,0.06710591912269592,-0.004428202286362648,-0.9888107180595398,0.30779364705085754,0.2418418824672699,1.2534871101379395,29.754566192626953,-9.928744316101074,40.2763671875,0
539,5390136,-0.008475007489323616,-0.03517549857497215,-0.9880067110061646,-0.4314928948879242,0.11568339914083481,-0.1308162957429886,29.753849029541016,-9.862207412719727,39.464942932128906,0
540,5400136,-0.021291391924023628,0.010486547835171223,-0.9951710104942322,0.20237736403942108,-0.6652320623397827,-0.4169667065143585,30.527225494384766,-9.95918083190918,41.402244567871094,0
541,5410093,0.02354617230594158,0.05671690031886101,-1.0281234979629517,0.06936599314212799,-0.19115763902664185,-0.1011059433221817,29.90058708190918,-11.058012962341309,39.45209884643555,0
542,5419843,0.024919744580984116,-0.06993931531906128,-0.9951341152191162,0.3524918258190155,-0.12120626866817474,-0.4741351008415222,31.178688049316406,-10.506001472473145,39.994789123535156,0
543,5429863,-0.0081624835729599,-0.013999628834426403,-1.0184999704360962,0.27045074105262756,-0.3503117263317108,-0.2872026264667511,28.366621017456055,-8.6826753616333,40.29993438720703,0
544,5440254,-0.028340397402644157,-0.08791601657867432,-0.986459493637085,-0.6775924563407898,0.34633365273475647,0.47643038630485535,30.33310890197754,-9.860527038574219,39.46001052856445,0
545,5450132,-0.09201367199420929,0.008412552997469902,-1.0156067609786987,0.8721987009048462,-0.5964187383651733,0.02326972782611847,29.641590118408203,-12.300078392028809,41.6903076171875,0
546,5460135,-0.04310007020831108,-0.02209668979048729,-0.9959561824798584,0.7535419464111328,0.49148568511009216,0.35445505380630493,30.053388595581055,-9.136984825134277,40.06903076171875,0
547,5469977,-0.027250194922089577,0.08447577804327011,-1.0199449062347412,-0.19302378594875336,-0.41441643238067627,-0.29001331329345703,32.79912185668945,-10.572023391723633,40.087913513183594,0
548,5480294,0.034668970853090286,-0.0009836361277848482,-0.9581527709960938,-0.45965975522994995,-0.6144348978996277,0.3972698748111725,29.272634506225586,-9.484206199645996,39.550479888916016,0
549,5489983,0.03253794461488724,-0.00810927152633667,-0.9960044622421265,-0.4236944317817688,-0.019380155950784683,-1.1399027109146118,29.611034393310547,-10.006465911865234,38.37180709838867,0
550,5500133,0.07813708484172821,-0.025013068690896034,-1.015337586402893,-0.21259348094463348,0.05697351694107056,-0.2594302296638489,30.185054779052734,-11.005379676818848,38.710105895996094,0
551,5510171,0.05156403407454491,-0.011686610989272594,-1.0048609972000122,-0.4490540027618408,-0.512475848197937,0.03549478203058243,29.6534423828125,-10.96322250366211,41.248443603515625,0
552,5519936,0.012367983348667622,0.029918935149908066,-1.0108760595321655,0.12578462064266205,-0.25134846568107605,0.09480445086956024,27.80156707763672,-9.579890251159668,38.68867874145508,0
553,5529854,0.016526510939002037,0.011924571357667446,-0.994720995426178,-0.17798665165901184,0.3332340717315674,-0.4662037491798401,30.420202255249023,-9.507723808288574,40.03916549682617,0
554,5540097,-0.015113762579858303,0.000898592232260853,-0.9704698324203491,0.6938144564628601,-0.014128302223980427,-0.15532882511615753,30.92171859741211,-8.177600860595703,38.816864013671875,0
555,5549992,-0.05742036551237106,0.023490920662879944,-1.0043028593063354,0.11893000453710556,0.40061914920806885,-0.33671835064888,29.35869789123535,-11.790543556213379,39.43524169921875,0
556,5560000,-0.05634457245469093,-0.024045385420322418,-1.0114378929138184,-0.6370134949684143,0.10840428620576859,-0.3880611062049866,31.045196533203125,-11.381386756896973,40.721641540527344,0
557,5569855,0.0673450231552124,0.06795144826173782,-1.0094234943389893,0.08568941056728363,-0.22801440954208374,-0.4160903990268707,30.259334564208984,-9.98583698272705,40.43449401855469,0
558,5580221,0.021041586995124817,-0.11901824176311493,-0.9969948530197144,0.10040134191513062,0.005054187495261431,0.5681692957878113,29.336179733276367,-10.068927764892578,40.887142181396484,0
559,5589959,0.06831441074609756,-0.04753828048706055,-1.0016087293624878,-1.0247106552124023,0.6401399970054626,0.5799078345298767,29.552221298217773,-9.917914390563965,39.003875732421875,0
560,5600133,-0.0034953895956277847,-0.05948266386985779,-1.0284284353256226,-0.519119918346405,-0.5847036242485046,0.054718803614377975,30.398468017578125,-10.099961280822754,39.00661849975586,0
561,5609949,-0.013365152291953564,0.07772400975227356,-1.002274990081787,0.8110043406486511,-0.28663280606269836,-0.04831860959529877,28.450101852416992,-10.142879486083984,40.01118087768555,0
562,5620015,0.035634420812129974,-0.02894797921180725,-0.9893911480903625,-0.03322240337729454,0.1374198943376541,-0.5051770806312561,29.03531837463379,-12.497117042541504,41.577796936035156,0
563,5630133,0.022206738591194153,0.05144968256354332,-0.999382495880127,0.5619681477546692,0.8402005434036255,0.7587751746177673,28.245054244995117,-12.559744834899902,40.97940444946289,0
564,5639946,0.06160065159201622,0.05370486155152321,-0.9993012547492981,0.2793775498867035,0.8982682824134827,-0.12533453106880188,30.345430374145508,-10.573890686035156,39.011016845703125,0
565,5650054,0.07652261853218079,0.03544928506016731,-0.9925249814987183,-0.034071702510118484,-1.1476811170578003,-0.5439807772636414,31.350536346435547,-9.793612480163574,41.78382110595703,0
566,5659846,-0.045449160039424896,-0.03216947242617607,-1.0167968273162842,-0.20979471504688263,0.02713199332356453,-0.853797972202301,31.409822463989258,-8.697420120239258,38.983856201171875,0
567,5669960,0.02038075588643551,0.05684956535696983,-0.990297257900238,-0.3014501929283142,0.547011137008667,-0.22189313173294067,29.961044311523438,-10.381587028503418,39.38477325439453,0
568,5679695,-0.05591559410095215,0.046251218765974045,-1.0287662744522095,-0.7506311535835266,-0.46343716979026794,0.2769613265991211,29.395544052124023,-9.377605438232422,41.154170989990234,0
569,5690007,-0.06229942664504051,0.03872803598642349,-0.989733874797821,0.018763970583677292,0.7639853358268738,-0.31616950035095215,31.07438087463379,-8.455595970153809,41.06925582885742,0
570,5700217,-0.0495464913547039,0.07461006194353104,-1.0177572965621948,0.366079181432724,0.850895345211029,-1.146864414215088,30.434743881225586,-9.056203842163086,41.07971954345703,0
571,5710001,-0.01308878418058157,0.1047092080116272,-1.0212769508361816,-0.0991424024105072,0.056995686143636703,-0.43469807505607605,32.14693832397461,-11.155509948730469,39.3634033203125,0
572,5720007,-0.07947756350040436,-0.06082865595817566,-1.0164999961853027,-0.20830266177654266,0.6187649369239807,0.18893800675868988,29.918289184570312,-10.689441680908203,40.668540954589844,0
573,5730140,-0.06144299358129501,0.08138725161552429,-0.9670945405960083,-0.9156209826469421,-0.34685322642326355,0.04439469054341316,29.923185348510742,-9.9896879196167,38.877166748046875,0
574,5740025,0.024388179183006287,-0.0034354194067418575,-0.9865967631340027,0.6420740485191345,0.28541266918182373,0.12260536849498749,31.183130264282227,-8.17448616027832,43.32099533081055,0
575,5749715,0.03541199490427971,-0.037507038563489914,-0.9958992600440979,0.45757967233657837,-1.2654856443405151,-0.009548231959342957,28.90719223022461,-9.82168197631836,39.90201187133789,0
576,5760314,0.014281230047345161,-0.016837825998663902,-1.0025585889816284,-0.05520758032798767,0.1596849262714386,-0.3443477749824524,31.003173828125,-10.889981269836426,40.32798385620117,0
577,5769912,0.03704851493239403,-0.022105347365140915,-0.9790573120117188,-0.6537391543388367,0.4880996346473694,-0.6710236668586731,29.41957664489746,-9.452754020690918,39.421546936035156,0
578,5780072,-0.013006280176341534,-0.03470417857170105,-1.0254994630813599,0.5235313773155212,0.13320226967334747,0.9727901220321655,32.63774490356445,-8.849477767944336,40.417842864990234,0
579,5790026,0.07742573320865631,-0.01792079024016857,-0.9712998867034912,0.07459857314825058,0.44286227226257324,-0.3155856132507324,29.98797035217285,-8.771942138671875,41.03578567504883,0
580,5800009,0.045731864869594574,0.0667799711227417,-1.0369815826416016,-0.2929379940032959,-0.2690858840942383,0.11719068884849548,30.46670913696289,-9.159219741821289,41.47590255737305,0
581,5810197,0.037056680768728256,-0.038617245852947235,-0.9748170971870422,0.5552089810371399,-0.256478875875473,0.045849449932575226,30.6019229888916,-9.827486991882324,40.13990020751953,0
582,5820000,0.054190635681152344,-0.0481124110519886,-1.004238247871399,0.025700222700834274,-0.09476134181022644,-0.13004527986049652,31.66225242614746,-9.603933334350586,39.556583404541016,0
583,5829950,0.013412464410066605,-0.0006839887937530875,-0.9938036203384399,-0.9171687364578247,-0.3101663887500763,-0.6483107805252075,29.536216735839844,-10.764811515808105,39.45685958862305,0
584,5840091,0.01309729553759098,0.03480542078614235,-1.014769196510315,0.24209873378276825,-0.6481544971466064,-0.07640831917524338,30.350309371948242,-10.561295509338379,37.29715347290039,0
585,5850086,0.06720751523971558,-0.015378140844404697,-1.0094095468521118,-0.5474689602851868,0.270311564207077,1.2436046600341797,29.825773239135742,-9.204998970031738,41.19993209838867,0
586,5859752,-0.0867604911327362,0.025499556213617325,-1.0230250358581543,-0.49388375878334045,0.9900068640708923,-0.30045685172080994,31.56583595275879,-8.827949523925781,39.52973556518555,0
587,5870066,0.04362895339727402,0.02930641733109951,-0.9673819541931152,0.5719159841537476,0.46944451332092285,0.5959005951881409,29.154203414916992,-10.44471263885498,39.469757080078125,0
588,5879901,0.02721281908452511,-0.021769143640995026,-0.9785102605819702,-0.24659952521324158,0.09276928007602692,-0.9782068729400635,28.747220993041992,-10.257519721984863,39.90012741088867,0
589,5889901,-0.008492698892951012,0.06349171698093414,-0.9988418221473694,-0.08882953971624374,0.212094247341156,0.7335992455482483,29.83142852783203,-8.890095710754395,40.37708282470703,0
590,5899952,0.03759682923555374,-0.04576858878135681,-0.9860166311264038,0.43598493933677673,-0.3363545536994934,0.6501260995864868,29.719688415527344,-10.699264526367188,39.97426986694336,0
591,5910195,-0.1074758842587471,-0.0462387390434742,-0.9802736043930054,0.5852034687995911,0.1475103199481964,-0.322101891040802,31.86675262451172,-10.071035385131836,37.88707733154297,0
592,5919922,0.017698250710964203,-0.03546164929866791,-0.9827713370323181,-0.06390862166881561,0.7215421199798584,-0.1852743774652481,31.492469787597656,-10.408395767211914,41.10944366455078,0
593,5930026,0.00047896665637381375,0.0784061998128891,-1.0036418437957764,0.5864323973655701,0.5218290686607361,0.9111814498901367,31.84864616394043,-9.101630210876465,39.61361312866211,0
594,5940084,-0.00116984941996634,0.020937006920576096,-1.0013303756713867,1.129461407661438,-0.18725746870040894,0.38390639424324036,30.41190528869629,-9.896759033203125,41.87971878051758,0
595,5950092,-0.005349803250283003,0.005436121951788664,-0.9990890026092529,0.39844682812690735,-0.17908021807670593,0.008281809277832508,29.150894165039062,-8.506372451782227,40.47938919067383,0
596,5960255,0.023246318101882935,-0.05745748430490494,-0.9651488065719604,0.0063877650536596775,0.4741823077201843,-0.3178400695323944,29.211519241333008,-10.494256019592285,39.180789947509766,0
597,5970029,-0.10105376690626144,-0.008999577723443508,-0.9939576983451843,-0.2720814347267151,-0.4590272903442383,-0.01552672404795885,30.150800704956055,-10.683870315551758,40.05498504638672,0
598,5979936,-0.07130134850740433,0.012502395547926426,-0.9872615337371826,0.023325204849243164,-0.19225919246673584,-0.2761744558811188,30.60306167602539,-10.962972640991211,39.74627685546875,0
599,5990189,-0.05887915939092636,0.028808962553739548,-0.994709849357605,-0.909186601638794,0.152553528547287,-0.32230138778686523,29.0257625579834,-9.256746292114258,40.90336990356445,0
600,6000023,-0.025335120037198067,0.03224999085068703,-0.9873788952827454,0.742272138595581,0.4399842917919159,0.17775720357894897,29.9256591796875,-10.306123733520508,39.245338439941406,0
601,6009868,-0.0005836199852637947,0.03884827718138695,-1.0140225887298584,-0.8318897485733032,0.5007809996604919,0.5722138285636902,29.19831085205078,-9.608471870422363,40.487762451171875,0
602,6020111,0.019963189959526062,-0.0233147069811821,-1.01848304271698,-0.2797996401786804,0.01093884464353323,0.31218329071998596,28.18390464782715,-10.565082550048828,39.364959716796875,0
603,6030117,0.01707686111330986,0.024015013128519058,-1.0176844596862793,0.1628871113061905,0.47489288449287415,0.4400792121887207,31.227705001831055,-10.340682983398438,40.62765121459961,0
604,6040371,0.11952894926071167,0.03357262536883354,-0.9799115061759949,-0.4093587100505829,-0.5047650337219238,-0.07348456978797913,29.530712127685547,-10.377301216125488,40.128108978271484,0
605,6050170,0.0259996447712183,0.009412259794771671,-1.0048024654388428,-0.6789126396179199,-0.575838565826416,-0.11627336591482162,29.401235580444336,-10.998892784118652,41.014373779296875,0
606,6060097,0.026176737621426582,0.03825916722416878,-1.0046707391738892,0.9772666692733765,-0.38467904925346375,-0.43053051829338074,28.989274978637695,-10.043731689453125,41.44778823852539,0
607,6069781,-0.0390595942735672,0.016860125586390495,-1.015904426574707,-0.6849815249443054,1.167421817779541,0.19785454869270325,31.045320510864258,-9.305018424987793,40.429386138916016,0
608,6080029,0.0325438566505909,0.012287049554288387,-1.0091456174850464,-1.203811764717102,-0.18072102963924408,-0.17852462828159332,30.63008689880371,-11.55037784576416,41.211605072021484,0
609,6090374,0.08077897131443024,-0.009190233424305916,-1.009304165840149,0.13057275116443634,0.27888333797454834,0.5474935173988342,30.340160369873047,-10.83110237121582,40.41602325439453,0
610,6100138,-0.019501835107803345,-0.07948670536279678,-1.0306475162506104,-0.5779786109924316,0.211898073554039,0.05582033097743988,30.468517303466797,-8.081622123718262,39.726219177246094,0
611,6110016,-0.045448824763298035,0.07864104956388474,-0.9779852032661438,-0.6901952028274536,0.5304365158081055,-0.08725548535585403,28.131431579589844,-8.697428703308105,39.043514251708984,0
612,6119967,0.009910739958286285,-0.0024443906731903553,-1.008210301399231,0.24925409257411957,0.4649760127067566,0.1016167476773262,28.43832778930664,-11.83620834350586,42.95695877075195,0
613,6130071,0.037139058113098145,-0.04718751832842827,-1.011212944984436,-0.023968908935785294,-0.531674325466156,0.27948716282844543,29.634958267211914,-8.703327178955078,40.327022552490234,0
614,6139732,0.04519515484571457,0.011589144356548786,-1.0008488893508911,-0.11742604523897171,-0.2422228902578354,-0.01800447143614292,29.75591278076172,-10.184059143066406,39.93682098388672,0
615,6149799,0.013118972070515156,-0.07722283154726028,-1.0142160654067993,0.43577203154563904,0.08211588859558105,-0.8801670670509338,31.00269889831543,-9.944014549255371,41.74855041503906,0
616,6160075,-0.02586120180785656,0.05272142216563225,-1.011487364768982,-0.04144815355539322,0.36239519715309143,-1.1245198249816895,29.046812057495117,-10.56790828704834,38.9754524230957,0
617,6170202,-0.08838067948818207,0.019940750673413277,-0.9979317784309387,-0.551274836063385,-0.16344988346099854,-0.09540696442127228,29.85006332397461,-11.471963882446289,39.519466400146484,0
618,6180070,0.044975899159908295,-0.02872990258038044,-1.0253180265426636,-0.02609512396156788,0.24583552777767181,-0.5165043473243713,30.582975387573242,-9.297504425048828,38.82301712036133,0
619,6190131,-0.0012206985848024487,-0.005244669504463673,-0.9873688220977783,-0.996929943561554,-0.6401103734970093,0.0002058153913822025,29.992979049682617,-10.396559715270996,41.998573303222656,0
620,6200209,-0.04971024766564369,0.11621464043855667,-1.0124791860580444,0.2149985134601593,0.515471339225769,-0.31667640805244446,29.568099975585938,-10.226529121398926,38.65681838989258,0
621,6209986,0.04329243674874306,0.009611438028514385,-1.0085198879241943,-0.706757664680481,-0.35792115330696106,1.4839750528335571,29.41325569152832,-12.202225685119629,40.2735595703125,0
622,6220322,0.04857518523931503,-0.006935486104339361,-0.9855998754501343,0.4775792062282562,-1.0305980443954468,0.22230826318264008,30.777795791625977,-9.561666488647461,40.62478256225586,0
623,6230265,-0.01903790794312954,0.04671081155538559,-1.0060110092163086,0.22379489243030548,0.08416756987571716,-0.24399147927761078,29.696664810180664,-10.464839935302734,39.60649871826172,0
624,6239947,0.06746061146259308,0.018625259399414062,-0.9695969820022583,0.31078001856803894,0.37199845910072327,-0.16520997881889343,30.23101806640625,-10.771547317504883,39.029296875,0
625,6250167,-0.05650843307375908,0.009317325428128242,-0.9748054146766663,-0.1414462774991989,0.9404915571212769,-1.0121502876281738,31.450002670288086,-9.449458122253418,40.2509651184082,0
626,6259698,0.0134138073772192,-0.06640638411045074,-1.0304462909698486,0.15285472571849823,0.322209894657135,0.519733726978302,30.696443557739258,-8.866098403930664,38.07235336303711,0
