seq,time_us,ax,ay,az,gx,gy,gz,mx,my,mz,drop_flag
0,0,0.03071228601038456,0.08797845244407654,-0.9800472855567932,-0.20304781198501587,0.17105573415756226,-0.0591692253947258,28.868932723999023,-9.736346244812012,38.45170211791992,0
1,9965,0.029743125662207603,0.0030140357557684183,-0.9704248905181885,1.3576204776763916,-0.40258437395095825,0.16175928711891174,29.212129592895508,-10.856705665588379,40.167076110839844,0
2,19868,0.01635669358074665,-0.03516410291194916,-0.9909355640411377,-0.5857993960380554,0.03225267678499222,-0.5213670134544373,30.222339630126953,-10.544272422790527,39.3412971496582,0
3,30040,-0.017640680074691772,-0.027687281370162964,-0.9936719536781311,-0.22761960327625275,-1.3287372589111328,-0.6741828322410583,31.184310913085938,-9.606148719787598,40.52785110473633,0
4,39893,-0.011796643026173115,-0.04191059246659279,-1.0047862529754639,0.07646719366312027,0.03178653120994568,0.24792636930942535,27.59420394897461,-10.274330139160156,39.15026092529297,0
5,49854,-0.11497616767883301,0.00533657893538475,-0.988262414932251,-0.6864806413650513,-0.011674590408802032,-0.48015913367271423,30.086915969848633,-9.194814682006836,39.72325134277344,0
6,59956,-0.010314187966287136,0.029564591124653816,-1.008302092552185,-0.3124425709247589,-0.22498740255832672,0.0661386102437973,28.795215606689453,-8.577948570251465,39.38720703125,0
7,70065,-0.06863272935152054,0.059544887393713,-1.000564455986023,-0.5632639527320862,-0.0255344919860363,-0.38680046796798706,29.489501953125,-9.9823637008667,40.78041458129883,0
8,80109,0.06498546153306961,-0.058546289801597595,-0.9898636341094971,-0.19160908460617065,0.042787615209817886,-0.3141407072544098,29.083486557006836,-9.792862892150879,40.707862854003906,0
9,89943,-0.09178788959980011,-0.05863381549715996,-1.004420518875122,0.0895686075091362,0.32361742854118347,0.05566182732582092,30.385868072509766,-9.395313262939453,40.24861526489258,0
10,100162,-0.021287448704242706,0.0846557691693306,-1.0144296884536743,-0.47784915566444397,-0.03635676950216293,0.006052079144865274,30.760499954223633,-11.445347785949707,38.60471725463867,0
11,110193,-0.08367705345153809,-0.09048955142498016,-0.9827815890312195,0.15290293097496033,-0.31876909732818604,0.5309677720069885,30.206802368164062,-10.889334678649902,38.05463790893555,0
12,119604,-0.004442427773028612,-0.04429079592227936,-0.9969566464424133,-0.2609116733074188,0.6244731545448303,-0.7408022880554199,28.64923095703125,-10.66755485534668,39.19905471801758,0
13,130160,-0.05695679038763046,0.055409640073776245,-1.0069931745529175,-0.9009113311767578,-0.40242791175842285,0.011203194037079811,28.311077117919922,-10.283646583557129,40.66548156738281,0
14,140305,-0.022530362010002136,0.054787952452898026,-1.0126612186431885,-0.342130184173584,0.3494764268398285,-0.5818899273872375,31.987096786499023,-9.116445541381836,40.431793212890625,0
15,149919,0.06157444044947624,-0.04896846413612366,-0.9895179867744446,0.15263035893440247,0.23618660867214203,0.3378063142299652,29.003154754638672,-9.340656280517578,40.77360534667969,0
16,159974,-0.0077325874008238316,0.042330220341682434,-1.021254062652588,-0.6149682998657227,-0.16482436656951904,-0.415811151266098,29.818992614746094,-9.460156440734863,39.407997131347656,0
17,169738,0.05268405005335808,-0.0939488634467125,-1.016017198562622,0.6073014140129089,-0.22866664826869965,-0.68892502784729,29.769933700561523,-9.981938362121582,40.93791961669922,0
18,179912,0.04852323234081268,-0.05862383544445038,-0.9998116493225098,1.0300780534744263,-0.37893345952033997,0.49929723143577576,29.695404052734375,-9.837139129638672,39.8958854675293,0
19,189816,-0.09056694060564041,0.029548168182373047,-0.9998138546943665,0.1545274555683136,-0.38289138674736023,0.20175844430923462,30.542917251586914,-8.626543045043945,41.56175231933594,0
20,200098,-0.054767269641160965,-0.03010888770222664,-1.0094667673110962,1.2881022691726685,0.5470800399780273,1.3018437623977661,30.06852912902832,-9.248173713684082,38.997772216796875,0
21,209973,-0.04973803460597992,0.06716597080230713,-0.9741767048835754,-0.23041191697120667,-0.035116344690322876,-0.3170038163661957,29.171472549438477,-10.419297218322754,40.403404235839844,0
22,219941,0.034253235906362534,-0.03850520774722099,-0.9813627004623413,-0.7612820267677307,-0.4052523076534271,0.2280416637659073,29.679059982299805,-9.659252166748047,40.3533935546875,0
23,230261,-0.030157461762428284,0.11730950325727463,-1.0069780349731445,0.6348692774772644,-0.7330536842346191,-0.15023280680179596,31.261844635009766,-10.064606666564941,40.45228576660156,0
24,240200,-0.06136705353856087,0.046591732650995255,-0.9989476799964905,0.9500762820243835,0.0717891976237297,-0.8321423530578613,29.67422866821289,-10.376201629638672,39.22947692871094,0
25,250010,-0.13290104269981384,0.006042761728167534,-1.0164248943328857,0.2787868082523346,-0.6437774300575256,-0.1340368688106537,29.479793548583984,-10.301685333251953,39.362144470214844,0
26,259943,0.013373564928770065,0.006231633946299553,-1.0057655572891235,0.15611790120601654,0.3172571063041687,0.6345778107643127,30.501792907714844,-9.863041877746582,39.59439468383789,0
27,269962,0.006869778037071228,-0.05694379657506943,-0.9951638579368591,-0.7439969182014465,-0.8068205118179321,0.8220083117485046,31.277597427368164,-10.616509437561035,40.24169921875,0
28,279859,0.0013587108114734292,-0.016566643491387367,-0.9903796911239624,1.614449143409729,-0.2354910969734192,-0.41967520117759705,30.44441032409668,-9.372590065002441,38.402557373046875,0
29,289775,0.06490524858236313,0.00030942793819122016,-0.9665497541427612,0.23437659442424774,-0.3378947079181671,0.13198617100715637,29.123634338378906,-10.200517654418945,40.15505599975586,0
30,300160,0.09825702756643295,0.0034005942288786173,-0.9994985461235046,-0.4808901250362396,-0.6943604350090027,0.14320650696754456,30.027610778808594,-8.66836929321289,39.025203704833984,0
31,309913,-0.07377448678016663,-0.004666919820010662,-0.9595922231674194,0.3507097065448761,-0.19748800992965698,-0.3459545075893402,29.20309066772461,-11.680756568908691,41.90911865234375,0
32,320002,0.04353031888604164,0.003783876309171319,-1.0026859045028687,0.04740830883383751,0.4874633252620697,-0.002011489123106003,31.080625534057617,-8.350778579711914,39.25070571899414,0
33,330065,-0.03364095836877823,0.059593312442302704,-0.9651896953582764,-0.37458330392837524,0.13149291276931763,1.1246010065078735,29.789705276489258,-11.267548561096191,41.91033935546875,0
34,340229,-0.08862196654081345,-0.0286251287907362,-0.9693763852119446,0.375438928604126,0.013530021533370018,0.49953362345695496,28.995779037475586,-11.277972221374512,39.001731872558594,0
35,349924,0.09913334995508194,-0.019162312150001526,-0.9961534738540649,-0.22552761435508728,-0.6987467408180237,-0.07336311787366867,30.909656524658203,-8.62452220916748,41.131492614746094,0
36,360308,-0.06222889572381973,-0.047435108572244644,-0.9676284193992615,-0.4191022515296936,0.2820460796356201,0.4665546119213104,30.764848709106445,-8.851277351379395,38.69157409667969,0
37,370244,0.021996524184942245,-0.018684623762965202,-0.9752013087272644,-0.49235984683036804,0.2781559228897095,-0.3225720226764679,29.477420806884766,-8.983914375305176,40.39308166503906,0
38,379876,0.07930918037891388,-0.08756642043590546,-1.0082212686538696,0.7785669565200806,0.3673520088195801,-0.3852118253707886,31.189830780029297,-10.734936714172363,41.269290924072266,0
39,390073,0.053011730313301086,-0.015088086016476154,-0.9618121385574341,0.6198424100875854,1.0370805263519287,-0.08446237444877625,31.617034912109375,-10.866711616516113,40.61207580566406,0
40,400122,-0.035052426159381866,0.0007040454656817019,-0.9802756905555725,-0.7039316296577454,-0.24623553454875946,0.45118093490600586,29.58980369567871,-10.730989456176758,41.57041931152344,0
41,409998,0.020893186330795288,-0.025655701756477356,-0.9875603914260864,0.49854087829589844,0.21486976742744446,0.06675364822149277,29.834566116333008,-11.463562965393066,40.09434127807617,0
42,420024,-0.13762569427490234,0.0102738868445158,-1.0165354013442993,-0.44177162647247314,-0.21455971896648407,-0.10638687014579773,29.15852165222168,-9.445039749145508,40.04561996459961,0
43,429968,-0.019845101982355118,0.02956845611333847,-1.0178419351577759,0.44023653864860535,-0.16715489327907562,0.156147763133049,30.12205696105957,-12.026679039001465,39.72434616088867,0
44,440186,0.020513052120804787,0.05448644608259201,-0.9902533888816833,-0.1795656979084015,0.5153670907020569,-0.3903069794178009,29.372819900512695,-9.70142650604248,39.336219787597656,0
45,450086,0.03333263844251633,-0.06171027570962906,-0.9674034118652344,0.047852758318185806,-0.27076059579849243,0.8348785042762756,30.84275245666504,-8.475089073181152,39.10337448120117,0
46,459990,-0.0626157596707344,-0.07111969590187073,-1.0119473934173584,0.32522398233413696,-0.20636698603630066,-1.2349741458892822,29.921585083007812,-9.005728721618652,40.047786712646484,0
47,470033,0.0001954440667759627,0.044753286987543106,-1.0267950296401978,0.21093694865703583,-1.3509074449539185,0.27199700474739075,29.435909271240234,-8.623014450073242,38.741310119628906,0
48,479984,0.09428448975086212,0.05997426435351372,-1.0039347410202026,0.8876079320907593,0.19655956327915192,0.09503418952226639,30.481403350830078,-11.070052146911621,42.074100494384766,0
49,489965,-0.04359296336770058,-0.01444826740771532,-0.9343794584274292,-0.439306378364563,0.31639671325683594,0.5033219456672668,29.446945190429688,-8.44662857055664,36.90652847290039,0
50,500038,-0.017834672704339027,-0.012749755755066872,-1.0106391906738281,0.4286101162433624,0.2686253786087036,0.9002265930175781,29.98870277404785,-10.07641887664795,40.28453826904297,0
51,510064,0.025721775367856026,-0.06749662011861801,-1.0365928411483765,0.07257521897554398,-0.10936864465475082,-0.15043674409389496,31.42995834350586,-8.800507545471191,40.21698760986328,0
52,519926,0.012819087132811546,0.084169901907444,-1.0140702724456787,0.33752742409706116,0.5534082651138306,0.09318739175796509,29.11459732055664,-11.306741714477539,40.549407958984375,0
53,530226,0.0029442613013088703,0.05067002773284912,-0.9877148866653442,0.7986884117126465,0.24041889607906342,0.7532698512077332,31.149351119995117,-9.60623836517334,39.76658630371094,0
54,539939,0.027642615139484406,0.013847466558218002,-0.9825500845909119,-0.21552400290966034,-1.060426950454712,-0.16535599529743195,30.26249885559082,-10.852381706237793,40.880775451660156,0
55,550002,-0.04927494376897812,0.009564031846821308,-0.9935234785079956,0.41679084300994873,0.2748655378818512,-0.33963993191719055,30.25751495361328,-9.239681243896484,39.39057922363281,0
56,560237,-0.03727053478360176,0.01262925285845995,-1.0292168855667114,0.5603069067001343,-0.26003018021583557,-0.335645854473114,30.335664749145508,-9.841519355773926,38.64905548095703,0
57,569980,-0.02755061164498329,0.07181884348392487,-1.0166511535644531,-0.7367216944694519,0.27884677052497864,-0.45474961400032043,29.662681579589844,-11.135405540466309,40.4676628112793,0
58,579987,0.107237309217453,-0.005767634604126215,-0.9826017022132874,0.4081985354423523,-0.2613174021244049,-1.1071064472198486,30.883373260498047,-9.518027305603027,41.03827667236328,0
59,589916,-0.004476124886423349,0.05153369903564453,-1.0206512212753296,0.4106862545013428,0.659570038318634,0.029225697740912437,30.640995025634766,-8.137431144714355,39.04119110107422,0
60,599877,-0.09787958860397339,0.05591632053256035,-1.0071194171905518,-0.5495765209197998,0.3135720491409302,0.2277575582265854,31.18096160888672,-8.572358131408691,38.80397415161133,0
61,610207,-0.022994525730609894,-0.05275030434131622,-0.9650635719299316,-0.22399450838565826,0.7503102421760559,-0.09938227385282516,29.78031349182129,-8.689868927001953,40.061614990234375,0
62,619994,0.06336454302072525,0.017909999936819077,-1.007169485092163,-0.19067099690437317,-0.2486170530319214,-0.0777697041630745,28.891101837158203,-9.56021785736084,41.46630859375,0
63,630058,0.020530732348561287,0.06473057717084885,-0.9867767095565796,0.5008132457733154,0.18936264514923096,0.772875964641571,31.564556121826172,-9.048027992248535,39.530765533447266,0
64,639981,0.0458461232483387,0.022514216601848602,-0.999715268611908,-0.6273366808891296,-1.0214048624038696,0.7489750385284424,30.572790145874023,-10.335192680358887,40.24968719482422,0
65,650024,0.01989656873047352,0.05420695245265961,-0.9887921810150146,-0.2924778461456299,0.3917367458343506,0.457733690738678,30.98462677001953,-9.576677322387695,38.37557601928711,0
66,660222,-0.028973300009965897,0.0073252590373158455,-0.9920789003372192,0.9966496825218201,-0.49384984374046326,0.23575183749198914,29.576337814331055,-9.510506629943848,39.019657135009766,0
67,670269,-0.025320962071418762,0.019105225801467896,-0.991657018661499,0.5998899340629578,-0.035409603267908096,-0.14975498616695404,27.5647029876709,-10.72069263458252,39.94725799560547,0
68,680177,0.06670421361923218,-0.01964690536260605,-1.004655361175537,-0.17080533504486084,0.3225662410259247,-0.1436169296503067,28.498689651489258,-10.722515106201172,39.25585174560547,0
69,689865,-0.025878626853227615,0.016529224812984467,-0.9865656495094299,-0.09167222678661346,-0.08413834869861603,0.48699769377708435,30.17045783996582,-10.491192817687988,40.97795104980469,0
70,699903,-0.0359971709549427,0.043726060539484024,-0.9950418472290039,-0.2488243281841278,-0.46226051449775696,0.5193776488304138,30.45954704284668,-9.577244758605957,40.491695404052734,0
71,710083,0.0387105718255043,-0.032795242965221405,-1.0251226425170898,0.3281707167625427,0.7860919237136841,0.31985360383987427,28.85826873779297,-9.568989753723145,40.76906204223633,0
72,720001,0.0015021044528111815,0.07150816917419434,-0.9872204661369324,0.7334253191947937,-0.07560095936059952,0.8504382967948914,30.64957618713379,-9.257431983947754,40.241451263427734,0
73,729726,-0.0197975542396307,-0.012762203812599182,-1.0328588485717773,-0.9278802275657654,-0.8081799149513245,-0.2429564744234085,29.65801429748535,-8.560012817382812,39.616146087646484,0
74,740022,0.07961291074752808,0.03915763646364212,-0.9997464418411255,-0.12021449208259583,0.1957923024892807,-1.1126794815063477,29.34603500366211,-10.092005729675293,41.18336486816406,0
75,749986,-0.04625638574361801,-0.029699617996811867,-1.0173099040985107,-0.17330481112003326,-0.6001232266426086,-0.45172053575515747,29.788166046142578,-9.940722465515137,40.245460510253906,0
76,760102,0.019583500921726227,-0.04594338685274124,-0.9847418069839478,0.7339186072349548,-0.6017737984657288,0.5159947872161865,28.748117446899414,-9.16104793548584,40.7202033996582,0
77,769985,0.01949378103017807,-0.0258365198969841,-0.9878200888633728,-0.04492576792836189,-0.593034029006958,-0.152594193816185,28.395435333251953,-10.561687469482422,38.28767013549805,0
78,779931,-0.037324532866477966,-0.07145216315984726,-0.9950021505355835,-0.6346147060394287,0.19155384600162506,-0.811316728591919,32.739009857177734,-10.667096138000488,40.253360748291016,0
79,790061,0.01419938262552023,0.008177374489605427,-1.0083034038543701,-0.0839112401008606,-0.44511231780052185,0.7242735028266907,30.021228790283203,-10.676514625549316,40.054779052734375,0
80,800147,0.05303729698061943,0.07048209756612778,-1.0064449310302734,-0.468029648065567,0.04496251419186592,0.7732479572296143,30.312679290771484,-11.219948768615723,39.75484085083008,0
81,809876,-0.029481831938028336,0.010776301845908165,-0.9909584522247314,-0.6663386225700378,0.5232487916946411,-0.24209865927696228,30.282833099365234,-10.996177673339844,39.07845687866211,0
82,820049,-0.007065367419272661,-0.0017839353531599045,-0.9619517922401428,-0.5949082970619202,0.1707741767168045,-0.6594014167785645,31.612892150878906,-9.570663452148438,39.57703399658203,0
83,830041,-0.03115805983543396,-0.07767053693532944,-1.0204474925994873,-0.016856564208865166,-0.06541796028614044,-0.32818174362182617,30.18292236328125,-9.321239471435547,39.98446273803711,0
84,840073,0.02376442961394787,-0.08881309628486633,-0.9911901354789734,0.9094875454902649,0.1076713278889656,-0.17162753641605377,29.31917953491211,-10.08149242401123,40.818206787109375,0
85,849549,0.024051953107118607,-0.05879969149827957,-1.0321159362792969,-0.440962016582489,-0.07588060945272446,0.38930442929267883,28.86844253540039,-10.344379425048828,39.63956069946289,0
86,859862,-0.0628054141998291,-0.0489356629550457,-0.9774107336997986,0.034010712057352066,1.2205564975738525,0.6383979916572571,28.880769729614258,-9.74021053314209,38.51466369628906,0
87,870266,-0.04968323931097984,0.010886592790484428,-1.0189563035964966,0.23508583009243011,0.709326446056366,0.2652723789215088,30.60122299194336,-8.868524551391602,39.946346282958984,0
88,880087,-0.07562000304460526,-0.06774000823497772,-0.9926726818084717,-0.7917221188545227,-0.7422111630439758,0.8694198131561279,29.817834854125977,-9.488430976867676,40.464332580566406,0
89,890136,0.01582171954214573,-0.04258988797664642,-0.9991409778594971,-0.7458779215812683,-0.18915186822414398,-0.02795824594795704,29.34816551208496,-8.097091674804688,38.49409866333008,0
90,899973,0.0985533818602562,0.001930250320583582,-0.9898929595947266,-0.15978175401687622,-0.04092703387141228,0.4265393614768982,29.216882705688477,-8.619946479797363,39.34114074707031,0
91,910060,0.006064852699637413,0.038983434438705444,-1.0598645210266113,-0.260707288980484,-0.3523372709751129,-0.26099956035614014,31.09865951538086,-9.218912124633789,41.072879791259766,0
92,920193,-0.005218617618083954,0.0210088100284338,-0.9839549660682678,-0.37731364369392395,0.1590457409620285,0.23990242183208466,30.503286361694336,-7.439370155334473,40.71833419799805,0
93,929860,0.014840328134596348,0.06408091634511948,-0.9586716294288635,-0.08297953009605408,-0.23158083856105804,-0.07421062886714935,29.354143142700195,-9.588601112365723,39.96525573730469,0
94,939989,-0.05418840050697327,0.04854532703757286,-0.998569130897522,0.5274450778961182,-0.5278215408325195,1.416276216506958,29.884010314941406,-10.416942596435547,39.80715560913086,0
95,949780,-0.043834250420331955,0.002137238858267665,-1.0033389329910278,-0.09117687493562698,0.6964216232299805,0.030391424894332886,30.216934204101562,-9.531089782714844,39.98348617553711,0
96,960243,-0.008466146886348724,0.04968119040131569,-1.0275334119796753,0.09630396962165833,0.07694852352142334,-0.20022889971733093,30.686426162719727,-11.163837432861328,41.40007400512695,0
97,969706,-0.09875985980033875,0.030267545953392982,-0.9688117504119873,-0.9579465985298157,0.45182472467422485,-0.14632096886634827,30.754039764404297,-9.803275108337402,39.076045989990234,0
98,980481,0.056179895997047424,-0.024957936257123947,-1.0299170017242432,0.27386054396629333,-0.2809677720069885,-0.12402612715959549,30.146156311035156,-9.411699295043945,37.81787872314453,0
99,989901,0.004133583977818489,-0.051566921174526215,-0.970422625541687,0.36812734603881836,0.5611521005630493,-0.07112263888120651,30.010393142700195,-9.891670227050781,42.04140090942383,0
100,999734,-0.045944564044475555,0.0213632695376873,-1.0361559391021729,0.07177748531103134,0.025962969288229942,-0.014309392310678959,30.50301170349121,-11.458274841308594,39.69526672363281,0
101,1009913,-0.05665438622236252,-0.07783646881580353,-1.0146549940109253,-0.23028716444969177,0.35342487692832947,-0.19947588443756104,32.045989990234375,-10.042778968811035,40.19359588623047,0
102,1020072,-0.09370890259742737,-0.08262676745653152,-1.0263214111328125,0.44822457432746887,-1.1549195051193237,-0.5330454707145691,28.897253036499023,-10.175691604614258,38.953285217285156,0
103,1030205,0.024799803271889687,0.04076626896858215,-1.0131844282150269,-0.9093739986419678,-0.5169059634208679,-2.337397563678678e-05,29.94648551940918,-10.426647186279297,39.42634963989258,0
104,1039972,0.005939194466918707,-0.02974012680351734,-1.0270302295684814,0.31816816329956055,0.5766108632087708,-0.4788192808628082,29.503223419189453,-10.478415489196777,40.747596740722656,0
105,1050109,-0.038671668618917465,0.025062430649995804,-0.995430588722229,0.16498035192489624,0.09506276994943619,1.0468477010726929,29.55309295654297,-8.518795013427734,39.3098030090332,0
106,1059768,0.02380741573870182,0.09805800020694733,-0.999950647354126,0.1543373018503189,0.9049068689346313,-0.3107813894748688,28.43709945678711,-11.029553413391113,39.080135345458984,0
107,1070032,-0.05450146272778511,-0.03791351243853569,-0.9919067621231079,0.34583109617233276,0.015626054257154465,-0.3228127062320709,29.371231079101562,-10.134482383728027,40.06560516357422,0
108,1079926,-0.0010568046709522605,0.004880097694694996,-1.0282294750213623,0.20569492876529694,0.41370847821235657,-1.1426191329956055,30.801645278930664,-10.152935028076172,41.20045471191406,0
109,1090012,-0.036429524421691895,0.016285395249724388,-0.9869382977485657,0.3472355008125305,0.1971593201160431,1.107692003250122,31.776378631591797,-10.825433731079102,41.47079849243164,0
110,1099690,-0.06321767717599869,-0.06917229294776917,-1.0091350078582764,-0.2557743787765503,0.20462921261787415,-0.002073561307042837,29.60463523864746,-11.22817611694336,40.144351959228516,0
111,1109966,-0.04945268854498863,0.01920204982161522,-1.0125272274017334,-0.03544347360730171,-0.6664892435073853,-0.3010852038860321,30.726282119750977,-9.118254661560059,40.13356399536133,0
112,1119998,0.030250323936343193,-0.01187113393098116,-0.982692301273346,-0.5379006862640381,0.8993183970451355,-0.591873288154602,29.191024780273438,-10.437479019165039,39.6252555847168,0
113,1129895,-0.004903895780444145,-0.04700528085231781,-1.037988305091858,-0.05308738350868225,-0.44305405020713806,0.3405749797821045,29.38047981262207,-9.16264820098877,38.19445037841797,0
114,1140047,0.04960164427757263,0.012646004557609558,-0.9901235699653625,0.7741155624389648,-0.7994890809059143,-0.7821764945983887,27.66895294189453,-9.958359718322754,38.68023681640625,0
115,1149909,0.018670162186026573,-0.01861821673810482,-0.9787179231643677,1.129844307899475,0.045650970190763474,0.6592024564743042,30.795534133911133,-10.100543975830078,40.95234298706055,0
116,1159701,0.03882531821727753,0.008600117638707161,-0.9713230729103088,-0.19058141112327576,0.13663552701473236,-0.18259404599666595,31.015268325805664,-10.63205337524414,40.13080978393555,0
117,1170207,-0.04562118649482727,0.06508316844701767,-1.0138694047927856,0.6393415331840515,0.4294678568840027,0.9793710112571716,30.02202033996582,-9.640680313110352,40.33717727661133,0
118,1180102,0.01202942430973053,-0.021215664222836494,-1.0155447721481323,-0.40734267234802246,0.19612008333206177,0.21730025112628937,29.18096351623535,-8.86108684539795,40.90906524658203,0
119,1190018,0.03965550288558006,-0.06654059886932373,-0.9856324195861816,-0.35272058844566345,0.8069995641708374,-0.4147363305091858,30.554542541503906,-11.583394050598145,40.60238265991211,0
120,1199683,0.03847946599125862,-0.04351727291941643,-1.035962462425232,-0.10665498673915863,0.3807096481323242,0.13956215977668762,28.721721649169922,-10.719465255737305,39.484130859375,0
121,1210236,0.02604740671813488,-0.01851985789835453,-0.9951047301292419,0.7370768189430237,-0.2739730775356293,-0.33784055709838867,29.666156768798828,-8.486340522766113,38.132835388183594,0
122,1219948,-0.037367258220911026,-0.013183388859033585,-1.0474480390548706,-0.14995907247066498,-0.6621514558792114,-0.9106305241584778,29.81340789794922,-11.3411226272583,37.936988830566406,0
123,1230029,-0.014542545191943645,-0.04407484456896782,-0.9965130686759949,-0.2587330639362335,-0.3800997734069824,-0.5910118818283081,29.116403579711914,-9.798362731933594,41.30532455444336,0
124,1239713,-0.03997993469238281,-0.03624257072806358,-1.0209262371063232,0.20057199895381927,-0.7895892262458801,0.456100732088089,29.687870025634766,-9.448626518249512,41.41282653808594,0
125,1250230,-0.02459840103983879,-0.02299516089260578,-0.9970290064811707,-0.646619975566864,0.19858548045158386,-0.18225017189979553,28.657825469970703,-10.636479377746582,40.659629821777344,0
126,1260199,-0.08361277729272842,-0.004971378482878208,-1.0066866874694824,-0.738195538520813,0.6780705451965332,0.32622337341308594,29.75296401977539,-9.430601119995117,40.127769470214844,0
127,1269883,0.006904272828251123,-0.01597123220562935,-1.0146758556365967,0.0372752882540226,0.9410554766654968,0.04764418676495552,29.176631927490234,-10.960712432861328,40.17901611328125,0
128,1280283,0.04231369122862816,0.08143673092126846,-0.9530439376831055,-0.29158398509025574,-0.6572074890136719,-1.0163860321044922,28.716161727905273,-11.432703018188477,41.554779052734375,0
129,1290179,-0.007168988231569529,0.03966798633337021,-1.0038807392120361,0.40348854660987854,-0.20636428892612457,0.33279910683631897,28.59492301940918,-9.268881797790527,39.433719635009766,0
130,1300210,-0.057377636432647705,-0.06062730401754379,-0.9917951822280884,0.19309896230697632,-0.24864070117473602,-0.9264699816703796,30.06156349182129,-9.629070281982422,39.59841537475586,0
131,1310137,-0.08676998317241669,-0.06363488733768463,-1.000274658203125,0.08261793851852417,-0.650646448135376,0.20396941900253296,29.768962860107422,-10.310935974121094,39.96038818359375,0
132,1320009,0.0758652538061142,0.09763729572296143,-1.0036852359771729,0.2522370219230652,0.014089876785874367,0.493088960647583,31.764678955078125,-9.86882495880127,41.1871223449707,0
133,1330331,-0.013935999013483524,0.00179580959957093,-0.9682713747024536,0.6306617856025696,0.5449134111404419,0.39607900381088257,31.159881591796875,-9.711991310119629,38.66619110107422,0
134,1340036,0.01191197894513607,0.04208804666996002,-1.0169051885604858,0.4192620813846588,-0.19122952222824097,0.14706386625766754,29.795570373535156,-9.146780014038086,40.38006591796875,0
135,1349932,-0.02682388387620449,-0.017795391380786896,-1.0122681856155396,-0.7099551558494568,-0.013704245910048485,-0.9959256649017334,27.873918533325195,-9.910118103027344,39.01397705078125,0
136,1360104,-0.054519783705472946,-0.01834671013057232,-1.0092943906784058,-0.1996622383594513,-0.3050277829170227,-0.7541283965110779,30.65024185180664,-9.245773315429688,38.51552200317383,0
137,1369920,-0.010165856219828129,0.018732262775301933,-1.0065762996673584,-0.829446017742157,-0.42028751969337463,-0.41066309809684753,30.02220916748047,-9.803644180297852,41.93435287475586,0
138,1380012,-0.024119680747389793,-0.0949915423989296,-0.9975661635398865,0.34502115845680237,-0.44899702072143555,0.9406582117080688,29.5815372467041,-9.768810272216797,39.70167541503906,0
139,1390174,-0.006746121682226658,-0.053345728665590286,-0.9988045692443848,-0.33380356431007385,0.6167569756507874,-0.40811264514923096,29.81947135925293,-9.357234954833984,40.09030532836914,0
140,1399973,-0.12615364789962769,0.015798570588231087,-0.9723014235496521,-0.5105922222137451,-0.11217579990625381,-0.19694861769676208,29.46407699584961,-10.59242057800293,40.15879440307617,0
141,1410054,-0.0461171455681324,-0.02599360980093479,-0.9888767600059509,-0.6178333163261414,0.6490187644958496,1.3404055833816528,28.154857635498047,-11.067824363708496,38.25558090209961,0
142,1420129,-0.10487202554941177,0.021912146359682083,-1.0331284999847412,0.07147102057933807,0.5969608426094055,-0.27004483342170715,30.3166446685791,-9.195028305053711,39.383880615234375,0
143,1430140,-0.04583729803562164,-0.09566538780927658,-1.0005378723144531,0.37203845381736755,-0.529050350189209,0.6089208126068115,29.964378356933594,-9.646749496459961,41.269554138183594,0
144,1440271,0.0023439221549779177,0.017255140468478203,-0.9625063538551331,0.21943959593772888,-0.4114227592945099,-0.4061983525753021,31.540422439575195,-10.364724159240723,39.284027099609375,0
145,1450229,0.09859369695186615,0.047936294227838516,-0.9885748028755188,-0.9215095639228821,0.8749520182609558,-0.17351140081882477,29.888883590698242,-10.930294036865234,38.54301071166992,0
146,1460266,-0.011471702717244625,-0.009696083143353462,-0.9947928190231323,0.39469677209854126,-0.004542825743556023,0.09386095404624939,29.434345245361328,-11.166964530944824,41.28903579711914,0
147,1469862,0.08355806767940521,-0.014303240925073624,-1.0110751390457153,0.05236845463514328,0.1949731558561325,-0.1310148984193802,30.511367797851562,-9.993210792541504,39.67623519897461,0
148,1479903,-0.046728093177080154,0.029623769223690033,-1.0063568353652954,-0.2110436111688614,0.25113993883132935,0.12569157779216766,30.498899459838867,-7.520608901977539,41.24827575683594,0
149,1489873,-0.07051121443510056,-0.05394962430000305,-1.0013974905014038,0.006121098063886166,-0.13886351883411407,-0.44701334834098816,30.70720100402832,-9.823970794677734,41.02862548828125,0
150,1499807,-0.1014527902007103,0.0670619085431099,-0.9965687990188599,0.5156188607215881,0.5260825157165527,-0.5087093114852905,31.257675170898438,-8.35293197631836,38.03477478027344,0
151,1510134,0.04873495176434517,-0.061109405010938644,-1.0001862049102783,-1.4187378883361816,-0.19760486483573914,1.0201640129089355,30.273948669433594,-8.197700500488281,39.39817428588867,0
152,1520387,-0.09163042902946472,0.00047536875354126096,-0.9846042990684509,-0.2920915186405182,0.5153658390045166,0.3444018065929413,28.537132263183594,-10.147992134094238,41.278560638427734,0
153,1530007,0.012922219932079315,0.11600427329540253,-0.9756707549095154,-0.15663886070251465,0.48293957114219666,-0.3294648826122284,28.771930694580078,-9.328413963317871,41.65895080566406,0
154,1539922,-0.06518049538135529,-0.04673617705702782,-1.0010141134262085,0.46606701612472534,-0.023792292922735214,0.10388553142547607,29.11427879333496,-8.94354248046875,40.21290969848633,0
155,1550246,-0.05444841459393501,0.038245849311351776,-0.9964326024055481,0.07555198669433594,-0.02679445780813694,-0.16319482028484344,30.226076126098633,-8.703363418579102,38.196739196777344,0
156,1560091,0.05657089874148369,-0.03758872672915459,-1.0142426490783691,0.520437479019165,-0.33574408292770386,-0.9549273252487183,26.501544952392578,-10.725300788879395,41.40608596801758,0
157,1569774,0.042914509773254395,0.06689222902059555,-0.993139386177063,-0.03020491451025009,0.25404295325279236,0.35223278403282166,29.269975662231445,-9.816064834594727,41.486751556396484,0
158,1580133,0.04491371288895607,-0.05957033485174179,-0.9863331913948059,-0.1268085092306137,-0.006880241446197033,0.020900584757328033,28.226837158203125,-10.901304244995117,38.78364944458008,0
159,1590129,-0.0032691508531570435,-0.08703009784221649,-1.0234332084655762,0.9473688006401062,0.20582906901836395,0.2685534656047821,31.611974716186523,-6.456737518310547,39.40085983276367,0
160,1599908,-0.007755860686302185,-0.056271426379680634,-1.019353985786438,-0.35148608684539795,-0.1920333057641983,-1.1410000324249268,31.16240882873535,-7.829440593719482,41.35221481323242,0
161,1609770,0.0694747269153595,0.006457432173192501,-1.0220069885253906,-1.0923488140106201,0.9240714311599731,0.9191481471061707,30.90277671813965,-9.284542083740234,39.53036117553711,0
162,1619948,-0.07610999792814255,-0.000928659865166992,-1.0334455966949463,-0.32741814851760864,-0.22282201051712036,-0.27658283710479736,30.376249313354492,-10.165267944335938,39.798919677734375,0
163,1630072,-0.00032329055829904974,-0.0654640793800354,-1.0168532133102417,-0.24972786009311676,0.24323585629463196,-0.6858081817626953,30.837970733642578,-10.643257141113281,38.54443359375,0
164,1639814,-0.015238898806273937,0.0071149226278066635,-0.9977415204048157,0.5053361058235168,0.25862595438957214,0.663254976272583,29.58667755126953,-12.495160102844238,40.0474967956543,0
165,1650162,-0.02146807126700878,0.09910914301872253,-0.994499683380127,1.0483460426330566,0.14325088262557983,-1.2755990028381348,31.306543350219727,-9.409092903137207,40.073585510253906,0
166,1660031,-0.03739408031105995,0.011738787405192852,-1.0039740800857544,0.6765320301055908,0.47915947437286377,-0.6331024169921875,31.391117095947266,-10.654409408569336,40.82524108886719,0
167,1669995,-0.023722762241959572,-0.01766948774456978,-1.0202933549880981,-0.14606434106826782,0.01197369396686554,0.011490123346447945,30.750707626342773,-8.218181610107422,38.80630874633789,0
168,1680331,-0.05124836415052414,0.04067204147577286,-0.9864910840988159,0.12291421741247177,-0.49921879172325134,0.17523670196533203,29.630983352661133,-10.038551330566406,41.18746566772461,0
169,1689830,0.004697531461715698,0.005743841640651226,-0.9794742465019226,0.019236255437135696,-0.6871374249458313,0.3669917583465576,31.093669891357422,-9.6361665725708,41.164588928222656,0
170,1699972,0.07531610876321793,-0.00340268574655056,-0.9919299483299255,-0.41879767179489136,-0.8034796714782715,0.8579028844833374,31.042673110961914,-9.38744068145752,40.20551681518555,0
171,1710001,0.06855203211307526,0.04636493697762489,-1.0217196941375732,-0.7370734810829163,-0.005510885734111071,-0.08664258569478989,29.389293670654297,-10.622895240783691,39.810333251953125,0
172,1720036,-0.007152515929192305,-0.01800280250608921,-1.0033870935440063,0.5167917609214783,0.4954339861869812,-0.08997593820095062,28.95869255065918,-8.529932022094727,38.738773345947266,0
173,1729986,-0.04235659912228584,-0.025155814364552498,-1.0089038610458374,0.03483162820339203,-0.6376486420631409,-0.1391601860523224,29.555416107177734,-8.445084571838379,39.78776550292969,0
174,1739769,0.009976943023502827,-0.03406864032149315,-0.996660590171814,0.04114155471324921,0.554137110710144,0.14949114620685577,29.603788375854492,-10.289000511169434,39.33201599121094,0
175,1749850,-0.07276354730129242,-0.06478646397590637,-1.0152571201324463,-0.10981109738349915,-0.5518054962158203,-0.976036548614502,29.61151695251465,-9.009134292602539,39.60401916503906,0
176,1759903,-0.008036759681999683,-0.03329487517476082,-0.9958946108818054,0.26044315099716187,0.30543509125709534,0.8770866394042969,29.635164260864258,-8.723206520080566,39.77417755126953,0
177,1770000,-0.05581791698932648,-0.08934177458286285,-1.0250734090805054,-0.3067535161972046,0.681526780128479,-1.1565320491790771,28.983646392822266,-8.933088302612305,40.64230728149414,0
178,1779887,-0.030050985515117645,0.08474310487508774,-0.9788986444473267,0.39326876401901245,0.4843948483467102,0.4044550359249115,29.47264289855957,-8.991902351379395,40.33563232421875,0
179,1789971,0.024217229336500168,0.008390299044549465,-0.993191659450531,0.339229941368103,-0.21500538289546967,0.3071059584617615,31.20415687561035,-10.237483978271484,39.45821762084961,0
180,1799892,-0.020233433693647385,0.0334516279399395,-1.0153985023498535,-0.24615740776062012,0.6897778511047363,0.03774229809641838,29.053640365600586,-9.77151870727539,39.945587158203125,0
181,1809969,-0.04335436969995499,-0.03357204794883728,-1.0249069929122925,0.08566206693649292,0.47018784284591675,-0.31420356035232544,32.00056076049805,-9.159168243408203,39.71919250488281,0
182,1820126,-0.07959087193012238,-0.014935683459043503,-0.9815405607223511,-0.24446696043014526,0.19345121085643768,0.06053057685494423,30.236602783203125,-11.253827095031738,39.233699798583984,0
183,1830122,0.005264707840979099,-0.06253610551357269,-1.0108463764190674,0.1959695816040039,0.529300332069397,0.2228745073080063,28.662900924682617,-9.723990440368652,41.17289352416992,0
184,1839843,0.012566604651510715,0.025863654911518097,-1.0014986991882324,-0.41205987334251404,0.31494954228401184,0.31989961862564087,32.40612030029297,-10.682340621948242,40.229103088378906,0
185,1849820,-0.07114669680595398,-0.006091437768191099,-1.0305529832839966,0.2708595395088196,0.4520343840122223,0.06756466627120972,30.249919891357422,-9.62429428100586,39.071807861328125,0
186,1860447,0.014830678701400757,-0.08041351288557053,-0.9820895791053772,-0.517607569694519,-0.8865465521812439,0.0885692909359932,31.103832244873047,-9.124152183532715,39.9813232421875,0
187,1869981,-0.04071902483701706,0.0122095150873065,-1.0103299617767334,0.18202824890613556,0.2647927701473236,0.10396584123373032,30.41834831237793,-10.207493782043457,39.55600357055664,0
188,1880067,-0.04081461951136589,0.019734635949134827,-1.001798391342163,-0.1953684538602829,0.5485157370567322,0.1572514772415161,29.084753036499023,-9.62395191192627,39.840667724609375,0
189,1889914,-0.028163932263851166,-0.04054829850792885,-0.9920235276222229,0.46543624997138977,0.32862329483032227,-0.34493786096572876,29.452713012695312,-9.581197738647461,41.08290100097656,0
190,1900213,-0.02516723796725273,-0.0023416762705892324,-1.000465989112854,-0.6767762303352356,0.12209507077932358,0.15098567306995392,31.991607666015625,-9.879676818847656,39.05424880981445,0
191,1910300,-0.08501297235488892,0.004329189658164978,-1.0250210762023926,-0.04685521870851517,-0.027508774772286415,-0.04120650887489319,29.739990234375,-10.728206634521484,40.48223876953125,0
192,1919932,-0.061227910220623016,0.01429842785000801,-1.0180461406707764,0.22165445983409882,0.038349881768226624,-0.3476012647151947,28.5101318359375,-9.810531616210938,39.218685150146484,0
193,1930145,-0.002855282975360751,0.0001576173526700586,-0.9968118071556091,-0.2380891740322113,-1.0016515254974365,-0.36561083793640137,31.524526596069336,-9.703505516052246,40.55284881591797,0
194,1940215,0.03998873755335808,-0.04408342018723488,-0.994523823261261,0.6037628054618835,0.24187549948692322,0.17030654847621918,30.536624908447266,-12.193077087402344,40.520084381103516,0
195,1949902,0.010035384446382523,0.10138807445764542,-1.002873420715332,0.2978394329547882,-0.5637668371200562,-0.856473445892334,30.536592483520508,-10.6149320602417,38.62337112426758,0
196,1959914,0.0465364046394825,-0.056701064109802246,-0.9996536374092102,0.4396277964115143,-0.7161855697631836,0.9252213835716248,29.665781021118164,-10.419835090637207,41.415863037109375,0
197,1969781,0.05132278427481651,-0.03244918957352638,-0.9964003562927246,0.55080646276474,-0.9382083415985107,-0.23214279115200043,29.712690353393555,-8.985904693603516,41.271522521972656,0
198,1980036,0.10761893540620804,0.061069320887327194,-1.0186338424682617,-0.4471909999847412,0.030056124553084373,0.0642789676785469,29.578800201416016,-10.286911964416504,39.1966438293457,0
199,1989805,-0.01066378504037857,0.065707266330719,-0.9957062602043152,0.493936687707901,0.5016366839408875,-0.33846285939216614,29.446176528930664,-10.085273742675781,40.96061325073242,0
200,2000307,-0.014734786935150623,-0.03633878752589226,-1.0248652696609497,-0.01628105342388153,-0.19173091650009155,0.6348767280578613,29.274625778198242,-10.756686210632324,41.50175094604492,0
201,2010048,-0.03233928233385086,-0.004132052417844534,-1.0110503435134888,0.5849199295043945,0.012935190461575985,-0.5505524277687073,29.814767837524414,-9.678224563598633,39.74188232421875,0
202,2019992,-0.03609716519713402,0.007793688215315342,-1.0223596096038818,0.35645925998687744,-1.3184245824813843,-0.21242913603782654,30.462657928466797,-10.252789497375488,40.096519470214844,0
203,2029738,-0.04077087342739105,0.0012082586763426661,-0.997809886932373,-0.07335010915994644,-0.1447688490152359,0.0161790419369936,28.46760368347168,-9.981962203979492,38.46491241455078,0
204,2040206,-0.034374773502349854,0.08528133481740952,-1.0022106170654297,0.4334574341773987,0.33332180976867676,-0.2847500741481781,29.338016510009766,-10.321554183959961,40.36051940917969,0
205,2050057,-0.07387501746416092,-0.04130517691373825,-0.9901778697967529,-0.9146236181259155,0.04184400290250778,-0.030188562348484993,29.697290420532227,-9.49390697479248,39.07229995727539,0
206,2059942,-0.0014115258818492293,0.04732745885848999,-0.9856071472167969,0.1363707333803177,0.03531034290790558,-0.5840938687324524,31.565561294555664,-9.700180053710938,39.584388732910156,0
207,2070141,0.04895162954926491,-0.017342133447527885,-1.0046496391296387,0.1352960467338562,-0.6590542793273926,-0.08652761578559875,29.664888381958008,-12.359707832336426,38.744285583496094,0
208,2080126,-0.020543044432997704,0.05570587143301964,-0.9807965755462646,0.030039113014936447,0.282116562128067,-0.7930028438568115,31.701749801635742,-8.688943862915039,39.56230163574219,0
209,2089966,0.184133842587471,0.0027463831938803196,-1.0045294761657715,0.1315075159072876,0.5455817580223083,5.8889778301818296e-05,30.950904846191406,-8.960280418395996,37.99150848388672,0
210,2099931,0.008830170147120953,-0.052156079560518265,-1.012317419052124,0.07080245763063431,-0.4187096059322357,0.32316944003105164,30.326656341552734,-9.495226860046387,40.11700439453125,0
211,2110085,-0.018761515617370605,-0.037397608160972595,-1.039315938949585,0.9997885823249817,0.6401219964027405,0.304667204618454,28.711938858032227,-9.723915100097656,40.568458557128906,0
212,2119927,-0.04655735194683075,0.05179463326931,-0.9784873723983765,0.16917644441127777,0.16656941175460815,0.21643394231796265,30.223827362060547,-11.32553768157959,39.32443618774414,0
213,2129897,0.052401360124349594,-0.08505719900131226,-0.9931041598320007,0.3127357065677643,0.7563105225563049,0.45690059661865234,30.560428619384766,-10.379071235656738,41.036251068115234,0
214,2140216,0.03000604920089245,-0.08937887102365494,-1.0191140174865723,0.16434992849826813,-0.4621303677558899,0.7354902625083923,30.707759857177734,-9.69882583618164,39.09018325805664,0
215,2149927,0.023780014365911484,-0.037543561309576035,-1.0204707384109497,-0.39183545112609863,0.35468700528144836,-0.17594800889492035,27.89902114868164,-8.749921798706055,39.93709945678711,0
216,2160014,-0.035313017666339874,0.06729134172201157,-1.0262178182601929,-0.37457677721977234,0.48924726247787476,-0.3504450023174286,29.862180709838867,-10.20962905883789,40.59790802001953,0
217,2169961,-0.04576791077852249,-0.012047234922647476,-0.995684802532196,-0.25426673889160156,-0.8480637073516846,0.3835187256336212,29.29029655456543,-8.522401809692383,40.44679641723633,0
218,2179880,0.03624509647488594,-0.06680645048618317,-1.0222216844558716,0.44754254817962646,0.29625552892684937,-0.44777172803878784,30.09539222717285,-9.273484230041504,38.34282684326172,0
219,2189968,-0.027955127879977226,0.005468263756483793,-0.9945521950721741,-0.2557106614112854,-0.39545318484306335,-0.1780184954404831,29.599529266357422,-11.196745872497559,38.2752685546875,0
220,2200185,0.011354521848261356,0.020634545013308525,-1.0206997394561768,0.7068883180618286,-0.22954601049423218,0.13260693848133087,30.34779167175293,-9.415294647216797,41.88411331176758,0
221,2209959,-0.017543725669384003,-0.004404434934258461,-0.9851379990577698,0.3572327196598053,0.48529908061027527,-0.13876479864120483,29.35028076171875,-8.818967819213867,40.85957336425781,0
222,2219916,-0.08005544543266296,0.048157621175050735,-0.9701964259147644,0.1852322667837143,-0.7247521281242371,0.044591739773750305,30.419612884521484,-10.396562576293945,39.29651641845703,0
223,2230090,-0.06480394303798676,0.04489815607666969,-0.9785391688346863,0.5470713376998901,-0.43899694085121155,0.37121573090553284,30.656286239624023,-10.158676147460938,40.38364028930664,0
224,2239976,0.05533505976200104,-0.06417382508516312,-0.9944713711738586,1.1336389780044556,-0.3898116648197174,0.4000262916088104,29.116487503051758,-8.909613609313965,39.21762466430664,0
225,2250165,-0.027531063184142113,0.044336214661598206,-1.0177515745162964,-0.20140346884727478,-0.679138720035553,-0.40369173884391785,30.05154037475586,-6.529242038726807,39.67649459838867,0
226,2259932,0.01857612282037735,0.023645607754588127,-1.0218167304992676,-0.7632566094398499,1.0368361473083496,0.5348857045173645,31.384902954101562,-9.130406379699707,39.49040603637695,0
227,2270160,0.0037129847332835197,-0.005307546351104975,-0.9902607202529907,0.17850910127162933,0.02902710996568203,0.19943934679031372,31.705957412719727,-10.34586238861084,40.93526077270508,0
228,2279931,-0.06106622517108917,0.11574515700340271,-1.0166772603988647,0.791168212890625,-0.2783266007900238,0.21268096566200256,28.392152786254883,-8.791515350341797,38.09720993041992,0
229,2290208,-0.008259306661784649,0.04005209729075432,-0.9980844259262085,-0.04027470573782921,-0.5076547265052795,-0.031256288290023804,28.998659133911133,-11.646646499633789,39.95026779174805,0
230,2299967,-0.10749055445194244,-0.018245438113808632,-1.0107542276382446,-0.40844860672950745,0.23217971622943878,0.06753093004226685,28.68951416015625,-8.892303466796875,41.551536560058594,0
231,2310053,-0.06909336149692535,0.06437640637159348,-1.0041370391845703,-0.11590763926506042,-0.5487057566642761,0.8840823173522949,31.447656631469727,-9.73855972290039,40.74869918823242,0
232,2320363,0.04857010766863823,-0.09919323027133942,-0.9917865991592407,-0.3879142999649048,-0.1656869500875473,-0.2176368534564972,29.58785057067871,-9.223483085632324,39.241390228271484,0
233,2329927,-0.039284028112888336,0.0528043769299984,-0.9795447587966919,-0.22396665811538696,0.18399301171302795,0.0958985686302185,30.551681518554688,-10.329073905944824,40.35788345336914,0
234,2340029,0.04637874662876129,0.039852309972047806,-1.0058692693710327,0.07323693484067917,0.6688418984413147,-0.7444342970848083,29.40464210510254,-11.32466983795166,39.71828079223633,0
235,2350179,0.06571893393993378,-2.1129199012648314e-05,-1.0029722452163696,-0.5505220293998718,0.09008224308490753,-0.04443279281258583,30.393590927124023,-9.976753234863281,42.260093688964844,0
236,2359957,0.059855300933122635,0.0684242993593216,-0.9881054759025574,0.8626272678375244,0.21023321151733398,-0.004308480303734541,30.519739151000977,-9.798128128051758,39.411373138427734,0
237,2370032,0.07328305393457413,-0.009097151458263397,-0.9731807112693787,0.5644494295120239,-0.9416080117225647,0.8227042555809021,29.621580123901367,-9.897689819335938,39.23396301269531,0
238,2380072,0.04140621796250343,-0.057604216039180756,-0.9903261065483093,-0.38852182030677795,0.02718266472220421,-0.09746021032333374,28.382606506347656,-10.33531379699707,40.34229278564453,0
239,2390269,-0.0056028952822089195,0.030902637168765068,-0.9981220364570618,-0.8276993036270142,-0.5823975205421448,0.42564505338668823,31.64794158935547,-10.828001022338867,39.698707580566406,0
240,2399990,-0.006312669720500708,0.0026327725499868393,-1.001420021057129,-0.8703904151916504,0.06437332183122635,0.4150325357913971,30.391328811645508,-11.441316604614258,39.700435638427734,0
241,2409966,-0.0803581103682518,0.015349744819104671,-1.0149558782577515,1.3090264797210693,0.3021559417247772,-0.8375335931777954,31.782318115234375,-10.24393081665039,41.13962173461914,0
242,2419907,-0.07385421544313431,0.04719407111406326,-1.0135724544525146,-0.3452325761318207,-0.6860172152519226,0.0938941091299057,29.025678634643555,-10.676322937011719,39.86211395263672,0
243,2429761,0.024946410208940506,0.026698777452111244,-0.9997970461845398,0.22742599248886108,0.5443866848945618,0.10531598329544067,32.001556396484375,-8.924905776977539,40.38681411743164,0
244,2439921,0.030878283083438873,-0.045906778424978256,-1.0066026449203491,-0.7168546319007874,-0.05418376252055168,0.4931516945362091,28.865442276000977,-10.991992950439453,38.69820785522461,0
245,2450149,0.04550803452730179,0.03926549479365349,-1.0091043710708618,0.026097703725099564,-0.36474648118019104,0.023828504607081413,30.187103271484375,-9.838984489440918,39.794857025146484,0
246,2460135,0.0331399068236351,0.021583465859293938,-1.0146844387054443,-0.4692304730415344,0.018743278458714485,-0.5629683136940002,29.5067138671875,-9.107515335083008,40.64805221557617,0
247,2469811,0.00027987471548840404,0.000913002120796591,-1.0250427722930908,0.38218051195144653,0.024805665016174316,0.43339863419532776,29.210580825805664,-9.908366203308105,39.285152435302734,0
248,2480001,0.007336513604968786,-0.013360069133341312,-1.0076212882995605,-0.2360469251871109,-0.2470608502626419,-0.01786060258746147,30.89818572998047,-10.165189743041992,39.40435791015625,0
249,2489825,0.070053331553936,-0.01591324247419834,-1.0472465753555298,-0.10139540582895279,-0.7342147827148438,0.9331322312355042,30.109453201293945,-9.061677932739258,41.23615264892578,0
250,2500046,-0.0537068247795105,-0.03353423625230789,-1.0000393390655518,-0.32724231481552124,-0.007424292154610157,-0.15476377308368683,29.594728469848633,-9.967801094055176,40.01824951171875,0
251,2510029,-0.03217555955052376,-0.00848555937409401,-1.02598237991333,0.41381558775901794,0.1358703225851059,0.6283543705940247,29.559173583984375,-10.530689239501953,39.759254455566406,0
252,2519907,-0.020641257986426353,0.040765177458524704,-1.013371229171753,-0.2785983979701996,-0.13935241103172302,0.42212119698524475,30.34218406677246,-10.141087532043457,40.916465759277344,0
253,2530012,0.004182208329439163,0.02195737324655056,-0.972808837890625,-0.22472716867923737,0.27649322152137756,-0.10851074755191803,30.932485580444336,-10.03484058380127,41.430362701416016,0
254,2539977,0.022760022431612015,-0.06048925220966339,-1.004361629486084,-0.6214314103126526,-0.17321397364139557,0.3937273919582367,31.477519989013672,-11.481081008911133,40.36064910888672,0
255,2550109,-0.015903586521744728,0.010121901519596577,-1.0042725801467896,-0.04060603678226471,-0.6773894429206848,0.3022077679634094,30.708698272705078,-11.6748628616333,38.88688278198242,0
256,2560083,0.03890534117817879,-0.007747373078018427,-1.0100153684616089,-0.12084437161684036,0.5259807705879211,-0.2752618193626404,29.40024757385254,-11.002523422241211,40.56604766845703,0
257,2570008,-0.01114626508206129,-0.0343930721282959,-1.0167324542999268,0.3484286963939667,-0.5471003651618958,0.43693551421165466,31.6256160736084,-10.113177299499512,38.97977066040039,0
258,2579959,-0.08830199390649796,-0.02376098372042179,-0.9862353801727295,-0.7543187737464905,0.34972459077835083,-0.45318275690078735,31.049028396606445,-9.93959903717041,39.80978012084961,0
259,2590033,-0.05464649945497513,-0.037563446909189224,-0.9894571304321289,0.5608835220336914,-0.013350420631468296,0.6206230521202087,31.13318634033203,-9.192091941833496,39.6223258972168,0
260,2600070,0.07564874738454819,0.050402406603097916,-1.0058926343917847,0.23365743458271027,-0.08169249445199966,-0.02302626520395279,30.877580642700195,-9.135688781738281,40.450965881347656,0
261,2610134,-0.0216129869222641,-0.07834671437740326,-1.017822504043579,0.33218681812286377,-0.12073291093111038,-0.3255962133407593,29.246719360351562,-9.696671485900879,39.86856460571289,0
262,2620280,0.07762693613767624,-0.010931538417935371,-0.9829171895980835,0.04672177881002426,0.11753517389297485,-0.2915259003639221,28.536897659301758,-10.59169864654541,39.91387939453125,0
263,2629892,0.009892725385725498,0.009394786320626736,-1.014685034751892,0.18177737295627594,-0.39323943853378296,-0.08960948139429092,30.610671997070312,-10.157988548278809,39.0560188293457,0
264,2640368,0.06962814182043076,-0.015842901542782784,-0.9914384484291077,0.2105293571949005,0.21381615102291107,-0.651628315448761,30.253292083740234,-10.250747680664062,39.3836669921875,0
265,2649895,-0.09974938631057739,0.06144962087273598,-1.0024348497390747,-0.6729497909545898,-0.00884466152638197,-0.09728027880191803,29.43882179260254,-10.712475776672363,39.302528381347656,0
266,2660016,-0.013343887403607368,-0.03334752470254898,-1.0061063766479492,0.6814571619033813,-0.45484688878059387,-1.0517512559890747,30.11286163330078,-8.841525077819824,40.87485885620117,0
267,2670037,-0.06866949051618576,-0.06882434338331223,-0.9649467468261719,0.08942561596632004,0.5346465110778809,-0.6298646926879883,29.600526809692383,-9.56762409210205,40.56285095214844,0
268,2679968,-0.046125542372465134,0.01753472536802292,-1.0255154371261597,0.1710539162158966,0.6641919016838074,-0.25524547696113586,29.08443832397461,-10.157175064086914,40.683353424072266,0
269,2690012,-0.019286509603261948,-0.04497649893164635,-1.0023759603500366,0.9155347943305969,1.6885621547698975,-0.3296475112438202,30.29777717590332,-10.50676155090332,40.13235092163086,0
270,2699918,0.07264437526464462,-0.016409967094659805,-0.9950143098831177,-0.3511914610862732,1.0561859607696533,-0.04177528992295265,29.660686492919922,-10.861442565917969,41.28721618652344,0
271,2710258,0.05728168785572052,0.06162530183792114,-1.0106370449066162,0.23242954909801483,-0.27114084362983704,-0.37504544854164124,28.65306282043457,-9.540096282958984,38.25423049926758,0
272,2720034,0.0011153356172144413,-0.04810798540711403,-0.9963892698287964,-0.09396042674779892,-0.4944482445716858,-0.8253385424613953,27.993669509887695,-10.248684883117676,39.57035827636719,0
273,2730005,-0.04170651361346245,-0.02084110677242279,-0.9904564023017883,-0.2501315176486969,0.47972941398620605,-0.029677875339984894,31.23721694946289,-10.777061462402344,39.958213806152344,0
274,2739935,0.007303280755877495,-0.0032912862952798605,-1.0284494161605835,0.9073337912559509,-0.1773155927658081,-0.6310075521469116,29.06433868408203,-8.30148983001709,42.465206146240234,0
275,2750308,0.006224761251360178,0.05757097527384758,-0.9936521649360657,0.20293165743350983,-0.9430771470069885,-0.6896753907203674,31.477649688720703,-10.149832725524902,39.977806091308594,0
276,2759719,0.005546604283154011,0.03987501561641693,-0.9883260726928711,0.35704851150512695,0.163539320230484,0.7716351747512817,29.066577911376953,-11.300397872924805,39.338600158691406,0
277,2770165,-0.060138870030641556,-0.01098240539431572,-0.9748745560646057,0.04424745962023735,-0.014148902148008347,-0.805884599685669,30.92971420288086,-10.774718284606934,39.14374542236328,0
278,2779934,0.003304624930024147,-0.010959256440401077,-1.0141992568969727,0.674900233745575,-0.3396269977092743,-0.20735572278499603,29.78276824951172,-10.842397689819336,40.05459976196289,0
279,2789962,-0.012012459337711334,0.014770598150789738,-1.0064247846603394,0.02255285158753395,0.3303862512111664,0.14983224868774414,27.677257537841797,-11.444917678833008,40.43108367919922,0
280,2799922,-0.03835417330265045,0.004149605520069599,-0.985745370388031,0.7915704250335693,-0.5918440818786621,0.3061732053756714,28.49409294128418,-10.509210586547852,39.56346130371094,0
281,2809920,0.03723995015025139,0.0685114935040474,-1.0095536708831787,0.012439665384590626,0.17846480011940002,-0.5005967617034912,30.134193420410156,-10.196056365966797,38.28124237060547,0
282,2819941,-0.023555532097816467,0.05893879383802414,-1.016377329826355,0.44828253984451294,0.38322389125823975,-0.02218899503350258,30.2457275390625,-10.130812644958496,40.65235900878906,0
283,2830101,-0.017048580572009087,0.009232907555997372,-1.010477900505066,-0.7331685423851013,0.3956663906574249,-0.15395142138004303,29.82292366027832,-9.979879379272461,39.86449432373047,0
284,2840090,-0.008807945065200329,-0.009673860855400562,-0.9986791610717773,-0.46842366456985474,-0.4143691658973694,-0.1291096955537796,31.183935165405273,-9.48369026184082,39.0947265625,0
285,2849881,0.0061279842630028725,0.05371549353003502,-0.9723482728004456,0.8718123435974121,0.005751518532633781,0.6688952445983887,29.959226608276367,-9.143494606018066,38.80086135864258,0
286,2859730,0.011972802691161633,-0.06642263382673264,-1.0030804872512817,0.3724989593029022,0.21429778635501862,-0.01674400083720684,30.680967330932617,-9.294082641601562,40.489410400390625,0
287,2870043,0.06789758056402206,0.04905886575579643,-0.9785672426223755,-0.6707635521888733,0.3135850131511688,-0.5918430089950562,30.759408950805664,-8.703582763671875,41.013248443603516,0
288,2880295,-0.03825194388628006,-0.021830428391695023,-0.972434937953949,-0.1255861222743988,-0.3410733640193939,-0.36209771037101746,28.677120208740234,-8.885639190673828,41.684940338134766,0
289,2889997,0.10885360091924667,-0.04667094349861145,-1.0022568702697754,-0.5946386456489563,0.03991493955254555,0.24139712750911713,28.75364875793457,-9.607942581176758,38.62191390991211,0
290,2900065,0.06699047982692719,-0.09483353048563004,-1.0111722946166992,-0.020823800936341286,0.31179746985435486,-0.3773042857646942,27.883546829223633,-11.525402069091797,39.8588752746582,0
291,2910166,0.021672699600458145,-0.07208124548196793,-0.9885280728340149,-0.23645234107971191,0.11586280167102814,-0.30948886275291443,29.19996452331543,-8.681655883789062,38.88990783691406,0
292,2919968,0.02831684984266758,-0.07812359184026718,-0.9684095978736877,0.38985970616340637,0.324175089597702,1.1845474243164062,29.569931030273438,-10.48585319519043,41.143001556396484,0
293,2929715,-0.04674201086163521,-0.03564395383000374,-0.9777502417564392,-0.1830885410308838,-0.18056099116802216,-0.7247639298439026,29.97517204284668,-9.731012344360352,40.5502815246582,0
294,2940172,-0.03986058011651039,-0.047683097422122955,-1.0101574659347534,-0.03257153555750847,0.24357640743255615,0.23629890382289886,30.220218658447266,-10.254054069519043,40.892860412597656,0
295,2950285,-0.08156974613666534,0.0660310834646225,-1.013168215751648,0.37340280413627625,-0.3389095664024353,-0.42396673560142517,31.00279426574707,-9.306573867797852,39.528995513916016,0
296,2960127,0.0057698581367731094,-0.0021320299711078405,-0.9813403487205505,-0.22884511947631836,0.07591989636421204,-0.5445576906204224,29.971914291381836,-11.077852249145508,37.68657302856445,0
297,2969798,0.03668340668082237,-0.1310805082321167,-1.0031096935272217,-0.33828622102737427,0.37966620922088623,0.19200578331947327,30.411916732788086,-9.315101623535156,39.758995056152344,0
298,2979933,0.014771727845072746,0.03785368800163269,-0.9894033074378967,-0.2326093316078186,-0.3981352746486664,-0.10305681824684143,32.253074645996094,-10.32361888885498,39.901607513427734,0
299,2990177,-0.020791321992874146,0.03142627701163292,-0.9732372760772705,-0.09587668627500534,-0.34710443019866943,0.4448365569114685,30.60994529724121,-11.0708646774292,39.97114944458008,0
300,2999960,0.037653848528862,0.02570633962750435,-0.9998533129692078,0.048008959740400314,0.04534434527158737,0.041098423302173615,30.14773941040039,-9.32177448272705,40.093135833740234,0
301,3010233,0.01939455047249794,0.020291540771722794,-0.9941295981407166,-0.12998726963996887,0.5584810376167297,-0.09898846596479416,30.729393005371094,-10.841347694396973,39.64459991455078,0
302,3019884,0.029597237706184387,-0.018923019990324974,-1.0106154680252075,1.1352118253707886,-0.338544100522995,-0.3481888473033905,31.3489933013916,-10.275638580322266,38.09122085571289,0
303,3029856,0.09221013635396957,0.024572523310780525,-1.0063450336456299,0.3608376085758209,-0.44197794795036316,0.18140114843845367,29.118215560913086,-9.784241676330566,40.89916229248047,0
304,3039663,-0.01061175111681223,0.08357276022434235,-0.968352735042572,0.3946768343448639,-0.4063776433467865,0.2527368664741516,31.104408264160156,-9.58834457397461,40.0020637512207,0
305,3049926,0.05088382586836815,-0.06142062321305275,-0.9859474897384644,0.14506031572818756,-1.3468495607376099,-0.39164912700653076,29.60808753967285,-9.897778511047363,40.59040832519531,0
306,3059830,0.046720802783966064,0.0454244390130043,-0.9999169707298279,0.23526284098625183,0.8399726152420044,-0.18147510290145874,30.869665145874023,-8.914361953735352,38.727073669433594,0
307,3070033,0.020481761544942856,0.0457211397588253,-1.0150797367095947,0.024021796882152557,-0.5512822270393372,0.3376043736934662,30.558555603027344,-9.997969627380371,40.38112258911133,0
308,3079916,-0.013391759246587753,0.0679013654589653,-0.9905397891998291,0.4484345018863678,0.10165856778621674,0.28470999002456665,29.381994247436523,-12.002285957336426,42.09208297729492,0
309,3089943,-0.017133157700300217,0.08281932771205902,-0.9962222576141357,0.1594015210866928,-0.6093902587890625,0.7923768758773804,29.308719635009766,-9.161515235900879,37.95420455932617,0
310,3100385,0.025060433894395828,-0.0019190169405192137,-1.0149718523025513,0.4490721821784973,0.8249704837799072,-0.36386534571647644,30.47608184814453,-10.06859016418457,40.99617385864258,0
311,3109877,-0.027442926540970802,0.08537773042917252,-0.9831193685531616,-0.5895581245422363,0.16712267696857452,0.16634854674339294,31.245880126953125,-11.026723861694336,42.442073822021484,0
312,3119935,-0.00701237004250288,0.01608230732381344,-0.9652177095413208,-0.10084923356771469,-0.5476824641227722,1.0914649963378906,30.804391860961914,-9.923020362854004,39.612998962402344,0
313,3129853,-0.005163362715393305,-0.057266075164079666,-1.0074942111968994,-0.25369760394096375,0.10655248910188675,-0.16202600300312042,29.815702438354492,-8.745877265930176,40.46632766723633,0
314,3139951,0.0003815682721324265,0.010219384916126728,-0.9893150925636292,-0.14133745431900024,-0.7236670851707458,0.3010523319244385,31.298648834228516,-11.869467735290527,39.4154052734375,0
315,3149936,0.004822811111807823,0.03587375953793526,-0.9794318675994873,0.2738404870033264,0.04690773785114288,-0.1861000955104828,27.96565818786621,-11.3489990234375,39.78089904785156,0
316,3159964,0.08046534657478333,-0.056566961109638214,-1.0157519578933716,0.5819084048271179,-0.5553587079048157,-0.767899751663208,29.4593505859375,-10.630160331726074,40.03243637084961,0
317,3170079,-0.06059640645980835,0.11384852230548859,-0.9972924590110779,0.6265835762023926,0.3872688114643097,0.028961151838302612,29.402088165283203,-10.535335540771484,39.293663024902344,0
318,3180150,0.06188276410102844,0.022649575024843216,-1.0082420110702515,0.5221263766288757,0.005174729507416487,0.1647542119026184,30.937816619873047,-9.62816047668457,40.383705139160156,0
319,3190105,0.05461794137954712,0.013552439399063587,-1.0064302682876587,0.15429583191871643,0.13565950095653534,-0.6807712912559509,29.15066146850586,-9.468941688537598,38.698333740234375,0
320,3200076,-0.06476210802793503,-0.05191650986671448,-1.0384291410446167,-0.0011825046967715025,0.8417823910713196,0.5682523846626282,29.190448760986328,-10.76775074005127,39.747711181640625,0
321,3209884,-0.011015594936907291,-0.01920916885137558,-1.0208563804626465,0.6507401466369629,0.6049960255622864,0.5125820636749268,30.76290512084961,-10.172897338867188,39.53445816040039,0
322,3220302,0.03205825015902519,0.027464088052511215,-0.9977586269378662,0.33074960112571716,0.8175299763679504,0.20550769567489624,29.265087127685547,-10.876328468322754,39.01346969604492,0
323,3229918,0.00025831902166828513,-0.01117392722517252,-1.0493534803390503,0.049546245485544205,0.17428702116012573,1.0508184432983398,27.72628402709961,-8.250140190124512,39.527339935302734,0
324,3240060,-0.04546801373362541,0.0227378997951746,-0.9761224389076233,-0.7838082313537598,0.46324867010116577,-0.15525007247924805,29.97018051147461,-10.484490394592285,39.39350891113281,0
325,3249883,-0.04752910137176514,-0.006025087554007769,-1.0053150653839111,-0.9017797708511353,0.11186423897743225,0.09842462092638016,31.168731689453125,-9.971116065979004,39.94536590576172,0
326,3259970,-0.02441808208823204,-0.05442264676094055,-0.9994798898696899,-0.680492103099823,-0.8357823491096497,0.5445803999900818,30.043672561645508,-10.549822807312012,39.248409271240234,0
327,3269764,0.04362224042415619,-0.1115078330039978,-1.0124253034591675,0.027295047417283058,-0.14297634363174438,0.09949667751789093,30.902379989624023,-9.901347160339355,39.48208236694336,0
328,3279760,0.010173138231039047,0.017506208270788193,-0.9993135333061218,0.38767382502555847,-0.3323105573654175,0.10740511119365692,28.686477661132812,-10.697223663330078,40.83290100097656,0
329,3290063,-0.01091743167489767,-0.07779322564601898,-1.0176947116851807,0.09929739683866501,-0.14364184439182281,-0.7360467910766602,29.684856414794922,-10.349881172180176,38.8993034362793,0
330,3300360,-0.056068357080221176,-0.0770580843091011,-0.9946882128715515,-0.30947309732437134,0.3700178265571594,-0.4204452335834503,31.243581771850586,-11.130677223205566,41.37969207763672,0
331,3309870,-0.0005993879167363048,0.05092790722846985,-0.9976093173027039,-0.5107289552688599,-0.3699943721294403,0.6353124976158142,28.980175018310547,-10.859296798706055,39.28103256225586,0
332,3319971,-0.02168133668601513,-0.04758327826857567,-0.984747052192688,0.1377163678407669,0.2755604386329651,0.1907927244901657,29.674402236938477,-8.0497465133667,39.160667419433594,0
333,3329860,0.00859828945249319,-0.04725223407149315,-0.9979756474494934,-0.39044055342674255,-0.15834486484527588,-0.5146885514259338,30.853782653808594,-10.230103492736816,40.8355827331543,0
334,3340200,-0.005445804912596941,-0.013389439322054386,-1.014259934425354,0.43036097288131714,0.2604137361049652,0.4472426772117615,30.463254928588867,-9.532770156860352,38.74510192871094,0
335,3350097,-0.04464142397046089,0.030140399932861328,-0.9901629686355591,-0.2254079431295395,0.2776032090187073,-0.7076587080955505,29.97455596923828,-7.341897964477539,40.1075553894043,0
336,3360062,0.0017534749349579215,-0.017730770632624626,-0.990213930606842,-1.1162508726119995,-0.18458674848079681,0.3678271472454071,30.033161163330078,-10.998976707458496,40.37997817993164,0
337,3370021,0.09623517841100693,-0.040104351937770844,-0.9871545433998108,0.3040573000907898,0.20720185339450836,0.055737510323524475,29.040735244750977,-10.14085865020752,41.18259048461914,0
338,3380135,0.008333023637533188,-0.019528828561306,-1.0024325847625732,-0.3315671682357788,0.019271457567811012,-0.027084771543741226,27.27715301513672,-10.89466381072998,38.86474609375,0
339,3389990,-0.14131559431552887,-0.10850647836923599,-0.96692955493927,0.2909480035305023,0.6586270928382874,-0.9297628402709961,28.24530601501465,-9.858442306518555,39.17906188964844,0
340,3399910,-0.04040661081671715,0.00301905139349401,-0.9836694598197937,0.5782002210617065,-1.133019208908081,-0.4593047797679901,30.627355575561523,-10.525378227233887,41.20463180541992,0
341,3409728,-0.017480546608567238,0.03885282948613167,-1.004441261291504,0.21299555897712708,0.505241870880127,0.6733990907669067,30.022249221801758,-9.315932273864746,41.979488372802734,0
342,3419683,0.008764754049479961,-0.07208827137947083,-1.0320919752120972,1.1588561534881592,0.398456335067749,0.617556095123291,30.470720291137695,-9.50693416595459,38.969505310058594,0
343,3429963,-0.022737670689821243,0.002159695839509368,-0.9888318777084351,-0.299572616815567,0.8274053931236267,0.33836451172828674,31.842025756835938,-10.43892765045166,39.75130081176758,0
344,3439959,-0.011065604165196419,0.00024958793073892593,-1.0306451320648193,-0.45774897933006287,0.2354181557893753,0.281777024269104,28.726661682128906,-9.747408866882324,40.981224060058594,0
345,3450218,0.05406113713979721,0.035939622670412064,-1.0240027904510498,-0.1350865662097931,-0.41474640369415283,0.4078347682952881,28.208269119262695,-7.81043815612793,39.523475646972656,0
346,3460001,0.04139459505677223,-0.05107393115758896,-1.0162173509597778,0.5226122736930847,-0.5035491585731506,-0.07451874017715454,31.552715301513672,-9.668290138244629,38.70010757446289,0
347,3470259,0.00638551777228713,0.0011583772720769048,-1.0060598850250244,0.9365243315696716,-0.11545778065919876,-0.17448991537094116,29.984439849853516,-10.060688972473145,39.13399124145508,0
348,3479980,-0.03595372661948204,-0.06692979484796524,-0.9864946007728577,0.3687695562839508,0.36201342940330505,0.3821181356906891,28.765653610229492,-11.377477645874023,40.65278244018555,0
349,3489879,0.05217059329152107,-0.007322719786316156,-0.9835366010665894,0.753975510597229,-0.08403900265693665,-0.37846502661705017,30.114049911499023,-11.423513412475586,40.948673248291016,0
350,3500038,-0.046279799193143845,0.012181821279227734,-1.0160198211669922,0.24552583694458008,0.747584342956543,-0.3496294915676117,28.6438045501709,-10.741476058959961,40.423377990722656,0
351,3510005,0.013531244359910488,-0.017600754275918007,-0.9868057370185852,0.028848368674516678,0.325479656457901,0.853053629398346,29.70591926574707,-9.325263977050781,41.6551399230957,0
352,3519972,0.020902348682284355,0.028057437390089035,-0.9987068772315979,-0.6618728637695312,-0.9998646974563599,1.0153788328170776,31.826879501342773,-9.486944198608398,39.019775390625,0
353,3529959,-0.014511939138174057,-0.10312596708536148,-0.9933056235313416,-0.6528307795524597,-0.20482946932315826,-1.174073338508606,31.328510284423828,-10.050126075744629,40.00885009765625,0
354,3540134,-0.04747827351093292,0.043970752507448196,-0.9892022013664246,1.068183183670044,-0.09412027895450592,-0.5600559711456299,30.093448638916016,-10.627988815307617,41.49346923828125,0
355,3550276,0.009307249449193478,0.03299960866570473,-1.017235517501831,-0.04835676774382591,0.49980270862579346,-0.21611928939819336,30.426685333251953,-9.166759490966797,40.37672424316406,0
356,3559950,0.033610373735427856,-0.10275551676750183,-0.9821856021881104,0.453294962644577,0.1672113537788391,0.12371960282325745,29.611188888549805,-8.462057113647461,39.41123580932617,0
357,3570101,0.01438297238200903,0.1359536200761795,-1.0195870399475098,0.2486167848110199,0.23093628883361816,-0.07354041188955307,29.38201904296875,-10.634243965148926,41.86789321899414,0
358,3579686,0.03773249685764313,0.028096091002225876,-1.0051445960998535,0.09652327746152878,0.10288397967815399,0.5075933933258057,30.018489837646484,-11.200946807861328,41.416202545166016,0
359,3590053,-0.007777397055178881,-0.03971431776881218,-0.9794195294380188,0.25163742899894714,0.3719218373298645,0.14741380512714386,30.368959426879883,-11.007658958435059,39.878929138183594,0
360,3600119,0.028014080598950386,0.007561688777059317,-0.9601125717163086,-0.19348366558551788,0.17180657386779785,0.18040597438812256,29.694833755493164,-10.06617546081543,39.23610305786133,0
361,3609953,-0.08725424110889435,0.13760019838809967,-0.9887380599975586,-0.2785751223564148,-0.5172612071037292,0.08130494505167007,29.666553497314453,-12.021707534790039,40.139549255371094,0
362,3619947,0.0187440924346447,-0.012942608445882797,-0.9525470733642578,-0.9239820241928101,0.8610388040542603,-0.6539222598075867,28.181886672973633,-10.96158504486084,37.93354797363281,0
363,3630234,0.009565101936459541,0.054250333458185196,-0.9827190637588501,-0.20210394263267517,-0.19585949182510376,0.25015583634376526,29.911348342895508,-10.004362106323242,40.220367431640625,0
364,3639985,-0.05237237364053726,0.0664038360118866,-0.9578887224197388,0.16958646476268768,-0.1752064973115921,0.11117936670780182,32.11194610595703,-9.463821411132812,39.168922424316406,0
365,3650112,0.006960245780646801,-0.027504289522767067,-1.0136042833328247,1.0187674760818481,-0.3802819848060608,0.32420963048934937,30.292007446289062,-11.525679588317871,39.66657257080078,0
366,3660147,-0.003808467648923397,-0.0853593647480011,-1.0136500597000122,0.008580835536122322,-1.3346494436264038,0.75314861536026,30.498493194580078,-11.41026782989502,40.53509521484375,0
367,3670153,0.012710685841739178,-0.031169036403298378,-0.989944577217102,-0.015167533420026302,0.5247491002082825,-0.8400116562843323,29.055660247802734,-10.00680923461914,40.5364875793457,0
368,3680182,-0.02317013591527939,-0.06440369039773941,-1.0000604391098022,0.03878822177648544,0.10442947596311569,0.9907189011573792,30.56028938293457,-9.416311264038086,40.15230178833008,0
369,3689940,-0.0020701575558632612,0.01430655550211668,-1.0179872512817383,0.49426063895225525,0.6753501892089844,-0.07418978214263916,28.887903213500977,-10.781326293945312,39.110633850097656,0
370,3699952,-0.01454692892730236,0.06029966473579407,-1.0088356733322144,1.242630124092102,-0.43451371788978577,-0.000415533606428653,30.31667709350586,-8.868666648864746,38.91826248168945,0
371,3709933,0.00048413651529699564,0.022954998537898064,-1.0087803602218628,0.12626323103904724,-0.07699304074048996,0.15313805639743805,30.270851135253906,-10.981597900390625,38.470733642578125,0
372,3720039,-0.0015005713794380426,-0.00135768239852041,-1.0010617971420288,-0.29430535435676575,-0.13911578059196472,-0.520685076713562,30.985252380371094,-8.024579048156738,40.472755432128906,0
373,3730049,-0.0013824733905494213,0.05156949535012245,-1.0218877792358398,0.8640080690383911,0.12010015547275543,-0.5547239184379578,31.899829864501953,-9.466721534729004,38.340824127197266,0
374,3739774,0.007846557535231113,-0.003654399188235402,-1.0221494436264038,1.2837536334991455,-0.9137328863143921,0.5568799376487732,30.55463409423828,-8.382425308227539,37.4649543762207,0
375,3749769,0.060738760977983475,0.07063299417495728,-0.9922335147857666,-0.881557285785675,0.11653745919466019,-0.07604216784238815,29.038082122802734,-9.267740249633789,39.47893142700195,0
376,3760123,0.020528504624962807,0.004276026971638203,-0.9943654537200928,0.7002789974212646,-0.7853193879127502,-0.42459550499916077,28.689369201660156,-10.690494537353516,41.8384895324707,0
377,3769976,-0.05498776584863663,-0.05968361720442772,-0.9815562963485718,-0.22837744653224945,0.10047715157270432,-0.20075802505016327,30.48116683959961,-9.309574127197266,40.928680419921875,0
378,3779986,-0.034855011850595474,0.022099921479821205,-0.9690107107162476,0.24305416643619537,-1.1467046737670898,0.4228058159351349,27.750709533691406,-11.153271675109863,39.98517608642578,0
379,3789979,0.03123348392546177,-0.017178507521748543,-0.9711002707481384,0.5927072167396545,0.15102097392082214,-0.5609116554260254,29.65656280517578,-9.987006187438965,40.09001159667969,0
380,3799881,-0.04222696274518967,0.043635450303554535,-0.9886837601661682,-0.7021512389183044,0.02162512205541134,-0.26924166083335876,31.388206481933594,-12.064480781555176,39.473426818847656,0
381,3810063,-0.06162190064787865,0.03047260083258152,-0.9899328947067261,0.1826007068157196,0.3875637948513031,-0.6184129118919373,27.781110763549805,-10.023669242858887,41.38584899902344,0
382,3819602,-0.05145024135708809,0.12313146889209747,-0.9972583651542664,0.4509340822696686,-1.2341136932373047,-1.2046250104904175,30.58869743347168,-10.498189926147461,41.955535888671875,0
383,3830246,-0.03019503690302372,-0.0971044972538948,-0.987255871295929,1.0904971361160278,-0.19597288966178894,0.18188630044460297,28.6187801361084,-11.114187240600586,39.401512145996094,0
384,3839827,0.011792722158133984,0.022989420220255852,-1.034848928451538,0.2677609324455261,-0.29293492436408997,-0.7459461092948914,30.08386993408203,-9.184650421142578,38.929813385009766,0
385,3850042,-0.0852583795785904,-0.013645041733980179,-1.0088062286376953,0.8875848650932312,0.022565599530935287,-0.6859552264213562,30.54654312133789,-9.209927558898926,41.675498962402344,0
386,3860065,0.05462486296892166,0.003656168933957815,-1.0222421884536743,0.5181024670600891,0.20870214700698853,-0.4009546935558319,30.43902587890625,-10.734216690063477,40.97162628173828,0
387,3869946,-0.040342915803194046,0.06627437472343445,-0.9894010424613953,-0.1436212658882141,-0.1491106003522873,-0.7684045433998108,29.86053466796875,-9.985444068908691,39.6285514831543,0
388,3879873,-0.06697682291269302,-0.02840934693813324,-0.9854697585105896,0.5328943729400635,-0.061639633029699326,-0.24952790141105652,27.473979949951172,-11.507136344909668,39.8482666015625,0
389,3889992,-0.034331582486629486,0.11078866571187973,-1.0136739015579224,-0.7590742111206055,-0.5998951196670532,-0.8140738010406494,29.66647720336914,-10.590444564819336,40.16817855834961,0
390,3900052,0.03871067240834236,0.00713710393756628,-1.0023308992385864,0.20410099625587463,0.8971348404884338,-0.6808216571807861,29.67089080810547,-10.108732223510742,40.47359085083008,0
391,3909997,-0.06694211065769196,0.040829382836818695,-0.9925989508628845,-1.0736407041549683,-0.4770255982875824,-0.42545342445373535,30.176240921020508,-11.471320152282715,39.866554260253906,0
392,3919990,0.03544018045067787,0.030250929296016693,-1.046945571899414,-0.32260531187057495,-0.411770224571228,0.013353555463254452,30.26824378967285,-10.207690238952637,38.60293960571289,0
393,3930449,-0.15168365836143494,0.04615287482738495,-1.0035427808761597,0.3751702904701233,0.33389121294021606,-0.5385128855705261,30.11485481262207,-10.561335563659668,40.43730926513672,0
394,3940077,0.036301109939813614,0.03521501645445824,-1.0025615692138672,-0.24772344529628754,-0.392570823431015,0.013089679181575775,31.851472854614258,-10.5755615234375,40.200103759765625,0
395,3949895,0.00916112121194601,0.009264402091503143,-0.9489323496818542,-0.18173453211784363,0.458929181098938,-0.05115940421819687,28.831710815429688,-10.069193840026855,38.810272216796875,0
396,3960217,-0.034201860427856445,0.03903333097696304,-1.013214111328125,-0.24250242114067078,-0.07165461778640747,-0.23774807155132294,30.887714385986328,-7.985087871551514,39.46940994262695,0
397,3969871,0.022085873410105705,0.13602150976657867,-0.9760704636573792,-0.023845937103033066,0.25278663635253906,-0.18355022370815277,31.41171646118164,-9.566184997558594,40.70338439941406,0
398,3980115,-0.002187335630878806,-0.01551688089966774,-1.0004876852035522,-0.5827733874320984,0.22398966550827026,0.20451293885707855,30.434368133544922,-9.541268348693848,40.38084411621094,0
399,3990056,0.031516581773757935,0.036275673657655716,-0.9791872501373291,-0.2545570433139801,-0.2108784317970276,-0.5780782103538513,29.256895065307617,-8.552248001098633,40.130584716796875,0
400,3999992,-0.07196726649999619,-0.05664198473095894,-1.0164636373519897,0.24489794671535492,0.9859655499458313,-1.0641831159591675,28.013198852539062,-11.916945457458496,40.463314056396484,0
401,4009770,0.08154445141553879,-0.07847718149423599,-1.0255017280578613,-0.20163166522979736,-0.06654413044452667,0.7328993082046509,29.519908905029297,-8.548898696899414,40.030128479003906,0
402,4020056,0.10665104538202286,-0.0019318850245326757,-0.9976429343223572,-0.09548123925924301,-0.4181883931159973,-0.3849536180496216,30.25672149658203,-9.450661659240723,39.41170120239258,0
403,4029698,-0.01906762830913067,0.05539420247077942,-1.0025643110275269,-0.7847159504890442,-0.2619771957397461,-0.4675025939941406,29.598623275756836,-9.48613452911377,40.41091537475586,0
404,4040064,0.005647645797580481,0.01746217906475067,-1.0218597650527954,-0.1280394047498703,-0.5473149418830872,0.998837411403656,31.36807632446289,-6.852445125579834,40.09516525268555,0
405,4050104,-0.010986312292516232,0.046484772115945816,-0.9697781205177307,-0.21575434505939484,0.27471643686294556,0.19895383715629578,29.48464584350586,-9.51628303527832,40.974937438964844,0
406,4060110,0.0349477156996727,0.039650097489356995,-1.0014032125473022,-0.6519604921340942,-0.7104046940803528,0.04315505921840668,28.863203048706055,-10.96291446685791,37.40596008300781,0
407,4069997,-0.06521855294704437,-0.014652766287326813,-0.9962198734283447,-0.715809166431427,-0.5346747040748596,-0.9158319234848022,30.0530948638916,-8.621946334838867,40.551578521728516,0
408,4079606,-0.06176520138978958,-0.052999693900346756,-0.9996376633644104,0.6555073857307434,-0.38499146699905396,-0.49989262223243713,29.376832962036133,-10.110459327697754,40.91670608520508,0
409,4090045,0.02077583782374859,-0.0630418211221695,-0.9921658635139465,0.5543712973594666,-0.055985841900110245,-0.16381488740444183,30.385143280029297,-10.77538776397705,39.93422317504883,0
410,4100151,-0.021949991583824158,0.07775456458330154,-1.0132296085357666,0.5368715524673462,0.12273664772510529,0.2879873514175415,30.009647369384766,-6.90639066696167,39.318973541259766,0
411,4109875,-0.048450857400894165,-0.02826857753098011,-1.001556158065796,-0.12411949783563614,-0.940833568572998,0.2146049290895462,29.70798110961914,-9.771700859069824,39.70838928222656,0
412,4120271,-0.04802614822983742,-0.006540562491863966,-0.9692474007606506,-0.6402412056922913,-1.2542014122009277,0.3467370271682739,29.909481048583984,-9.648588180541992,40.2188606262207,0
413,4129953,0.06328323483467102,-0.00950461346656084,-1.0213863849639893,-0.23229211568832397,-0.7747690081596375,0.4138476550579071,30.431005477905273,-9.734355926513672,39.10488510131836,0
414,4140107,0.010913115926086903,0.022625522688031197,-0.9734680652618408,-0.34836146235466003,0.7133684754371643,-0.0636611059308052,29.5447998046875,-10.046760559082031,38.66244888305664,0
415,4150028,-0.01066998764872551,0.06257762759923935,-1.0137019157409668,0.24451188743114471,-0.24900951981544495,1.2832914590835571,32.16868591308594,-11.511496543884277,40.81022644042969,0
416,4160080,-0.07423079758882523,-0.0009842878207564354,-0.9896532297134399,-0.5346505641937256,-0.798005998134613,-0.201094388961792,29.74978256225586,-10.543932914733887,39.03042984008789,0
417,4169831,0.07757283747196198,0.03799049183726311,-0.9845911860466003,0.560575008392334,-0.7706132531166077,-0.21791981160640717,29.445032119750977,-10.882269859313965,38.17626953125,0
418,4180135,-0.038234785199165344,-0.0866646021604538,-1.0003021955490112,0.6978389620780945,-0.9476708769798279,0.7399829626083374,30.949913024902344,-9.623931884765625,40.13059616088867,0
419,4189752,0.04889009892940521,0.08044854551553726,-1.0085976123809814,-0.02431359700858593,-0.004545862786471844,0.7537403702735901,28.72347068786621,-8.97987174987793,41.89470672607422,0
420,4200192,-0.05321755260229111,0.04956575110554695,-1.0122534036636353,-0.0022526367101818323,0.2034088671207428,-0.08115518093109131,29.464885711669922,-9.302143096923828,40.71411895751953,0
421,4209972,-0.01488068513572216,-0.04377422854304314,-0.9898583292961121,0.2403489053249359,-0.618675708770752,-1.6585965156555176,29.881898880004883,-9.261821746826172,41.50859832763672,0
422,4219974,0.033859871327877045,0.07251758128404617,-1.017141580581665,-0.0744566023349762,0.002462763339281082,0.1775863617658615,29.652694702148438,-9.471303939819336,39.129425048828125,0
423,4229836,-0.06169852986931801,-0.023750929161906242,-1.0100263357162476,0.38940200209617615,-0.4137495160102844,0.68280029296875,29.1285400390625,-10.645519256591797,40.2224235534668,0
424,4239707,0.022729206830263138,0.09762635827064514,-1.0295383930206299,0.20614095032215118,-0.4222679138183594,0.10275161266326904,29.800748825073242,-11.29469108581543,39.49345779418945,0
425,4250057,0.01190973911434412,0.01321618352085352,-1.008202075958252,0.04526583105325699,0.4888046681880951,-0.5424215197563171,30.00259780883789,-7.4039740562438965,39.254337310791016,0
426,4259943,-0.06328409910202026,0.06611546128988266,-1.0016506910324097,-0.5194298028945923,-0.07730487734079361,-0.4615762531757355,30.017297744750977,-10.578235626220703,41.21933364868164,0
427,4270322,-0.0448773056268692,-0.07895255088806152,-0.9910118579864502,0.21056590974330902,-0.6907463669776917,-1.20460045337677,29.11585235595703,-10.731816291809082,41.145896911621094,0
428,4280337,0.037640634924173355,-0.030510898679494858,-0.9983468651771545,0.5467145442962646,0.6407891511917114,0.6098743677139282,29.79129981994629,-9.518840789794922,40.21052169799805,0
429,4290029,0.0397116057574749,-0.06615518033504486,-0.9540056586265564,0.8088324069976807,0.42208245396614075,-0.40740835666656494,29.854047775268555,-8.61337661743164,39.046844482421875,0
430,4299914,-0.0314914807677269,0.06799150258302689,-1.0297067165374756,-0.5484384894371033,-0.29953575134277344,0.4142228662967682,30.596843719482422,-9.722134590148926,40.15930938720703,0
431,4310163,-0.07462923973798752,-0.08808096498250961,-1.0060315132141113,-0.28148218989372253,0.3605685830116272,0.6933774352073669,30.3067626953125,-10.358399391174316,40.56459426879883,0
432,4319994,-0.001108915195800364,0.02935628965497017,-0.9692426919937134,-0.6590019464492798,0.2835334241390228,-0.5112290382385254,29.23365592956543,-10.79102611541748,38.926551818847656,0
433,4329605,-0.012401231564581394,-0.16579177975654602,-0.9778015613555908,0.8242282867431641,0.8659271001815796,0.10679184645414352,28.859899520874023,-11.077616691589355,41.28932189941406,0
434,4340054,-0.0004920785431750119,0.046009983867406845,-0.9966965317726135,0.31400907039642334,-0.3738528788089752,0.07614471018314362,28.4381103515625,-9.892051696777344,40.07240676879883,0
435,4349990,0.10877253860235214,0.031170915812253952,-1.0482256412506104,0.22975113987922668,0.41422969102859497,-0.03701097518205643,28.70421028137207,-9.234175682067871,39.37528610229492,0
436,4360012,-0.007927129976451397,-0.07036461681127548,-0.9913919568061829,-0.08869905024766922,0.44738897681236267,-0.5148765444755554,28.302412033081055,-10.132964134216309,38.771636962890625,0
437,4370030,0.031103290617465973,0.03766539692878723,-0.9555005431175232,0.37456727027893066,0.3931236267089844,-0.3034282326698303,30.10761833190918,-10.471953392028809,40.55125045776367,0
438,4380245,-0.06414403766393661,-0.03981262072920799,-0.9956754446029663,0.537333071231842,0.34765785932540894,0.37818971276283264,29.324691772460938,-10.355563163757324,39.119659423828125,0
439,4389972,0.033164530992507935,-0.04229483753442764,-0.9543951153755188,-0.1597634255886078,-0.4761503338813782,0.558576226234436,30.251827239990234,-10.23552417755127,38.41950607299805,0
440,4400154,-0.0017664195038378239,-0.017919648438692093,-0.9871932864189148,0.37757590413093567,0.32301294803619385,0.13148079812526703,29.28019142150879,-10.22624683380127,39.098594665527344,0
441,4410315,0.10472596436738968,-0.059647031128406525,-0.9757553935050964,-0.7462671995162964,0.281133770942688,0.3574081361293793,30.121728897094727,-10.069474220275879,40.20120620727539,0
442,4419935,0.032522618770599365,0.048265889286994934,-1.0278984308242798,-0.40192559361457825,0.16874960064888,-0.20757977664470673,28.5492000579834,-10.030454635620117,39.66347885131836,0
443,4429905,0.056663546711206436,0.030169256031513214,-0.9773328900337219,-0.27086371183395386,-0.3500818610191345,-0.7118614315986633,29.386186599731445,-10.009858131408691,39.71187210083008,0
444,4440056,-0.034311503171920776,-0.015103473328053951,-1.0006026029586792,0.22630001604557037,-0.3923753499984741,0.42659395933151245,29.131837844848633,-9.03904914855957,40.0587043762207,0
445,4449794,-0.03018275834619999,0.0465366467833519,-0.997305154800415,-0.4379653334617615,0.6037310361862183,-0.2025485336780548,30.095746994018555,-11.253056526184082,40.8487548828125,0
446,4459819,0.06351162493228912,-0.049859773367643356,-1.0115028619766235,-0.5144164562225342,0.3068651258945465,-0.18663287162780762,30.3491268157959,-10.805022239685059,40.46509552001953,0
447,4469866,-0.0325048491358757,-0.024752777069807053,-0.9943917989730835,-1.0317350625991821,0.8528562188148499,0.4151526987552643,29.172456741333008,-8.441505432128906,40.3138313293457,0
448,4479980,-0.09342034161090851,0.03114856220781803,-1.0216064453125,-1.1984602212905884,-0.5823112726211548,0.06963150203227997,30.64723777770996,-9.221101760864258,39.70263671875,0
449,4490272,-0.01963638700544834,-0.008542587049305439,-0.978672444820404,-0.5513297319412231,0.10691729187965393,-0.3023897707462311,30.125864028930664,-8.150649070739746,39.51507568359375,0
450,4499940,0.01192259881645441,0.05707218497991562,-0.9923924803733826,0.26554155349731445,-0.2552793323993683,0.11737292259931564,29.10354995727539,-8.886764526367188,41.08992385864258,0
451,4509890,-0.030322065576910973,0.083552785217762,-1.008310079574585,-0.3632374405860901,-0.1716105043888092,-0.821979284286499,30.142864227294922,-7.477667331695557,41.24441909790039,0
452,4519941,0.07404951751232147,-0.03319857269525528,-0.9835023880004883,0.885151743888855,-0.3447478711605072,0.5328783988952637,29.721250534057617,-9.932855606079102,39.26555252075195,0
453,4529970,-0.02704802341759205,0.058552708476781845,-1.001844048500061,0.07273482531309128,0.23140151798725128,0.244892418384552,30.38713264465332,-10.35680866241455,39.46527099609375,0
454,4539869,0.1098005399107933,0.022287337109446526,-1.0020670890808105,-0.0011982624419033527,-0.43018200993537903,-0.35090088844299316,27.983657836914062,-10.212968826293945,40.3100700378418,0
455,4549982,-0.05118493363261223,-0.023527126759290695,-1.012123465538025,-0.2810055911540985,0.3665326237678528,-0.552776038646698,29.82201385498047,-9.877224922180176,39.891780853271484,0
456,4560046,0.07663130760192871,-0.020893685519695282,-0.9885005354881287,-0.8141927719116211,0.2928096055984497,-0.5160953402519226,30.535816192626953,-10.756645202636719,39.86286163330078,0
457,4569878,0.048740826547145844,-0.029308747500181198,-1.0090326070785522,0.4705548882484436,-0.1179710254073143,-0.10589484870433807,29.773469924926758,-11.866287231445312,39.037757873535156,0
458,4579830,-0.03224021568894386,-0.04431469738483429,-1.0016868114471436,-0.2407281994819641,-0.06391723453998566,0.7390488982200623,29.991838455200195,-11.529592514038086,40.657169342041016,0
459,4589973,-0.007998991757631302,-0.004939555656164885,-1.0655384063720703,-0.5708063840866089,0.39019155502319336,0.05617549642920494,28.652761459350586,-10.51447582244873,39.25803756713867,0
460,4599991,0.01333177275955677,0.04805295169353485,-0.9841723442077637,-0.10719609260559082,-0.5761656761169434,1.2695516347885132,30.998302459716797,-10.252174377441406,39.04960632324219,0
461,4609834,-0.0063142720609903336,0.05591151863336563,-1.0403072834014893,-0.3951672613620758,0.48726698756217957,-0.031508397310972214,29.954652786254883,-11.443717002868652,41.08434295654297,0
462,4619921,-0.04141717404127121,0.1235666275024414,-0.9962685108184814,0.11108805239200592,-0.6338688135147095,0.406228244304657,30.71369743347168,-11.803251266479492,39.04335021972656,0
463,4629804,0.07906194776296616,0.03138648718595505,-1.0254749059677124,0.10771092772483826,-0.00029466248815879226,0.5228661298751831,29.026748657226562,-9.574383735656738,38.62468719482422,0
464,4640043,0.009283149614930153,0.031206265091896057,-1.0107170343399048,-0.41257068514823914,-0.45269250869750977,-0.5647529363632202,29.310993194580078,-11.456398010253906,39.94246292114258,0
465,4649981,-0.005353165790438652,0.03431088104844093,-0.9799178242683411,0.7147456407546997,-0.3169361352920532,0.1768181473016739,30.086532592773438,-10.215861320495605,39.890140533447266,0
466,4660010,-0.011280721053481102,-0.05287132039666176,-1.0003329515457153,-0.24271339178085327,0.34119272232055664,0.4799286723136902,30.533357620239258,-10.41018295288086,38.80983352661133,0
467,4669912,0.01543222926557064,0.018062397837638855,-0.9950408339500427,0.6241797208786011,-0.4683949053287506,0.19189712405204773,30.236970901489258,-8.453063011169434,39.19535827636719,0
468,4679790,-0.06694953888654709,-0.0763721838593483,-1.0187796354293823,0.3898724615573883,0.16876159608364105,-0.7740439176559448,30.37494659423828,-10.176505088806152,38.902523040771484,0
469,4690131,0.09273307770490646,-0.07195386290550232,-1.0061705112457275,0.020931782200932503,0.39869093894958496,0.05149328336119652,31.452091217041016,-10.944937705993652,41.26775360107422,0
470,4699938,-0.023117460310459137,0.07837943732738495,-0.9918688535690308,-0.5906949043273926,-0.3345627784729004,-0.5364011526107788,30.304607391357422,-9.373891830444336,39.23967742919922,0
471,4709885,0.02425677515566349,0.08215799182653427,-1.0135471820831299,-0.3848770558834076,-0.5033056735992432,-0.04254523292183876,30.89604377746582,-10.938392639160156,39.33863067626953,0
472,4720059,0.11644511669874191,0.03818821161985397,-0.9884769916534424,-0.9497190117835999,0.41702568531036377,-0.006821718532592058,32.26371765136719,-9.467987060546875,41.5364990234375,0
473,4729856,0.013289181515574455,0.011612659320235252,-1.004619836807251,-0.23344969749450684,-0.32747167348861694,0.4795345366001129,31.496036529541016,-9.227197647094727,38.42440414428711,0
474,4739820,-0.036955177783966064,0.026065457612276077,-1.0229804515838623,0.4288039207458496,1.0725915431976318,0.5635091662406921,30.100290298461914,-10.698593139648438,40.567081451416016,0
475,4750057,-0.09864877909421921,0.004565959330648184,-1.0064013004302979,0.16485661268234253,0.549136757850647,0.26906439661979675,31.367549896240234,-9.564620018005371,40.21614456176758,0
476,4760003,0.02333850972354412,0.07795093953609467,-0.9896639585494995,-0.38467860221862793,0.36730289459228516,-1.2418463230133057,29.837299346923828,-10.336385726928711,41.479225158691406,0
477,4770000,-0.040348753333091736,-0.01653226464986801,-0.9996930956840515,0.3216778635978699,-0.3625948429107666,-0.15561465919017792,30.517675399780273,-11.03600788116455,40.860836029052734,0
478,4779963,-0.1019020602107048,-0.042013898491859436,-1.0069043636322021,-0.8294577598571777,1.1119465827941895,-0.44414079189300537,30.15382957458496,-9.023873329162598,39.00093460083008,0
479,4790123,-0.09044128656387329,-0.017631392925977707,-0.9838821887969971,0.9425348043441772,-0.3868483006954193,-0.7699518799781799,29.747480392456055,-10.035371780395508,41.073394775390625,0
480,4799725,0.031023016199469566,0.017862629145383835,-1.0178141593933105,0.3574850261211395,0.17811068892478943,0.6918285489082336,30.781009674072266,-7.656174659729004,40.53072738647461,0
481,4810047,0.03209802508354187,-0.008245532400906086,-0.9497963786125183,0.41987311840057373,1.2073142528533936,0.13016736507415771,29.848249435424805,-10.714600563049316,40.73328399658203,0
482,4819968,-0.06341979652643204,-0.0326683409512043,-0.9950936436653137,-0.9484477043151855,-0.3293849527835846,-0.1931750476360321,29.898258209228516,-11.12882137298584,40.76416778564453,0
483,4830128,0.03135840222239494,-0.07430823147296906,-1.012028455734253,-0.4879438281059265,0.12618139386177063,0.29346585273742676,28.107440948486328,-10.0203218460083,40.13575744628906,0
484,4839990,0.0630701407790184,-0.10623737424612045,-1.003422737121582,-1.0799480676651,-0.2300616055727005,-0.7236276865005493,28.683603286743164,-10.826300621032715,42.014442443847656,0
485,4849637,0.0658319890499115,0.014755768701434135,-0.9843332171440125,-0.13367490470409393,0.27299439907073975,0.36677929759025574,29.066972732543945,-8.67237377166748,40.84803771972656,0
486,4859958,-0.01613006182014942,0.058084163814783096,-1.0361460447311401,0.7225829362869263,-0.25115296244621277,0.4972938001155853,31.967453002929688,-10.8305082321167,41.18608856201172,0
487,4869846,-0.00544517207890749,-0.007798722013831139,-1.002517819404602,-0.325299471616745,0.5807715654373169,-0.07457969337701797,30.04608726501465,-8.606607437133789,40.16924285888672,0
488,4879834,0.07994542270898819,-0.14192675054073334,-1.0084937810897827,-0.5350303053855896,-0.02690734900534153,0.039738427847623825,30.44875717163086,-9.82833194732666,39.10443878173828,0
489,4889934,-0.04301878437399864,-0.09382877498865128,-1.0045650005340576,-0.7068600654602051,0.005598677787929773,-0.6988391876220703,30.448448181152344,-9.661308288574219,40.31049728393555,0
490,4899972,0.022135989740490913,-0.027850741520524025,-1.005971908569336,-0.04709867388010025,0.4200432002544403,0.41417381167411804,29.027286529541016,-9.231382369995117,41.62604904174805,0
491,4910147,0.034462492913007736,0.01229085586965084,-0.9776028394699097,0.4341522455215454,0.5211940407752991,-0.4019014835357666,30.354089736938477,-11.512116432189941,38.691619873046875,0
492,4920066,0.06561335176229477,0.03542269021272659,-1.008815050125122,-0.13273632526397705,-0.43426430225372314,0.1454095095396042,29.62226104736328,-10.983444213867188,40.81834030151367,0
493,4929975,-0.06656546145677567,-0.0525362454354763,-1.0109716653823853,0.03494374081492424,0.28290894627571106,-0.06317074596881866,29.54754638671875,-9.057194709777832,39.528053283691406,0
494,4940100,0.007663042284548283,-0.1211496964097023,-1.0031459331512451,0.3595251441001892,0.03262043371796608,-0.699093759059906,28.90485191345215,-10.279152870178223,39.35959243774414,0
495,4949775,-0.012279914692044258,0.00686262920498848,-0.9574512243270874,0.27630317211151123,-0.15596385300159454,-0.04884639382362366,30.113113403320312,-10.891138076782227,40.36138916015625,0
496,4959926,0.02077978476881981,0.05099223554134369,-0.9789091348648071,-0.06401120126247406,0.5027279257774353,-0.5147702097892761,31.23501205444336,-9.097158432006836,39.47744369506836,0
497,4970232,0.03583277389407158,0.07677353173494339,-1.009184718132019,0.7549498677253723,0.08378876745700836,0.1159854605793953,32.3332633972168,-11.33551025390625,39.88645935058594,0
498,4979850,-0.010655427351593971,0.014376088976860046,-0.983993411064148,0.4303719997406006,-0.8517212271690369,1.0736693143844604,30.272029876708984,-10.352770805358887,40.191158294677734,0
499,4989936,0.09500883519649506,-0.03705518692731857,-1.022731900215149,-0.401426762342453,-1.0325239896774292,0.5299266576766968,30.245437622070312,-9.023611068725586,39.676876068115234,0
500,4999870,-0.0069919065572321415,0.03203488141298294,-0.9846926927566528,0.315804660320282,-0.5829167366027832,-0.5084019303321838,31.782779693603516,-9.743148803710938,39.39240264892578,0
501,5009929,-0.02785501815378666,-0.04582026228308678,-0.9863919019699097,1.0421278476715088,0.3293604850769043,-0.13407586514949799,30.80221176147461,-10.072256088256836,40.028350830078125,0
502,5019874,-0.0006321884575299919,0.0021738370414823294,-0.9909354448318481,-0.20016513764858246,-0.7249624133110046,-0.12942112982273102,28.48668098449707,-9.44621467590332,40.800682067871094,0
503,5029996,0.016046881675720215,-0.06299275159835815,-0.9955340623855591,-0.13011689484119415,0.4572122395038605,-0.8732710480690002,31.688392639160156,-9.07072639465332,41.44997024536133,0
504,5039998,-0.005547903012484312,-0.03793742507696152,-0.9863743185997009,-0.8251334428787231,0.42951279878616333,0.28091558814048767,31.916589736938477,-9.689697265625,39.687164306640625,0
505,5049664,0.029130451381206512,0.045191749930381775,-0.9854939579963684,-0.365514874458313,-0.5875635147094727,-0.2430594116449356,30.396848678588867,-9.928750991821289,40.92680358886719,0
506,5060024,0.08783083409070969,0.037542674690485,-1.0007284879684448,-0.9923705458641052,-0.5822610855102539,-0.19785048067569733,29.588315963745117,-8.835278511047363,40.400455474853516,0
507,5070022,0.026210574433207512,0.02479887194931507,-0.9829419255256653,-0.16298586130142212,-0.8386505842208862,0.13510587811470032,29.17288589477539,-9.898715019226074,41.610408782958984,0
508,5080348,0.021145114675164223,-0.0756833404302597,-0.9942901730537415,0.5784232020378113,-0.01617715321481228,-0.7614644765853882,30.039621353149414,-10.714588165283203,39.95560073852539,0
509,5090052,0.03311846777796745,-0.05485455319285393,-0.9556831121444702,-0.1462724208831787,0.8040890693664551,-0.2038876861333847,29.379676818847656,-11.274888038635254,39.79563903808594,0
510,5099847,-0.03503725305199623,-0.1320311576128006,-0.9626027345657349,0.04122442007064819,-0.14379000663757324,0.44619256258010864,30.81285285949707,-10.2575044631958,41.043601989746094,0
511,5110092,0.0008073066710494459,-0.029853802174329758,-1.002646565437317,-0.36489173769950867,-0.562500536441803,-0.4321248531341553,30.45891761779785,-9.432877540588379,39.86648941040039,0
512,5120320,0.0384611152112484,-0.05411408096551895,-1.005178451538086,-0.3118765950202942,-0.11772814393043518,-0.2153637856245041,29.47350311279297,-11.538545608520508,41.12080764770508,0
513,5129789,-0.005662310402840376,-0.031727783381938934,-1.014936923980713,-0.8092259764671326,0.35884159803390503,-0.4214390218257904,30.735286712646484,-12.528491973876953,41.132633209228516,0
514,5140084,0.015363582409918308,0.04623819887638092,-0.997296154499054,0.1707349717617035,0.7574300169944763,-0.23792357742786407,29.684606552124023,-9.13856315612793,40.23365783691406,0
515,5149858,0.05719714239239693,-0.05416090786457062,-0.9862345457077026,0.5644737482070923,0.5622252225875854,0.4080624282360077,27.219270706176758,-9.88951301574707,38.704063415527344,0
516,5160087,0.08289217948913574,0.0876159816980362,-1.0185301303863525,0.24748942255973816,-0.8238056898117065,0.2865815758705139,30.34037971496582,-10.842305183410645,40.30923080444336,0
517,5170046,-0.033524006605148315,-0.021653084084391594,-0.9862415194511414,-0.46529069542884827,1.0794004201889038,-0.849385678768158,30.72401237487793,-10.64841079711914,40.29787826538086,0
518,5179734,0.011074583046138287,-0.042812544852495193,-0.9896004796028137,0.4901468753814697,0.23802411556243896,-0.28083398938179016,31.026897430419922,-10.270090103149414,40.80952072143555,0
519,5190094,0.03387623652815819,-0.048809535801410675,-1.0020908117294312,0.6070994734764099,0.09439548850059509,-0.8387026786804199,29.7288818359375,-8.854146957397461,40.41091537475586,0
520,5199933,-0.02229035273194313,-0.06875006854534149,-0.9699851870536804,-0.29755425453186035,-0.9745883345603943,-0.28458523750305176,27.354665756225586,-9.995070457458496,40.65472412109375,0
521,5209993,0.07721161842346191,-0.05885658785700798,-0.9856677055358887,0.5471407771110535,0.16957953572273254,0.17659609019756317,28.932903289794922,-9.68612003326416,39.25105667114258,0
522,5219958,-0.018778935074806213,-0.03316643461585045,-0.9856407046318054,0.13504037261009216,0.35607677698135376,-0.28548145294189453,30.3343505859375,-9.00279426574707,39.917354583740234,0
523,5229855,-0.055468954145908356,0.13016119599342346,-1.0048832893371582,0.27268287539482117,0.25143328309059143,0.5508164167404175,27.62451171875,-9.346587181091309,39.402931213378906,0
524,5239619,0.00098285055719316,0.050081685185432434,-0.9742135405540466,-0.4122576415538788,-0.1649857461452484,-0.20736229419708252,29.28629493713379,-10.943070411682129,42.08219909667969,0
525,5249677,0.1287885457277298,-0.025097772479057312,-0.9708153009414673,0.1907147318124771,1.2071119546890259,-0.19546601176261902,28.973661422729492,-10.717032432556152,39.33820343017578,0
526,5260082,-0.02360200509428978,-0.0001792191033018753,-0.9940593242645264,0.42827871441841125,1.1816197633743286,-0.8232443332672119,30.837217330932617,-9.211004257202148,40.393489837646484,0
527,5270161,-0.03529665246605873,0.018447699025273323,-1.0272384881973267,0.5835601091384888,0.060564085841178894,-0.6635658144950867,28.724525451660156,-10.730621337890625,40.78654861450195,0
528,5279810,0.005075025372207165,-0.018425995483994484,-0.9648337960243225,0.8730183839797974,0.07401911914348602,0.34226495027542114,30.342233657836914,-9.592351913452148,39.765594482421875,0
529,5290114,0.035147424787282944,-0.05725564807653427,-0.9994984269142151,-0.04413120076060295,-0.519837498664856,-0.16946201026439667,30.671688079833984,-9.371495246887207,41.725860595703125,0
530,5299814,0.03789585828781128,-0.013959388248622417,-0.9711132645606995,-0.813412070274353,0.6097415685653687,-0.3614853322505951,30.717439651489258,-9.062541961669922,40.223602294921875,0
531,5309976,-0.04536112770438194,-0.0009202463552355766,-0.9860643148422241,0.10631474107503891,0.2512752115726471,-0.11361665278673172,29.193740844726562,-8.095043182373047,40.12907409667969,0
532,5320276,0.07939612865447998,-0.013708631508052349,-0.9888398051261902,-0.09941583126783371,-1.0037559270858765,-0.679360032081604,30.893211364746094,-8.265301704406738,39.41104507446289,0
533,5330192,-0.042659610509872437,0.09949962794780731,-1.0068447589874268,0.020381413400173187,-0.5150839686393738,0.9373166561126709,29.931819915771484,-11.491226196289062,37.54154586791992,0
534,5339944,-0.0004364747437648475,0.016375286504626274,-0.9756055474281311,1.0984272956848145,-0.16605663299560547,-0.08654175698757172,29.677526473999023,-10.571255683898926,39.954593658447266,0
535,5349939,0.03606075793504715,-0.0018052724190056324,-0.9828031063079834,0.37088727951049805,0.5467016100883484,-0.4807882010936737,30.47429656982422,-9.323229789733887,39.21034240722656,0
536,5359850,-0.0003389645426068455,0.011562553234398365,-1.0066111087799072,-0.09527689218521118,0.14864543080329895,-0.0896376520395279,28.244943618774414,-9.83485221862793,39.53374099731445,0
537,5370026,0.008616426028311253,0.03378580883145332,-0.9711788296699524,-0.5222219824790955,-0.18167611956596375,0.005994665436446667,31.983200073242188,-9.720702171325684,41.67721939086914,0
538,5379967,0.012003404088318348,-0.05511271953582764,-1.0464887619018555,0.5649793744087219,-0.5738704204559326,-0.7607739567756653,31.54454231262207,-12.354455947875977,38.99605941772461,0
539,5390219,-0.03874868527054787,-0.013601620681583881,-0.9949902892112732,0.6709465980529785,-0.6962577700614929,-0.7090681791305542,30.572980880737305,-10.77037239074707,41.32743453979492,0
540,5400004,0.00020510365720838308,-0.059736739844083786,-0.9878488779067993,0.06595954298973083,-0.42511317133903503,0.4651172161102295,29.96994972229004,-8.589179039001465,39.112403869628906,0
541,5409867,0.053026437759399414,-0.03577679768204689,-1.0049591064453125,-1.0845810174942017,0.5223668813705444,0.28561872243881226,28.881155014038086,-10.069446563720703,41.311798095703125,0
542,5419943,-0.08858642727136612,-0.004784428048878908,-1.040121078491211,-0.1466071754693985,-1.3670411109924316,-0.2663634419441223,28.925281524658203,-10.30052375793457,38.63331604003906,0
543,5429982,-0.05392580106854439,-0.021628860384225845,-1.0220264196395874,0.1579434871673584,-0.03532904386520386,-0.49142107367515564,29.648115158081055,-9.67471694946289,40.49024963378906,0
544,5440087,0.03520587831735611,-0.03358239680528641,-1.0234386920928955,0.21084925532341003,-0.3858211636543274,0.4754207134246826,29.95474624633789,-10.470537185668945,39.485530853271484,0
545,5450342,-0.010144578292965889,-0.04718748480081558,-1.0281726121902466,-0.3829997777938843,0.6513087153434753,1.091253399848938,29.600013732910156,-12.217011451721191,40.19444274902344,0
546,5459955,0.0022721325512975454,-0.03432496264576912,-1.022233486175537,-1.0176819562911987,1.2614619731903076,0.23328790068626404,29.996746063232422,-9.396941184997559,41.737518310546875,0
547,5470498,0.01141135860234499,-0.014544809237122536,-0.9807081818580627,-0.4941262900829315,0.9513536691665649,0.16946549713611603,29.41895294189453,-10.55655574798584,39.59184265136719,0
548,5480038,-0.06333193928003311,-0.0156844649463892,-1.0092865228652954,-0.40028896927833557,-0.707555890083313,0.7734769582748413,29.741191864013672,-10.089284896850586,40.089107513427734,0
549,5489972,-0.01190620381385088,0.050915587693452835,-1.0165526866912842,-0.35759279131889343,-0.15324297547340393,-0.16729311645030975,30.916898727416992,-9.852147102355957,39.1030387878418,0
550,5500087,0.04647423326969147,0.016330774873495102,-1.0204168558120728,-0.2878420054912567,0.5274574756622314,-0.895321249961853,30.476184844970703,-8.839086532592773,39.62387466430664,0
551,5510372,-0.07430872321128845,-0.02194824069738388,-1.0145068168640137,0.285502552986145,0.18325170874595642,-0.910261869430542,31.151479721069336,-9.366469383239746,40.177982330322266,0
552,5520022,0.04007736220955849,0.03314157947897911,-0.9770991802215576,0.8897278308868408,-0.05260370671749115,0.0822218582034111,29.86363983154297,-10.904046058654785,40.21676254272461,0
553,5530036,0.02413385547697544,-0.006902220658957958,-1.002436876296997,-0.44355595111846924,-0.5717407464981079,-0.79311603307724,29.3533878326416,-11.106609344482422,39.47829818725586,0
554,5539925,-0.03502717614173889,-0.03762585669755936,-1.020348072052002,-0.017209773883223534,-1.5316162109375,0.5583898425102234,28.97603988647461,-12.481037139892578,40.26500701904297,0
555,5549933,-0.09177114069461823,-0.002001512795686722,-0.9862138628959656,0.2908947169780731,-0.2749165892601013,0.46095407009124756,31.016674041748047,-9.01368236541748,40.57516098022461,0
556,5560036,0.05039176717400551,0.06348858028650284,-0.9961337447166443,-0.2990635931491852,-0.43468931317329407,-0.821315348148346,30.14857292175293,-9.111441612243652,39.6328010559082,0
557,5570021,0.04771416261792183,-0.02101338468492031,-1.0044050216674805,-0.00019312290532980114,0.6719080805778503,0.20043671131134033,30.88487434387207,-11.165823936462402,38.726524353027344,0
558,5579878,-0.0393497496843338,0.061789724975824356,-1.0414526462554932,-0.19635890424251556,-0.5851297974586487,-0.07824960350990295,30.834537506103516,-10.223371505737305,40.702754974365234,0
559,5589864,0.0009440729627385736,0.05874615162611008,-1.0461446046829224,-0.22025257349014282,-0.06142176315188408,-0.023763911798596382,31.316259384155273,-9.301669120788574,40.7229118347168,0
560,5599692,0.12145636975765228,-0.029457667842507362,-0.9983049631118774,0.7558161020278931,0.9055221676826477,0.19612278044223785,29.16407012939453,-9.50455379486084,41.10871505737305,0
561,5610110,-0.05897131934762001,0.057758741080760956,-0.9950211644172668,0.4657074809074402,0.08818457275629044,0.30075347423553467,29.153301239013672,-11.360028266906738,39.375125885009766,0
562,5619891,0.040403906255960464,0.034577976912260056,-1.0441607236862183,-0.02898809127509594,0.4058188498020172,-0.06706736981868744,29.635990142822266,-8.987548828125,40.66915512084961,0
563,5630195,-0.03994395583868027,-0.042756255716085434,-0.9958004951477051,-0.20116804540157318,-0.759902834892273,0.41587570309638977,30.60962677001953,-12.030649185180664,40.66670227050781,0
564,5640110,0.10574358701705933,-0.021957790479063988,-1.012406587600708,-0.2892380356788635,0.3023955821990967,-0.22319115698337555,28.107051849365234,-10.381387710571289,41.98960876464844,0
565,5650065,-0.0540183000266552,0.09240899235010147,-1.0139961242675781,-0.4170355498790741,-0.2900536358356476,0.6039571762084961,30.3498477935791,-8.79355239868164,40.73957824707031,0
566,5659665,-0.06820984184741974,0.0014276065630838275,-1.0122039318084717,0.3830268383026123,1.14739191532135,0.04861678555607796,30.84320831298828,-9.99145793914795,41.99091720581055,0
567,5670014,-0.028780406340956688,0.08381907641887665,-0.985556960105896,-0.6287586092948914,0.47802308201789856,-0.32724064588546753,31.594682693481445,-10.506206512451172,39.311397552490234,0
568,5679832,0.05019102990627289,0.020828694105148315,-1.0066288709640503,0.4182663559913635,-0.06808313727378845,0.5573776364326477,28.837139129638672,-9.35197639465332,41.24976348876953,0
569,5690084,0.030480986461043358,0.06815291941165924,-0.9943841695785522,0.6545156240463257,-0.4421384036540985,-0.6274274587631226,30.04759979248047,-11.437541007995605,40.986351013183594,0
570,5699803,0.03092453069984913,-0.00986422412097454,-0.9879356622695923,0.31601661443710327,0.9394463300704956,-0.7232872843742371,29.296180725097656,-10.174955368041992,40.61541748046875,0
571,5709827,-0.12556184828281403,0.009611918590962887,-0.9716880321502686,0.14716418087482452,0.46375009417533875,-0.889847993850708,29.360490798950195,-8.58696460723877,39.6466064453125,0
572,5719914,-0.01352779008448124,-0.0715053528547287,-1.0093873739242554,0.25007015466690063,-0.6498138308525085,-1.0549322366714478,28.839391708374023,-8.291385650634766,38.72331237792969,0
573,5729894,-0.07078598439693451,-0.011392534710466862,-1.0424573421478271,0.7349730134010315,-0.5142661929130554,-0.11514367908239365,28.0628719329834,-9.376851081848145,39.170509338378906,0
574,5739968,0.04613642394542694,-0.07379493862390518,-1.0115066766738892,0.12481853365898132,-0.4356476962566376,-0.053567491471767426,29.1103572845459,-9.534661293029785,40.19328308105469,0
575,5750009,0.012442037463188171,0.09595855325460434,-0.9819256067276001,-0.17405547201633453,0.14560677111148834,0.2670329511165619,30.783245086669922,-10.896796226501465,41.230064392089844,0
576,5760025,0.11899689584970474,0.007721072994172573,-0.9786457419395447,0.10658849030733109,-1.6177970170974731,0.606074869632721,28.902647018432617,-9.930293083190918,41.00102996826172,0
577,5769660,-0.02953343838453293,0.018174266442656517,-1.004791021347046,0.28803732991218567,-0.1876067966222763,-0.09120899438858032,29.050321578979492,-9.936514854431152,39.39463806152344,0
578,5780085,0.030125843361020088,-0.04327084869146347,-1.01546311378479,0.0004966394626535475,0.23684534430503845,-0.4463713765144348,29.226032257080078,-9.441984176635742,40.14318084716797,0
579,5789870,0.007170768454670906,0.012278223410248756,-0.983073353767395,0.22578047215938568,-0.3034030497074127,0.1887131929397583,30.54676628112793,-11.132378578186035,38.467384338378906,0
580,5799817,-0.028705503791570663,0.036298271268606186,-0.9887922406196594,0.5997453331947327,-0.3887193500995636,0.9020272493362427,29.993162155151367,-9.897242546081543,39.76211929321289,0
581,5809915,0.09702162444591522,0.10809805989265442,-1.029373049736023,-0.19942724704742432,-0.3467504382133484,0.7739784717559814,29.142465591430664,-8.939990997314453,39.09391403198242,0
582,5819968,-0.01954125426709652,0.003126065246760845,-1.0044045448303223,0.5768770575523376,-0.46750688552856445,-0.4039338231086731,28.988996505737305,-10.450770378112793,39.82554244995117,0
583,5829817,-0.0004685710009653121,0.03522484749555588,-1.0108095407485962,-0.23303720355033875,-0.028709018602967262,-0.08116818219423294,30.675193786621094,-9.410717964172363,38.360511779785156,0
584,5839945,0.026172414422035217,0.03580113872885704,-0.9974855184555054,0.5875250697135925,0.34764525294303894,0.22161659598350525,29.63968849182129,-11.103873252868652,37.2710075378418,0
585,5850120,0.0012725453125312924,-0.1286626160144806,-1.0196235179901123,-0.44987744092941284,0.03852193057537079,-0.32006314396858215,30.02654266357422,-8.204137802124023,40.79450607299805,0
586,5859958,0.016336016356945038,-0.02183292992413044,-1.0140807628631592,-0.15579551458358765,-0.37318137288093567,-0.2891610264778137,28.41905403137207,-10.481084823608398,38.580322265625,0
587,5870153,0.029231389984488487,0.05321914330124855,-0.9728353023529053,0.1804111897945404,0.26426687836647034,-0.6567389965057373,30.402912139892578,-10.335859298706055,39.61659240722656,0
588,5879927,-0.04632261395454407,-0.025010287761688232,-1.004590392112732,-0.3709832727909088,0.7083420157432556,-0.47136712074279785,30.528730392456055,-10.075894355773926,38.55522537231445,0
589,5889765,0.03914480283856392,-0.01806160807609558,-0.9825382828712463,0.6747549176216125,0.10337291657924652,-0.25833073258399963,31.197595596313477,-10.66650390625,39.50487518310547,0
590,5899999,-0.02318514883518219,-0.037932269275188446,-0.9981178641319275,0.23411481082439423,0.008011799305677414,0.20720019936561584,31.049036026000977,-12.869848251342773,39.17679214477539,0
591,5910064,0.10065446048974991,0.04904564470052719,-1.0116961002349854,-0.0592997781932354,-0.6806625723838806,0.1608961522579193,33.06144714355469,-10.592985153198242,39.828086853027344,0
592,5919928,-0.048119183629751205,0.049201373010873795,-0.9975349307060242,0.5737292170524597,0.3561686873435974,-0.6315178275108337,31.08188819885254,-9.46077823638916,39.44090270996094,0
593,5930021,0.09910346567630768,-0.10648702830076218,-0.9965400099754333,0.16374102234840393,-0.7817285656929016,0.5390664339065552,30.350820541381836,-9.556483268737793,40.5904541015625,0
594,5939887,-0.018223116174340248,0.005097592249512672,-0.9569696187973022,1.0272455215454102,0.05310459062457085,-0.6744185090065002,29.683244705200195,-11.44915771484375,40.59747314453125,0
595,5950254,-0.07381192594766617,-0.03594810515642166,-0.9726482033729553,-0.004005311988294125,0.7628408074378967,0.28044548630714417,29.33154296875,-10.557145118713379,38.86052703857422,0
596,5959990,-0.01177331991493702,0.08495888113975525,-1.0160051584243774,-0.2821544110774994,0.49426284432411194,-0.05025786533951759,31.00210952758789,-10.584615707397461,39.717838287353516,0
597,5970026,0.01314997673034668,-0.09914059937000275,-1.0106487274169922,0.7280882000923157,-1.0224461555480957,-0.2676185965538025,29.537004470825195,-10.414522171020508,39.705841064453125,0
598,5979889,-0.007907085120677948,-0.023041896522045135,-0.9892401099205017,0.0903964415192604,1.1275008916854858,0.41253969073295593,30.432985305786133,-10.92545223236084,38.938621520996094,0
599,5990063,0.04268529266119003,-0.005912192165851593,-0.9943245053291321,-0.3062622845172882,-0.4954191744327545,-0.15415377914905548,29.147218704223633,-10.571253776550293,38.26941680908203,0
600,6000029,-0.0048610614612698555,0.03181688115000725,-0.9760539531707764,-0.07058878988027573,0.6926349401473999,-0.8148454427719116,29.061079025268555,-11.404557228088379,40.54233932495117,0
601,6010026,-0.04616278409957886,-0.025565175339579582,-0.9858338832855225,0.15444087982177734,-0.39086541533470154,-0.6706728935241699,30.255998611450195,-9.785087585449219,39.36899185180664,0
602,6019996,0.04218731448054314,-0.03406064212322235,-0.9923956990242004,0.418334037065506,0.30712899565696716,-0.3543878495693207,29.431259155273438,-9.038268089294434,40.87955856323242,0
603,6029983,-0.062005847692489624,0.056007057428359985,-1.0074273347854614,0.6082093119621277,0.8278672695159912,0.3831954300403595,28.057035446166992,-7.486572742462158,39.739994049072266,0
604,6040060,-0.04501079395413399,-0.014943516813218594,-0.9881147742271423,-0.36932212114334106,-0.8409060835838318,0.4774326682090759,29.005645751953125,-9.739389419555664,39.97542190551758,0
605,6050169,-0.0680093914270401,0.00935088936239481,-1.0329797267913818,-0.017781371250748634,-0.34058529138565063,-0.009399752132594585,29.273452758789062,-10.146080017089844,41.83375930786133,0
606,6060115,-0.020695548504590988,0.005457099061459303,-1.005910873413086,-0.5689338445663452,0.30320683121681213,0.3826993405818939,28.555891036987305,-10.302162170410156,40.949493408203125,0
607,6069743,0.03777144104242325,0.11767799407243729,-0.981319010257721,-0.06955940276384354,0.029033010825514793,0.23820272088050842,30.459794998168945,-10.459268569946289,42.4650764465332,0
608,6080006,0.03656856715679169,0.05619543418288231,-1.0004159212112427,0.014894193038344383,0.5868313908576965,0.5059629082679749,29.892210006713867,-8.78857135772705,39.00940704345703,0
609,6089967,0.050239574164152145,-0.02623486891388893,-0.9508554339408875,0.1277613341808319,-0.2562662363052368,-0.6946491003036499,30.039892196655273,-9.185726165771484,39.20799255371094,0
610,6099876,-0.015273956581950188,-0.08025617897510529,-1.0056178569793701,-0.032323017716407776,-0.21980568766593933,-1.1481451988220215,29.6943416595459,-8.990264892578125,38.29704666137695,0
611,6109791,0.03051592968404293,0.05683458596467972,-1.0168132781982422,0.009968907572329044,-0.2261361926794052,-0.01466783881187439,28.32999038696289,-11.461694717407227,40.096561431884766,0
612,6120022,0.046307191252708435,0.026281772181391716,-1.0045136213302612,0.0609416663646698,0.07947871834039688,0.1361321061849594,30.548274993896484,-9.976655960083008,40.469390869140625,0
613,6129835,-0.10364703088998795,1.1544667358975857e-05,-0.9722467064857483,0.7962092757225037,0.1925903856754303,-0.17516346275806427,30.051576614379883,-10.874771118164062,40.87138366699219,0
614,6140016,0.04028500244021416,-0.04176759719848633,-1.0374977588653564,0.5614734888076782,0.6192342042922974,-0.8756875991821289,29.964502334594727,-10.01907730102539,39.08766555786133,0
615,6149953,0.0637497827410698,0.012711440213024616,-0.9937426447868347,0.0695236474275589,0.8625233173370361,0.10463929176330566,29.957143783569336,-10.063179016113281,40.64906692504883,0
616,6159887,-0.009456080384552479,0.07151617109775543,-0.9901214241981506,0.3079124689102173,0.19709523022174835,-0.49508991837501526,30.706085205078125,-11.379179954528809,41.48478698730469,0
617,6169947,0.025879276916384697,0.04821214824914932,-0.9888573288917542,-0.2589249610900879,0.04025471210479736,-0.5435509085655212,29.02632713317871,-10.262048721313477,40.24106216430664,0
618,6179857,0.015659630298614502,0.1053057387471199,-1.0067764520645142,-0.6454241275787354,0.3446028232574463,-0.19661732017993927,29.66764259338379,-11.193798065185547,39.7153434753418,0
619,6190093,-0.0013491379795596004,-0.002621422056108713,-0.9720091223716736,0.5457550287246704,-0.37954622507095337,-0.7883421182632446,29.40309715270996,-9.85544204711914,39.682212829589844,0
620,6199925,0.08758950978517532,0.025768984109163284,-0.9625901579856873,-1.2408173084259033,0.002182982163503766,0.1264333724975586,29.75778579711914,-9.548847198486328,40.0892448425293,0
621,6210133,-0.00353955733589828,0.027332989498972893,-0.9807320833206177,0.1066349595785141,-0.7887160181999207,-0.4097527861595154,29.91702651977539,-10.807291030883789,40.42261505126953,0
622,6220065,-0.09120894968509674,0.028544899076223373,-0.9953517317771912,-0.09847773611545563,0.282198429107666,0.4216931462287903,30.366897583007812,-9.403094291687012,39.97935104370117,0
623,6229846,0.07941202819347382,-0.10607858002185822,-0.9953385591506958,0.14408749341964722,0.1036323755979538,-0.1831403374671936,29.288888931274414,-11.92431640625,40.398075103759766,0
624,6240292,0.004310912918299437,0.019260847941040993,-1.0154057741165161,0.14748580753803253,0.2630045711994171,0.7917906641960144,29.203601837158203,-9.902106285095215,38.41871643066406,0
625,6250182,0.0295865535736084,-0.043113384395837784,-1.0138572454452515,-0.7517945766448975,-0.8843415975570679,0.5395441651344299,30.09344482421875,-10.661760330200195,39.748069763183594,0
626,6259905,0.07962816208600998,-0.033507440239191055,-1.0062036514282227,0.8553506731987,-0.03793317824602127,-0.405409038066864,29.695266723632812,-11.413617134094238,39.651039123535156,0
