seq,time_us,ax,ay,az,gx,gy,gz,mx,my,mz,drop_flag
0,70,0.041444290429353714,-0.007398928049951792,-0.9901163578033447,0.42520126700401306,-0.33003970980644226,-0.3489348590373993,30.782419204711914,-10.576221466064453,42.2806510925293,0
1,9780,-0.03622054681181908,-0.031499866396188736,-0.9826346635818481,0.470482736825943,0.5685814023017883,0.5800552368164062,32.39411544799805,-10.612724304199219,39.75912857055664,0
2,19969,-0.004866998177021742,0.0309147872030735,-0.9979888796806335,-0.6422260403633118,-0.16485486924648285,-0.03264841064810753,29.14957618713379,-9.40368366241455,39.64436340332031,0
3,29968,-0.005369184073060751,0.03342452272772789,-0.9867814779281616,0.19711270928382874,-0.8193767666816711,-0.9225717186927795,29.754173278808594,-13.594552040100098,40.17459487915039,0
4,39937,-0.0652085691690445,-0.0821571946144104,-1.0087658166885376,-0.1142088919878006,-0.008979425765573978,0.1925046592950821,31.230998992919922,-7.682473659515381,40.58196258544922,0
5,50146,-0.01634303666651249,-0.04231509938836098,-1.0095279216766357,0.23006580770015717,0.13558651506900787,-0.8440884351730347,28.67753791809082,-10.787736892700195,41.06747817993164,0
6,60021,0.023355785757303238,0.04428248107433319,-1.022178053855896,-0.3529532253742218,0.23772837221622467,1.0121850967407227,30.153833389282227,-9.839598655700684,40.30929183959961,0
7,70228,0.05217047780752182,-0.051814351230859756,-1.0314722061157227,-1.0611824989318848,0.4467702805995941,0.34821009635925293,29.10666275024414,-10.431407928466797,40.72068405151367,0
8,80148,0.08151843398809433,0.04993145167827606,-0.9753495454788208,-0.5551607012748718,-0.16550961136817932,0.47476524114608765,29.563434600830078,-9.464812278747559,38.77766418457031,0
9,89701,0.026555471122264862,0.06757806986570358,-0.9843572974205017,-0.15030460059642792,0.12031368911266327,-0.4592900574207306,29.225542068481445,-11.586196899414062,40.61090087890625,0
10,100007,-0.012718022800981998,-0.07283631712198257,-0.9910946488380432,1.0595027208328247,-0.3737722933292389,-0.12429295480251312,30.817832946777344,-8.92772388458252,41.3488883972168,0
11,109885,-0.010784759186208248,-0.12572267651557922,-1.0343420505523682,0.31477320194244385,-0.006340019404888153,0.28733962774276733,29.780471801757812,-9.444066047668457,40.26484298706055,0
12,119632,-0.046144235879182816,-0.10064364224672318,-0.9884780645370483,0.6089211702346802,0.017876381054520607,-0.1664876937866211,30.47196388244629,-11.044561386108398,40.29991149902344,0
13,130043,0.13040791451931,-0.06692978739738464,-0.9973687529563904,0.10069777816534042,-0.8270290493965149,0.9166261553764343,29.29151725769043,-9.696090698242188,39.867374420166016,0
14,139969,0.08111827075481415,-0.050538789480924606,-1.0152374505996704,0.45863449573516846,-0.09454121440649033,0.110610730946064,28.752920150756836,-10.299551963806152,40.33039093017578,0
15,149917,-0.040680594742298126,-0.004914000164717436,-0.9981021881103516,1.0395262241363525,-0.1945839822292328,-0.009358508512377739,30.5179500579834,-10.231260299682617,40.462364196777344,0
16,159883,0.034384455531835556,-0.05212315171957016,-1.0214923620224,0.21932139992713928,0.5027794241905212,-0.05199846997857094,30.458744049072266,-10.609286308288574,38.84563446044922,0
17,169860,0.04926964268088341,0.05556224659085274,-0.9965698719024658,-0.2513309121131897,0.2512262463569641,0.48632723093032837,29.59377098083496,-9.256966590881348,39.82481002807617,0
18,180023,-0.044913552701473236,0.10923177748918533,-1.0370748043060303,-0.5259770154953003,0.17913146317005157,0.31901901960372925,29.39712905883789,-12.11478042602539,39.8275146484375,0
19,190166,-0.018465397879481316,0.02807006984949112,-0.9662484526634216,0.048029717057943344,0.33386704325675964,0.6083825826644897,29.414257049560547,-10.7206449508667,37.58354568481445,0
20,199922,-0.045442696660757065,-0.032496098428964615,-1.0154842138290405,-0.904181957244873,0.0810004249215126,-0.04406668245792389,30.19019889831543,-9.275430679321289,39.56572341918945,0
21,209932,0.01393129676580429,-0.07276619970798492,-1.0160176753997803,-0.4707779288291931,-0.5948566794395447,1.067999005317688,29.5859432220459,-10.815675735473633,38.624271392822266,0
22,220155,0.04684730991721153,0.030166391283273697,-0.9629160761833191,0.6390662789344788,-0.6802677512168884,-0.6594066619873047,29.46728515625,-9.099817276000977,37.70276641845703,0
23,230206,0.001384702161885798,0.04959763213992119,-1.0096157789230347,-0.12568630278110504,-0.9469025731086731,0.5456206798553467,29.755870819091797,-9.92563247680664,36.226524353027344,0
24,239857,-0.042418014258146286,-0.029264288023114204,-0.9804229736328125,-0.3629894256591797,0.7790236473083496,0.4451438784599304,30.38567352294922,-10.851484298706055,39.002933502197266,0
25,250054,0.00928299967199564,0.0022408722434192896,-1.0174568891525269,-0.001782202860340476,-0.1595882773399353,-1.473454236984253,28.42048454284668,-10.021954536437988,39.40060806274414,0
26,259886,-0.06204332038760185,0.01667899638414383,-1.0396995544433594,-0.15872646868228912,-0.568282425403595,0.9857138395309448,32.23774337768555,-8.823511123657227,41.041263580322266,0
27,269988,-0.02777055837213993,0.007620563730597496,-0.9840878248214722,0.9528496861457825,-0.06825541704893112,0.6536238193511963,29.2034854888916,-8.158190727233887,40.53949737548828,0
28,280099,0.058723434805870056,0.03345085680484772,-1.0129139423370361,0.3279576301574707,0.2838088870048523,0.2816098928451538,30.15057945251465,-9.15719223022461,40.19406509399414,0
29,290306,-0.025145618245005608,0.03874850645661354,-0.9983224272727966,-0.9707583785057068,0.5371862053871155,0.298814058303833,32.60908508300781,-9.787035942077637,37.28102493286133,0
30,299992,-0.05565885454416275,0.01803501322865486,-0.985002338886261,-0.36963146924972534,-0.7227481007575989,0.16144604980945587,31.7285213470459,-10.101540565490723,39.54941177368164,0
31,310378,0.039587389677762985,0.04229143634438515,-1.0063135623931885,0.3747839629650116,0.1002902165055275,0.6073470115661621,30.744606018066406,-10.968358993530273,37.884376525878906,0
32,319663,-0.028615770861506462,0.048126962035894394,-1.0365787744522095,-0.5896823406219482,-1.0672075748443604,-0.44031667709350586,31.66546630859375,-10.219674110412598,39.116416931152344,0
33,329999,0.02708694525063038,0.030823830515146255,-1.027740716934204,0.5932524800300598,-0.0049642538651824,0.4648994505405426,30.136066436767578,-7.963603973388672,42.11429977416992,0
34,340059,0.07911086082458496,-0.04412517324090004,-0.9991586208343506,-0.20812959969043732,-0.4316372573375702,0.5812675356864929,30.84674835205078,-10.096213340759277,41.331520080566406,0
35,350124,-0.03885052353143692,-0.07208890467882156,-0.9750412106513977,0.0008285591029562056,0.5934655070304871,-0.26110315322875977,30.214067459106445,-12.399476051330566,38.481544494628906,0
36,359982,-0.010515266098082066,-0.0541926808655262,-1.0041333436965942,0.07710041105747223,-0.37650078535079956,0.1823863685131073,29.50516700744629,-8.839850425720215,39.82658767700195,0
37,369900,-0.040580373257398605,0.04587749019265175,-1.0377295017242432,-0.15628209710121155,-0.22265703976154327,0.28990739583969116,31.538816452026367,-11.232504844665527,40.125282287597656,0
38,379905,0.02917860634624958,-0.008797230198979378,-0.9998188614845276,-0.6969454884529114,-0.2565184235572815,0.4855177104473114,30.2763614654541,-8.588347434997559,41.151161193847656,0
39,389945,0.043021176010370255,-0.05967022851109505,-1.0191470384597778,-0.48862847685813904,0.1660720854997635,-1.4605261087417603,29.69260025024414,-9.610060691833496,39.832759857177734,0
40,399937,-0.02907981164753437,0.02109542302787304,-0.9891716837882996,0.26175177097320557,0.8320724368095398,-0.4925590753555298,29.308624267578125,-10.292781829833984,40.75705337524414,0
41,410056,0.034993335604667664,-0.08032218366861343,-1.018497347831726,-0.21410053968429565,0.7363861799240112,0.2649683654308319,30.098379135131836,-9.340203285217285,41.00226593017578,0
42,419948,0.07940733432769775,0.04302190616726875,-1.0562814474105835,0.6768681406974792,1.157029628753662,-0.6337717175483704,31.1832218170166,-11.240756034851074,40.115760803222656,0
43,429840,-0.003916471730917692,0.006064218003302813,-1.010722279548645,1.0975171327590942,0.3333137333393097,0.08060277998447418,28.909423828125,-10.007674217224121,40.101036071777344,0
44,440100,0.006743807811290026,0.020603680983185768,-1.0159639120101929,-0.13106171786785126,0.536786675453186,-0.03775227069854736,29.935302734375,-11.082794189453125,40.7404899597168,0
45,450144,0.010189918801188469,0.0014734664000570774,-0.9609773755073547,-0.6901413798332214,-1.6244076490402222,-0.17942377924919128,29.138574600219727,-10.704644203186035,39.00331497192383,0
46,459985,0.07614560425281525,0.02535255067050457,-1.055435061454773,0.44112053513526917,-0.8952486515045166,0.7611305713653564,29.728607177734375,-8.87358570098877,40.12666320800781,0
47,469736,-0.026744844391942024,0.0016362430760636926,-1.0202162265777588,0.19242341816425323,-0.23548154532909393,-0.5168152451515198,30.190288543701172,-10.5073823928833,39.462867736816406,0
48,480240,-0.0027081884909421206,0.08186928927898407,-0.9752469062805176,1.0933096408843994,1.0075680017471313,0.6840767860412598,31.232065200805664,-10.488764762878418,41.18778610229492,0
49,489790,0.027124958112835884,-0.007136650383472443,-0.9872080683708191,-0.8176026940345764,0.004865499213337898,1.2437150478363037,30.16305923461914,-8.452264785766602,41.635887145996094,0
50,499975,0.09976758062839508,0.08645316958427429,-1.002082109451294,-0.10604535788297653,0.4324069321155548,0.3946380913257599,33.003326416015625,-10.30844497680664,39.84101104736328,0
51,509871,0.007481591776013374,-0.009620393626391888,-1.0043580532073975,-0.1902107149362564,-0.36856719851493835,1.0722657442092896,30.441259384155273,-9.13635540008545,39.511966705322266,0
52,520175,0.05232531949877739,-0.01961861178278923,-0.986315131187439,0.09754359722137451,0.6411600112915039,0.49931254982948303,31.218692779541016,-9.0484619140625,40.82207107543945,0
53,530314,0.02169002965092659,0.02644922025501728,-1.0331043004989624,0.6974401473999023,-0.55729740858078,0.8295790553092957,27.451364517211914,-10.35838508605957,40.50847625732422,0
54,539772,-0.015782779082655907,0.016996851190924644,-0.9856287837028503,-0.09603269398212433,-1.1300179958343506,0.06449417769908905,30.397920608520508,-10.691848754882812,39.25449752807617,0
55,549819,0.07030355930328369,-0.002127557061612606,-0.9692712426185608,0.1400289088487625,0.33937299251556396,-0.3533191382884979,30.847904205322266,-9.584888458251953,38.955509185791016,0
56,559998,-0.06620068848133087,-0.035941772162914276,-1.0255491733551025,-0.4417465627193451,0.19252389669418335,-0.015609405003488064,29.207014083862305,-9.042728424072266,40.724056243896484,0
57,569855,0.022635918110609055,0.02757234126329422,-1.0336885452270508,-0.14654892683029175,-0.4007478952407837,-0.1302645355463028,30.986841201782227,-10.071830749511719,39.13850784301758,0
58,579965,0.07308577001094818,0.008226057514548302,-1.0317020416259766,0.35145097970962524,-0.5898749232292175,0.42600059509277344,30.889142990112305,-10.833171844482422,40.557716369628906,0
59,589795,-0.0571632981300354,0.03812072053551674,-0.9807023406028748,-0.22039075195789337,-0.3111379146575928,0.5885370373725891,28.869861602783203,-9.754481315612793,39.94473648071289,0
60,600013,0.07773515582084656,-0.015197422355413437,-0.9902773499488831,0.3809911608695984,-0.38943761587142944,-0.04855068400502205,30.06039047241211,-10.960177421569824,41.465118408203125,0
61,610329,0.040528301149606705,0.024585280567407608,-1.0190494060516357,0.8678176403045654,-0.35288214683532715,-0.5213569402694702,31.350194931030273,-10.686391830444336,40.08055114746094,0
62,619832,-0.04727527126669884,-0.03764108940958977,-1.011643886566162,0.023129591718316078,-0.6337999105453491,-1.4629958868026733,28.431013107299805,-11.888090133666992,39.65116500854492,0
63,629949,-0.09291914105415344,0.08013281226158142,-1.010259747505188,0.6086622476577759,-0.00048047059681266546,0.013027402572333813,29.756877899169922,-9.862256050109863,39.68715286254883,0
64,639898,-0.03204642981290817,-0.08699600398540497,-0.9904279708862305,-0.7418277263641357,0.4736509323120117,-0.07267159968614578,30.47576332092285,-9.661813735961914,41.1160774230957,0
65,650088,-0.021715901792049408,-0.035342004150152206,-1.0200275182724,0.11958860605955124,-0.0397016741335392,0.31943345069885254,29.21476936340332,-10.714754104614258,39.34917068481445,0
66,659942,0.007408012170344591,-0.024625210091471672,-0.9885010123252869,0.0872214287519455,-0.8055238723754883,0.5936228036880493,29.5320987701416,-10.678510665893555,40.67234802246094,0
67,670136,0.01883259415626526,-0.014211896806955338,-1.0190881490707397,-0.24289312958717346,-0.14549092948436737,0.19060350954532623,29.368703842163086,-10.889130592346191,39.65213394165039,0
68,679913,-0.0617450587451458,0.014418653212487698,-1.0351887941360474,-0.02153075486421585,-0.16822123527526855,0.9465569257736206,29.805648803710938,-8.948780059814453,39.88065719604492,0
69,690071,-0.06443198025226593,-0.012084763497114182,-0.9860654473304749,0.5060141086578369,-0.2936256229877472,-0.252987265586853,30.735567092895508,-8.930986404418945,40.69069290161133,0
70,700157,0.09873182326555252,0.13001368939876556,-1.0311803817749023,0.2266083061695099,-0.03441121056675911,-0.41751477122306824,29.187053680419922,-11.421998977661133,39.87478256225586,0
71,710132,-0.030159596353769302,0.019466955214738846,-1.0267605781555176,-0.40959659218788147,-0.9303153157234192,-0.5447629690170288,31.05331802368164,-8.73602294921875,38.58742904663086,0
72,720026,0.0371260903775692,-0.03528488799929619,-0.9969380497932434,0.23061347007751465,-0.030301416292786598,0.248562291264534,28.71299171447754,-9.859838485717773,40.23260498046875,0
73,729976,0.02319936454296112,-0.10044361650943756,-1.005253553390503,-0.12852180004119873,-0.16639648377895355,-0.2545908987522125,28.20456314086914,-11.743858337402344,39.07211685180664,0
74,740008,0.00829099491238594,0.07816949486732483,-0.9730021357536316,-0.056789543479681015,0.21089449524879456,0.3173674941062927,30.464765548706055,-10.559958457946777,41.904998779296875,0
75,750048,-0.007799393497407436,0.08159316331148148,-0.9872408509254456,-0.3389667868614197,0.12556599080562592,0.5678328275680542,29.304162979125977,-9.347641944885254,38.75144577026367,0
76,759827,0.016727082431316376,-0.010384125635027885,-1.0266759395599365,0.10803350806236267,0.4849171042442322,-0.17943932116031647,28.73556137084961,-8.635221481323242,38.84180450439453,0
77,770070,0.04555945470929146,-0.09915791451931,-0.9968202710151672,1.1927626132965088,-0.039410073310136795,-0.1479482650756836,27.872880935668945,-10.036081314086914,39.93757629394531,0
78,780064,0.004999472759664059,-0.016428479924798012,-1.0009169578552246,-0.2039615511894226,-1.356817603111267,0.20646291971206665,30.35260009765625,-11.391854286193848,38.528873443603516,0
79,790047,-0.0568830743432045,0.01177007332444191,-0.9693995118141174,0.14983361959457397,-1.178673267364502,0.8520446419715881,28.74624252319336,-10.027359008789062,40.52920150756836,0
80,799531,-0.027321863919496536,-0.043159857392311096,-0.9769013524055481,-0.6891183853149414,0.4747103750705719,0.562279999256134,29.78150749206543,-8.798736572265625,39.46593475341797,0
81,810054,0.004661568906158209,-0.032754383981227875,-0.9948618412017822,0.5369208455085754,-0.006019676569849253,-0.40609946846961975,29.578998565673828,-10.974893569946289,39.613067626953125,0
82,820078,0.017463231459259987,0.008416681550443172,-1.0237815380096436,-0.3878541588783264,-0.5054221153259277,-0.502968966960907,29.315446853637695,-11.969720840454102,39.67397689819336,0
83,829979,-0.0018261801451444626,-0.10808250308036804,-1.0074188709259033,-0.8257672190666199,-0.1306317150592804,1.0229908227920532,29.719921112060547,-9.765443801879883,41.170955657958984,0
84,839729,0.10333042591810226,-0.030578376725316048,-1.0138095617294312,0.16893810033798218,0.0909862071275711,-0.3601929247379303,28.719675064086914,-9.005823135375977,39.24934768676758,0
85,850068,-0.0986298993229866,0.06654675304889679,-0.9966550469398499,0.809441089630127,-0.17079274356365204,0.24592268466949463,29.50676155090332,-8.475947380065918,40.547706604003906,0
86,859944,0.024702025577425957,-0.022023143246769905,-0.9829363226890564,0.0656217634677887,0.14387176930904388,0.4041346311569214,29.87757110595703,-9.991087913513184,39.99947738647461,0
87,869944,0.023326192051172256,-0.04060601815581322,-1.0000269412994385,0.16371306777000427,-0.4244801104068756,0.2517869770526886,29.21350860595703,-11.338883399963379,38.18913650512695,0
88,880150,0.01784410886466503,-0.01564490795135498,-1.0183508396148682,-0.3247178792953491,-0.7456487417221069,0.6418009400367737,29.773290634155273,-9.284793853759766,40.538291931152344,0
89,890009,0.06811180710792542,-0.016823001205921173,-1.001710295677185,0.9693009853363037,-0.14028102159500122,0.5359956622123718,30.006975173950195,-11.303290367126465,40.55939865112305,0
90,900063,0.005658390931785107,0.028206994757056236,-1.0316928625106812,-0.36684122681617737,-0.00954736303538084,0.3934587836265564,29.968244552612305,-11.254776954650879,39.176090240478516,0
91,909926,-0.007385734934359789,0.04790131747722626,-1.025635838508606,0.011745050549507141,-0.10192857682704926,-0.04723166301846504,30.218738555908203,-9.546540260314941,40.362342834472656,0
92,919916,0.030185922980308533,-0.011661619879305363,-1.0407413244247437,-0.7315024733543396,0.0973057895898819,0.35409218072891235,29.566862106323242,-9.302534103393555,39.86796569824219,0
93,930289,0.06703250110149384,0.013700002804398537,-1.0021753311157227,0.4063466787338257,-0.5269872546195984,-0.3368739187717438,29.686246871948242,-9.123382568359375,41.0394287109375,0
94,940044,0.04864891245961189,-0.023396829143166542,-1.001339077949524,0.02895207703113556,0.4847181737422943,-0.2697594165802002,30.56581687927246,-10.713529586791992,38.095516204833984,0
95,950088,0.03650151938199997,0.025850724428892136,-1.0074862241744995,-0.5183640718460083,-1.2792460918426514,-0.5110219717025757,28.872838973999023,-10.19384765625,39.65280532836914,0
96,959957,-0.0861092135310173,0.030328290536999702,-1.0026822090148926,-0.47637954354286194,-0.8396487236022949,-0.6077600717544556,29.609037399291992,-9.2965087890625,41.34244155883789,0
97,970069,0.03691859170794487,0.07791443914175034,-1.004643440246582,0.6938173770904541,0.45064812898635864,0.6868329644203186,28.30648422241211,-9.618205070495605,40.035762786865234,0
98,979986,0.05231788009405136,-0.021848956122994423,-1.0072194337844849,0.30123603343963623,0.3791752755641937,0.018734322860836983,29.073806762695312,-10.308347702026367,41.31306076049805,0
99,989788,-0.05429685115814209,0.03759298473596573,-0.998970091342926,0.5001267194747925,0.2045554518699646,-0.6326208710670471,31.16727638244629,-12.26276969909668,43.11137008666992,0
100,1000380,0.008153299801051617,-0.005869945976883173,-1.013127088546753,-0.7149001955986023,-0.49146780371665955,-0.10701340436935425,28.500755310058594,-9.926228523254395,40.66024398803711,0
101,1010271,-0.010868795216083527,-0.05068449676036835,-1.0342509746551514,-0.3811303377151489,0.44207704067230225,-0.4157957136631012,30.131763458251953,-9.592272758483887,39.423065185546875,0
102,1019990,-0.07277064770460129,-0.006779232528060675,-0.9712876081466675,0.2860373556613922,-0.16204217076301575,-0.3091881275177002,30.260177612304688,-9.964924812316895,41.46453094482422,0
103,1029922,0.03107888251543045,0.04857868701219559,-1.0266635417938232,0.5540918111801147,0.3297249376773834,-0.05100574344396591,31.37864875793457,-9.042864799499512,38.417274475097656,0
104,1040135,-0.02301158383488655,-0.023842738941311836,-0.9584917426109314,-1.042026400566101,0.13799872994422913,-0.3474133014678955,30.342365264892578,-9.802175521850586,40.196746826171875,0
105,1050132,0.089419424533844,-0.03855050355195999,-1.008734107017517,-0.39235395193099976,0.008988501504063606,0.39233407378196716,31.19583511352539,-8.935596466064453,40.32912826538086,0
106,1059865,0.02574160322546959,0.0631754919886589,-0.9912234544754028,0.6184263825416565,0.14913500845432281,-0.14305545389652252,30.285629272460938,-10.164322853088379,40.38884353637695,0
107,1069845,0.06980036944150925,0.054952967911958694,-0.9843132495880127,0.01454838365316391,0.08957446366548538,0.2550622224807739,31.054515838623047,-9.209351539611816,38.56575393676758,0
108,1080210,-0.014735519886016846,-0.026176318526268005,-1.0024827718734741,0.0567215271294117,-0.10814438760280609,-0.34195631742477417,30.013818740844727,-10.681775093078613,39.328369140625,0
109,1090000,0.07954148203134537,-0.020108161494135857,-1.017439842224121,0.012036238797008991,0.49656301736831665,-0.23823851346969604,28.19976043701172,-9.732702255249023,40.815303802490234,0
110,1099914,-0.09697556495666504,0.02451879158616066,-1.008840560913086,0.1991061419248581,0.42678260803222656,-0.2698505222797394,30.64582633972168,-9.28217601776123,40.59359359741211,0
111,1110224,-0.07060545682907104,0.05098182335495949,-1.03520929813385,0.17706140875816345,-0.7642772793769836,0.08144722878932953,30.587902069091797,-9.698687553405762,38.76225662231445,0
112,1119888,-0.03817671537399292,-0.009435523301362991,-1.0001170635223389,0.6053622364997864,-0.14184385538101196,0.12868954241275787,29.289833068847656,-10.193692207336426,38.144126892089844,0
113,1129984,0.047809749841690063,0.04779093340039253,-1.010771632194519,-0.3231365978717804,-0.3981638252735138,-0.3174629211425781,29.025787353515625,-8.614313125610352,40.45732879638672,0
114,1140051,-0.0671808198094368,-0.04992999508976936,-0.999320387840271,-0.35061660408973694,0.3677070736885071,0.10472635179758072,28.094074249267578,-8.199410438537598,39.99347686767578,0
115,1150099,-0.024919716641306877,0.017911482602357864,-1.015048623085022,0.29994723200798035,0.11230187118053436,0.17295533418655396,27.826969146728516,-9.763561248779297,40.726192474365234,0
116,1160145,0.05896119400858879,0.028618570417165756,-0.9878126978874207,0.7020804286003113,0.7633114457130432,-0.16560707986354828,31.53681755065918,-9.196737289428711,39.80989074707031,0
117,1169900,-0.0011952660279348493,-0.061943378299474716,-0.9877554178237915,0.20698139071464539,1.015876293182373,0.34334829449653625,30.464431762695312,-10.815954208374023,39.382991790771484,0
118,1179953,0.00037318890099413693,-0.005125310737639666,-1.0087531805038452,-0.5074024200439453,-0.3362985849380493,0.17054040729999542,30.82457733154297,-10.936412811279297,37.99447250366211,0
119,1190063,0.05113775655627251,-0.0019050224218517542,-0.9786235094070435,-0.24039298295974731,-0.6308352947235107,0.04096156731247902,29.883975982666016,-8.515630722045898,39.9193229675293,0
120,1199976,0.06603400409221649,-0.02000177651643753,-0.9749259948730469,0.18771478533744812,-0.3863504230976105,-0.40351083874702454,29.78944969177246,-8.063225746154785,40.75541687011719,0
121,1209955,0.016759587451815605,-0.04013994708657265,-1.0121567249298096,-0.09353172034025192,-0.28898289799690247,-0.6680979132652283,31.342554092407227,-10.105938911437988,39.97797393798828,0
122,1219919,-0.04919753968715668,0.03992100805044174,-0.9774057865142822,0.140458881855011,0.473308265209198,0.1572251170873642,31.254467010498047,-10.650849342346191,40.641319274902344,0
123,1229827,0.011427194811403751,0.02917367033660412,-0.9960033297538757,-1.1002293825149536,-0.3982490599155426,0.6758642196655273,29.18405532836914,-9.975447654724121,39.08683395385742,0
124,1239906,-0.04086022451519966,-0.03584740310907364,-0.981731653213501,-0.028965087607502937,-0.42300134897232056,-0.37829917669296265,29.180112838745117,-9.958200454711914,38.69530487060547,0
125,1250145,0.07349531352519989,-0.03264952823519707,-1.0071299076080322,-0.08968617022037506,0.7859639525413513,-0.1839330792427063,30.857975006103516,-9.576423645019531,39.50510787963867,0
126,1260063,0.10264895856380463,-0.0675833597779274,-1.0347956418991089,0.4637315571308136,-0.8179328441619873,-0.9243809580802917,28.402673721313477,-10.912894248962402,39.535823822021484,0
127,1270015,-0.003840291639789939,-0.009475254453718662,-0.9833091497421265,-0.27407240867614746,0.10086829215288162,0.9151111245155334,31.43242835998535,-9.186230659484863,38.179412841796875,0
128,1280069,0.02337612956762314,0.05738520249724388,-1.0284368991851807,0.24123212695121765,0.24031005799770355,0.3055248260498047,30.17971420288086,-9.643798828125,40.919654846191406,0
129,1289840,-0.06607337296009064,-0.006850723177194595,-0.9793372750282288,0.36301442980766296,-0.27310213446617126,-0.6455162763595581,30.95741844177246,-10.019046783447266,39.39580154418945,0
130,1299980,0.05950651317834854,-0.01878829300403595,-0.9941722750663757,0.6368932723999023,-0.47421061992645264,0.09432549774646759,29.54709815979004,-8.853883743286133,40.05330276489258,0
131,1310047,-0.052472952753305435,-0.025969065725803375,-1.0006380081176758,-0.11539226770401001,-0.1563151627779007,0.10417885333299637,29.958240509033203,-10.279056549072266,40.1818962097168,0
132,1320031,-0.14109547436237335,-0.0226927250623703,-0.9780993461608887,-0.25900009274482727,0.31802356243133545,0.37732863426208496,30.346080780029297,-10.37807846069336,42.1810302734375,0
133,1329930,-0.01239863596856594,-0.08703606575727463,-1.0085400342941284,-0.17014797031879425,0.23085294663906097,0.52487713098526,30.27047348022461,-10.931670188903809,39.813560485839844,0
134,1339927,0.14741051197052002,0.015757357701659203,-0.9888420104980469,0.33882376551628113,0.050692688673734665,-0.28734609484672546,32.478965759277344,-10.394213676452637,39.256500244140625,0
135,1350230,0.06912098079919815,0.09380409866571426,-1.0084915161132812,1.0301793813705444,-0.24032586812973022,-0.20731781423091888,30.0384578704834,-10.091267585754395,39.59975051879883,0
136,1359949,-0.06510008871555328,0.024101415649056435,-1.0091485977172852,-1.6409928798675537,0.04970197379589081,0.19731348752975464,30.363754272460938,-10.168660163879395,40.381771087646484,0
137,1369951,0.03213085979223251,0.11211293935775757,-0.9936965107917786,-0.8398814797401428,-0.4812701940536499,0.6747411489486694,30.005409240722656,-12.1009521484375,38.84711456298828,0
138,1379836,-0.012594680301845074,0.09122364223003387,-1.024888038635254,-0.23439988493919373,-0.3721713125705719,0.5381084084510803,31.36090850830078,-10.627005577087402,40.89601135253906,0
139,1390028,-0.023357132449746132,0.0332653746008873,-0.9804269671440125,0.055633340030908585,0.7923412919044495,-0.12836617231369019,30.055696487426758,-11.217263221740723,38.766319274902344,0
140,1400304,0.0284509789198637,-0.05766039341688156,-1.0222132205963135,-0.543653130531311,-0.5738860964775085,0.38011372089385986,31.006196975708008,-11.967238426208496,39.41798782348633,0
141,1410051,0.014013931155204773,-0.09031128883361816,-0.9900230169296265,0.13588501513004303,0.4536580741405487,-0.9502168297767639,29.71791648864746,-12.782462120056152,41.710269927978516,0
142,1419970,-0.10751192271709442,0.03970818966627121,-1.0041645765304565,-0.15764120221138,0.38103094696998596,0.6820654273033142,29.43178939819336,-12.067458152770996,41.486061096191406,0
143,1430083,0.07431203871965408,0.06452680379152298,-0.9774032235145569,0.13966821134090424,-0.14963063597679138,0.8527387380599976,30.288053512573242,-8.339018821716309,40.56779861450195,0
144,1439961,-0.03758486360311508,-0.027066955342888832,-0.9854679703712463,0.7156234979629517,0.5928242206573486,0.3120025396347046,30.776119232177734,-11.018511772155762,40.221248626708984,0
145,1450085,0.03995350003242493,-0.006515413988381624,-1.0146071910858154,0.8068727254867554,-0.770111083984375,-0.5860648155212402,30.14793586730957,-10.760068893432617,39.161441802978516,0
146,1459772,0.02857317216694355,-0.018058963119983673,-1.0462195873260498,0.0876365527510643,-0.16635753214359283,-0.3859930634498596,28.147836685180664,-10.414054870605469,39.07538986206055,0
147,1470017,0.05808652192354202,-0.020067142322659492,-0.9892541766166687,-0.2674504220485687,0.27338477969169617,0.8772763013839722,31.019044876098633,-8.483105659484863,40.56901168823242,0
148,1480011,-0.009931576438248158,0.033667683601379395,-1.007877230644226,-0.3357052505016327,-0.5432020425796509,0.3282720148563385,30.063098907470703,-9.801549911499023,40.95075225830078,0
149,1490056,-0.029113028198480606,0.02067280374467373,-1.027048945426941,0.24560809135437012,0.03661070019006729,0.25836381316185,29.99941635131836,-7.802942276000977,39.29096603393555,0
150,1500098,-0.0823342353105545,-0.07571655511856079,-0.998990535736084,-0.08107605576515198,1.3275747299194336,0.5425705313682556,30.07093048095703,-8.035619735717773,39.948333740234375,0
151,1510081,0.02774977684020996,0.0013547540875151753,-1.0183013677597046,0.20696699619293213,-0.29120028018951416,-0.1879435032606125,31.102693557739258,-11.040759086608887,41.361785888671875,0
152,1520181,0.01803239807486534,-0.04394489526748657,-0.9827253222465515,0.9076335430145264,0.6816070079803467,0.6946383118629456,29.81221580505371,-11.498138427734375,41.42177963256836,0
153,1530107,0.036480795592069626,0.010778918862342834,-1.013002872467041,-0.08177715539932251,-0.6295704245567322,0.08038868755102158,31.114131927490234,-11.311690330505371,40.30951690673828,0
154,1539657,0.005235146731138229,0.028073277324438095,-1.0199391841888428,0.8905683159828186,0.1146816685795784,0.4229779839515686,30.07708168029785,-9.056572914123535,39.925804138183594,0
155,1550192,-0.0702923983335495,0.08326654881238937,-0.9963498115539551,-0.31984901428222656,0.5072893500328064,-0.22431081533432007,28.002397537231445,-9.14240550994873,40.13707733154297,0
156,1560155,-0.10031300783157349,0.04931136593222618,-0.9857428073883057,0.07982739806175232,-0.04513648897409439,-0.359260618686676,29.49414825439453,-9.986788749694824,40.48002243041992,0
157,1570064,-0.04316650703549385,0.026753421872854233,-0.9711412191390991,-0.652510941028595,-1.1871565580368042,-0.4818376898765564,29.18183708190918,-9.914429664611816,40.84237289428711,0
158,1580152,-0.006953444331884384,-0.0743212178349495,-1.0007200241088867,1.3523963689804077,-0.08629763126373291,0.13158449530601501,29.137855529785156,-11.543374061584473,40.257659912109375,0
159,1590286,0.07152162492275238,-0.05837149918079376,-1.0113399028778076,0.07450948655605316,0.9609250426292419,0.013233712874352932,29.075651168823242,-10.244690895080566,39.11625671386719,0
160,1600024,-0.0001944765681400895,-0.05740858241915703,-1.0300358533859253,-0.9622421264648438,0.18012085556983948,0.4918659031391144,31.8251953125,-9.195722579956055,40.52159118652344,0
161,1610020,-0.08047832548618317,-0.022520113736391068,-1.0213977098464966,0.6221632957458496,-1.1488025188446045,0.3658068776130676,30.990026473999023,-11.28219223022461,40.57952880859375,0
162,1620094,0.01110130175948143,0.006806000601500273,-1.0291732549667358,-1.4231423139572144,0.4065629243850708,0.6394503116607666,29.69063949584961,-10.89780044555664,39.43699264526367,0
163,1630237,-0.012634458020329475,0.00945989228785038,-0.9867754578590393,-0.527413010597229,0.292272686958313,-0.02625170722603798,29.071523666381836,-10.69884204864502,39.08677291870117,0
164,1639843,-0.023264823481440544,0.029422840103507042,-0.9693880677223206,0.1831592321395874,0.15599076449871063,0.2094806581735611,30.18085289001465,-11.085885047912598,40.69413375854492,0
165,1649891,0.03680345416069031,0.05425311625003815,-1.0043468475341797,0.2574392259120941,0.49248284101486206,-0.03227178752422333,29.091224670410156,-8.962298393249512,39.532047271728516,0
166,1659993,-0.04452872276306152,-0.03347274661064148,-1.0135631561279297,0.44337770342826843,-0.03757268935441971,0.030804410576820374,29.610795974731445,-11.994606971740723,38.57115936279297,0
167,1670035,-0.055341776460409164,-0.07694129645824432,-1.0020960569381714,0.290521502494812,-0.0627904161810875,1.3876492977142334,29.429641723632812,-11.607215881347656,40.32780075073242,0
168,1680093,-0.01793491095304489,-0.003969151061028242,-0.983891487121582,0.16526737809181213,-0.1744307577610016,-0.02726256102323532,29.925065994262695,-8.20688533782959,39.60491943359375,0
169,1690064,0.014658061787486076,0.07551699131727219,-0.988429844379425,-0.394788920879364,-0.6095720529556274,-0.058834150433540344,31.6142578125,-11.184639930725098,41.13085174560547,0
170,1699886,-0.042936645448207855,0.013581684790551662,-1.0084515810012817,-0.42057132720947266,0.019909875467419624,-0.34742215275764465,30.946229934692383,-9.947711944580078,40.58042526245117,0
171,1709867,0.021341312676668167,-0.029045598581433296,-0.9994350671768188,0.30408287048339844,-0.37366315722465515,0.7537175416946411,27.8792781829834,-10.500704765319824,39.81365966796875,0
172,1719962,0.056414633989334106,-0.04236526042222977,-0.9720607399940491,-0.6742453575134277,-0.2452578991651535,0.10511163622140884,28.76308250427246,-9.716730117797852,39.756649017333984,0
173,1729941,0.08818232268095016,0.09667520225048065,-0.9636098146438599,-0.423872172832489,0.39142900705337524,-1.0288020372390747,28.673072814941406,-9.710063934326172,40.37974548339844,0
174,1740181,0.016157865524291992,-0.06689280271530151,-1.0426034927368164,-0.39860931038856506,0.7322732210159302,-0.7662779688835144,27.924102783203125,-11.597183227539062,39.65401077270508,0
175,1750180,0.06096538156270981,0.01688103750348091,-1.0051379203796387,0.4135325849056244,0.2651286721229553,0.28601714968681335,29.336271286010742,-11.156600952148438,40.91307067871094,0
176,1760131,0.07650548219680786,0.07242430746555328,-0.9709203243255615,-0.798297643661499,-0.4771993160247803,-0.024935930967330933,30.649736404418945,-10.309547424316406,39.34908676147461,0
177,1769866,-0.014959637075662613,0.053785309195518494,-0.9948447942733765,0.08450622111558914,0.01517869345843792,0.6024284362792969,30.538066864013672,-11.00598430633545,40.4696044921875,0
178,1780000,0.0371195413172245,0.06564079225063324,-1.0191972255706787,0.8080382347106934,1.154212474822998,0.05964333191514015,30.05544090270996,-11.29179859161377,38.882877349853516,0
179,1790131,-0.06820542365312576,0.07015228271484375,-0.9790523648262024,0.527611494064331,-0.214028999209404,1.1896779537200928,31.493200302124023,-10.827773094177246,39.81134033203125,0
180,1799763,0.05261392518877983,0.0021343608386814594,-0.9801297783851624,0.8639326095581055,-0.33151429891586304,0.20108112692832947,29.490936279296875,-12.296006202697754,40.043575286865234,0
181,1809810,-0.08200996369123459,0.002546728355810046,-1.012130856513977,-0.6981790065765381,0.29571768641471863,0.6090998649597168,29.471508026123047,-9.342412948608398,39.948978424072266,0
182,1820071,-0.07184497267007828,0.09278184175491333,-1.0108932256698608,0.27625688910484314,-0.03644179180264473,-0.052895400673151016,31.415142059326172,-11.579992294311523,40.21262741088867,0
183,1830096,0.002417223295196891,-0.013072557747364044,-0.9882758259773254,0.0954873189330101,0.15762324631214142,-0.37996578216552734,30.113557815551758,-9.442170143127441,39.916542053222656,0
184,1839730,0.06808900088071823,-0.021556837484240532,-0.9956530928611755,1.2153751850128174,-0.37832877039909363,-0.41830047965049744,30.484357833862305,-9.835573196411133,39.03160858154297,0
185,1850067,0.03508713096380234,0.013100074604153633,-0.9777994751930237,-0.7713297009468079,-0.724910318851471,-1.1036615371704102,30.67641830444336,-8.794958114624023,41.717254638671875,0
186,1859788,0.0371675118803978,0.012398089282214642,-0.9906772375106812,-0.1850660890340805,0.7506320476531982,-1.1265956163406372,29.217388153076172,-8.737984657287598,40.564537048339844,0
187,1869902,-0.0021568238735198975,-0.03167640417814255,-1.0314918756484985,-0.061114124953746796,-0.027962781488895416,0.5130391716957092,30.439212799072266,-10.970804214477539,38.898746490478516,0
188,1880031,-0.0896194651722908,0.052066076546907425,-0.9830132126808167,-0.8546785116195679,0.2706780731678009,0.453235000371933,30.281475067138672,-9.958224296569824,40.687171936035156,0
189,1889962,-0.05817980691790581,-0.005788969807326794,-1.0123146772384644,0.5521024465560913,0.19247594475746155,0.046533435583114624,31.191341400146484,-10.3897123336792,40.56659698486328,0
190,1900302,0.06359653174877167,0.12713606655597687,-1.0230515003204346,-0.1659262329339981,-0.0982341319322586,-0.1744196116924286,30.010400772094727,-10.649097442626953,39.48262405395508,0
191,1909982,-0.02280084602534771,0.05348692089319229,-1.0178085565567017,-0.03994213417172432,0.48513850569725037,-1.1243717670440674,30.707971572875977,-10.812179565429688,39.377262115478516,0
192,1920079,0.03673652186989784,-0.025596754625439644,-0.9833704233169556,-0.11225608736276627,-0.3437115252017975,0.16097837686538696,30.474878311157227,-9.723960876464844,39.711673736572266,0
193,1929990,-0.09581545740365982,-0.0900476947426796,-1.0112155675888062,-0.21642695367336273,0.39836645126342773,0.6656169295310974,29.4256591796875,-8.658349990844727,40.01857376098633,0
194,1939807,0.05901540443301201,0.037212058901786804,-1.0087900161743164,-0.3840126097202301,-0.7067821621894836,-0.29318782687187195,30.530160903930664,-10.210280418395996,40.57060241699219,0
195,1949661,0.01738702692091465,-0.03196805715560913,-1.0008540153503418,0.29611173272132874,0.5915071964263916,-0.3174375891685486,28.904232025146484,-10.363625526428223,41.2164192199707,0
196,1960018,-0.033589962869882584,-0.06966487318277359,-0.9952924251556396,-0.3331959843635559,0.20037643611431122,-1.2336351871490479,29.360015869140625,-11.56529712677002,39.786476135253906,0
197,1970138,0.02142184227705002,-0.07622671127319336,-1.010064721107483,-0.44839605689048767,-0.83476722240448,0.08278754353523254,30.398420333862305,-10.224861145019531,39.652931213378906,0
198,1979851,-0.03205255791544914,-0.001883670687675476,-1.00248122215271,0.45736292004585266,1.154698371887207,0.316854864358902,29.800537109375,-11.165176391601562,39.52371597290039,0
199,1990040,0.04753245413303375,-0.001752997632138431,-0.9919317960739136,-0.7257413864135742,-0.37524229288101196,1.2143912315368652,31.01104164123535,-9.714376449584961,38.85588455200195,0
200,2000016,0.04221460595726967,-0.03545904904603958,-0.9719194173812866,-0.7423210144042969,-0.03536704182624817,0.467507928609848,30.870840072631836,-10.429598808288574,37.1193733215332,0
201,2009914,-0.012748952023684978,0.06558200716972351,-1.0236811637878418,-0.1936579793691635,0.6990768909454346,0.19513340294361115,31.611717224121094,-10.530403137207031,37.329925537109375,0
202,2019961,-0.00482548912987113,-0.0063764662481844425,-1.0102119445800781,0.1607082635164261,-0.37977883219718933,0.4981600344181061,31.379535675048828,-10.80579948425293,41.803836822509766,0
203,2030021,0.07227564603090286,-0.07385106384754181,-0.9909725785255432,-0.22029323875904083,-0.2922224998474121,0.20181475579738617,28.168312072753906,-9.199994087219238,38.50730514526367,0
204,2039801,-0.026210417971014977,0.00628057261928916,-1.0140010118484497,-0.6354820728302002,0.7439119815826416,0.15635213255882263,29.080215454101562,-10.788143157958984,38.62479782104492,0
205,2049771,0.07829485088586807,0.020220352336764336,-0.9953683018684387,-0.5885013341903687,0.07501888275146484,0.10626674443483353,29.677820205688477,-9.446793556213379,41.14216232299805,0
206,2060246,-0.0037884260527789593,-0.0037373441737145185,-0.975980818271637,0.20635490119457245,-0.14823244512081146,0.035315416753292084,31.0960693359375,-11.514057159423828,39.53011703491211,0
207,2070044,-0.01110103353857994,-0.06808814406394958,-1.0130189657211304,0.8129924535751343,-0.33103010058403015,-0.9316651225090027,29.321056365966797,-11.395526885986328,39.385093688964844,0
208,2079994,0.021441053599119186,-0.04420901834964752,-0.9884737133979797,0.38745689392089844,0.8285055160522461,0.5833966135978699,30.821809768676758,-10.25606918334961,41.51943588256836,0
209,2089938,-0.043805237859487534,-0.004972007125616074,-1.0122931003570557,-0.28717854619026184,0.9640784859657288,0.26093581318855286,29.917194366455078,-10.701583862304688,40.24607849121094,0
210,2099972,0.014332498423755169,-0.049693040549755096,-0.9920191168785095,-0.7047961354255676,-0.4644879996776581,-0.2721864879131317,30.820323944091797,-11.003405570983887,40.50086212158203,0
211,2109837,-0.01120691280812025,-0.02032000757753849,-0.9898198246955872,-0.5591526031494141,0.4533063769340515,-0.510418176651001,30.981752395629883,-10.940717697143555,39.07725143432617,0
212,2120114,0.08868028223514557,-0.09300548583269119,-0.9997944235801697,-0.38777148723602295,-0.2759263515472412,-0.691550612449646,30.1805477142334,-11.892143249511719,39.465938568115234,0
213,2129983,0.11863114684820175,-0.01137838140130043,-0.9936987161636353,0.2947080433368683,-0.7966848015785217,-0.7623064517974854,28.849031448364258,-10.290220260620117,39.855262756347656,0
214,2140000,-0.11479852348566055,0.04456770792603493,-0.986243724822998,0.18391437828540802,-0.42282265424728394,0.639177680015564,30.113052368164062,-10.701780319213867,39.74779510498047,0
215,2150039,0.04070034623146057,-0.0019505653763189912,-0.9818569421768188,-0.7528521418571472,0.14581146836280823,-0.09870707988739014,30.58110809326172,-10.753499031066895,39.83538818359375,0
216,2159868,-0.09022185206413269,0.030244704335927963,-0.9728497862815857,-0.4585416913032532,0.4651866853237152,-0.49217984080314636,30.388429641723633,-8.949335098266602,41.9058723449707,0
217,2169812,0.0026491377502679825,-0.06830089539289474,-0.9866416454315186,0.1111963540315628,0.16461428999900818,0.23611223697662354,29.9898738861084,-10.189309120178223,38.239418029785156,0
218,2180087,-0.047237198799848557,-0.05721988156437874,-1.0499026775360107,-0.6884672045707703,-0.08593090623617172,-0.013576117344200611,29.56316375732422,-11.409334182739258,37.64672088623047,0
219,2190184,0.043468378484249115,0.0628063827753067,-1.0507007837295532,0.8215738534927368,-0.39106228947639465,-0.09016181528568268,32.06669998168945,-9.886564254760742,40.433719635009766,0
220,2199947,-0.12938374280929565,0.09288204461336136,-0.9772460460662842,0.04448646306991577,0.003525489242747426,0.28887006640434265,30.540355682373047,-12.564411163330078,42.28099822998047,0
221,2210042,-0.03150711953639984,0.02351149544119835,-0.9599655866622925,-0.6052137613296509,0.6350004076957703,0.7329856753349304,29.54175567626953,-9.936147689819336,39.5403938293457,0
222,2220057,0.06562098115682602,-0.02315198816359043,-1.0165770053863525,-0.2290913611650467,0.1842946857213974,-0.8962396383285522,29.39912223815918,-9.957229614257812,40.56785202026367,0
223,2230205,-0.038422878831624985,0.004949153866618872,-1.0057182312011719,0.7633726000785828,-0.9805688261985779,0.7739849090576172,28.716476440429688,-7.38102388381958,40.2835693359375,0
224,2239899,-0.008591121062636375,0.04653212055563927,-0.9879676103591919,-0.25502267479896545,-0.6706743240356445,0.7109659314155579,30.204057693481445,-9.385972023010254,41.77004623413086,0
225,2249974,-0.07454279065132141,-0.05060119554400444,-1.0148760080337524,-0.7907171249389648,-0.21537040174007416,-0.12781819701194763,29.498065948486328,-9.959779739379883,39.67220687866211,0
226,2260025,-0.12827174365520477,0.03504827991127968,-0.9983850121498108,-0.010486556217074394,-0.07384666800498962,-0.36617329716682434,29.28850746154785,-10.033692359924316,39.1705207824707,0
227,2270141,0.019593985751271248,0.00877541583031416,-1.0289405584335327,0.06813410669565201,-0.19399209320545197,-0.38179492950439453,29.729583740234375,-11.01582145690918,40.11614990234375,0
228,2279741,-0.006177001167088747,0.007435384206473827,-1.0045796632766724,-0.2944396138191223,0.18631945550441742,0.7285792231559753,29.043020248413086,-10.441579818725586,38.61674118041992,0
229,2289736,0.0461871437728405,-0.024227598682045937,-0.9948558807373047,0.1504172831773758,0.23173503577709198,0.0014317644527181983,29.96841049194336,-10.806559562683105,38.8800048828125,0
230,2299997,-0.019444072619080544,0.08053890615701675,-0.9935114979743958,0.18584252893924713,-0.45485153794288635,-0.6200329065322876,30.781192779541016,-11.489570617675781,39.54087448120117,0
231,2309914,0.047048963606357574,0.02141772396862507,-1.0133129358291626,-0.11850376427173615,0.33663398027420044,-1.1017279624938965,32.144004821777344,-9.085787773132324,38.282772064208984,0
232,2319938,0.021831229329109192,0.022742407396435738,-1.0022481679916382,-0.8668166995048523,-0.4702940583229065,0.3618110716342926,31.44196128845215,-9.439252853393555,40.825618743896484,0
233,2330133,-0.06494124233722687,-0.024013057351112366,-1.0000067949295044,-0.09856382757425308,-0.10232850164175034,-0.841623067855835,31.0956974029541,-9.001577377319336,40.67445755004883,0
234,2339839,0.030674653127789497,-0.015204627998173237,-0.9919641613960266,-0.2956233620643616,-0.034332580864429474,-0.8986909985542297,28.966712951660156,-10.977677345275879,39.7807731628418,0
235,2350288,0.01159481517970562,0.04109206423163414,-0.9920231103897095,0.4551199674606323,-0.1722486913204193,0.030491676181554794,29.547517776489258,-9.385306358337402,38.82526779174805,0
236,2359855,-0.03796220198273659,0.03852396458387375,-1.0070955753326416,0.4497297704219818,-0.9420561194419861,-0.18786923587322235,30.901960372924805,-11.92266845703125,39.31172561645508,0
237,2370212,-0.021777408197522163,-0.015655403956770897,-0.9671517014503479,1.1784303188323975,-0.4332122206687927,-0.06478744000196457,29.598133087158203,-8.902214050292969,41.617103576660156,0
238,2379883,0.018233124166727066,0.050982989370822906,-0.9861477613449097,-0.3272102177143097,-1.9038277864456177,-1.1593971252441406,29.689922332763672,-9.639025688171387,40.08134841918945,0
239,2390003,-0.06353281438350677,0.005379484500735998,-0.9950000643730164,0.13203483819961548,-0.4374663531780243,0.13583137094974518,30.121662139892578,-10.201765060424805,41.16089630126953,0
240,2399810,-0.006079111713916063,-0.04537779837846756,-0.9792467951774597,-0.01746332459151745,-0.17587922513484955,-0.04795147106051445,30.245765686035156,-8.621606826782227,38.94552993774414,0
241,2409890,-0.02999219112098217,0.001128394971601665,-0.9912815690040588,-1.7214419841766357,-0.29724422097206116,0.1917080283164978,30.767807006835938,-11.43156909942627,40.460472106933594,0
242,2420143,0.0012276634806767106,-0.03982992842793465,-1.0086660385131836,-0.268417090177536,-0.42436620593070984,-0.5740633606910706,27.555301666259766,-10.99276351928711,40.54478073120117,0
243,2429963,0.03291116654872894,0.04510663449764252,-1.0079883337020874,0.6500570774078369,0.4405900835990906,-0.5232539176940918,29.3537654876709,-10.55926513671875,40.80730438232422,0
244,2439734,-0.018215462565422058,-0.04146450757980347,-0.9846631288528442,0.16447778046131134,0.05372468754649162,-0.8249081969261169,28.055585861206055,-10.541781425476074,40.5892219543457,0
245,2449799,0.13445712625980377,-0.039975155144929886,-1.021346926689148,0.6518582105636597,1.4184978008270264,0.7834568619728088,30.073030471801758,-11.003002166748047,38.9061279296875,0
246,2460005,-0.03930027037858963,-0.022859178483486176,-0.9763036966323853,-0.46035119891166687,-0.28792762756347656,0.24794140458106995,30.518932342529297,-7.757838726043701,38.804534912109375,0
247,2469925,-0.07131698727607727,0.06897030770778656,-0.9979850649833679,-0.3588727116584778,0.0502280630171299,-0.26409152150154114,30.966135025024414,-9.59678840637207,40.77153015136719,0
248,2480033,0.10671840608119965,-0.013889227993786335,-1.006028413772583,0.6379121541976929,-0.17743080854415894,-0.6327605247497559,28.94162368774414,-11.016410827636719,39.232749938964844,0
249,2490002,0.020801449194550514,-0.01730435900390148,-0.9804349541664124,0.7343597412109375,0.062034569680690765,0.8634796738624573,28.419557571411133,-9.885787963867188,41.206153869628906,0
250,2500072,0.07107661664485931,-0.03489908203482628,-0.9776458144187927,1.410651683807373,-0.7658522725105286,-0.08702284097671509,29.994159698486328,-10.910795211791992,38.53266906738281,0
251,2509865,0.09422064572572708,0.008959855884313583,-1.0437053442001343,-0.7882228493690491,-0.1998765915632248,-1.112318515777588,28.88375473022461,-8.167386054992676,39.6960563659668,0
252,2519886,-0.0037949022371321917,0.04038006439805031,-0.9903425574302673,-0.5742202401161194,0.30344730615615845,0.02577427588403225,29.618694305419922,-10.63901424407959,41.52577590942383,0
253,2530052,-0.02189554274082184,-0.05438372865319252,-1.0347026586532593,0.02555367350578308,0.28653720021247864,0.23921354115009308,28.781478881835938,-11.371171951293945,39.389801025390625,0
254,2539980,0.0693192183971405,-0.12163422256708145,-1.0078790187835693,0.08790872991085052,-0.4714704751968384,-0.8619023561477661,29.515661239624023,-12.067036628723145,40.285186767578125,0
255,2549836,-0.043518807739019394,0.008240053430199623,-1.004206657409668,-0.13437709212303162,-0.6420474648475647,0.07287564873695374,30.891353607177734,-8.813580513000488,40.41785430908203,0
256,2559890,0.0433354414999485,0.0031812821980565786,-0.9854931831359863,-0.2404962033033371,0.22769102454185486,-0.39476415514945984,31.4127140045166,-9.526348114013672,39.66840744018555,0
257,2570297,0.04137784615159035,0.04459625110030174,-0.977087140083313,-0.4441964626312256,0.28642067313194275,0.5169417262077332,30.244728088378906,-11.457658767700195,38.777503967285156,0
258,2580011,-0.01671775057911873,-0.04136369749903679,-1.0182687044143677,0.17971929907798767,0.6800466775894165,-0.7075265645980835,31.295137405395508,-9.324392318725586,39.971290588378906,0
259,2590139,-0.11598534882068634,-0.004040531814098358,-1.0255982875823975,0.13098059594631195,-0.2118631899356842,0.061744023114442825,28.124221801757812,-10.681692123413086,40.01479721069336,0
260,2600025,0.007312831003218889,0.06510160863399506,-1.009644865989685,-0.22174811363220215,-0.569311797618866,0.4114048480987549,31.02194595336914,-12.089423179626465,40.226661682128906,0
261,2610082,-0.057079337537288666,0.0187957976013422,-0.9910504817962646,0.3439468443393707,0.3333330750465393,-0.2702154219150543,31.486955642700195,-9.52857494354248,39.980682373046875,0
262,2620162,-0.01085498183965683,0.013445333577692509,-1.0135691165924072,0.9223374128341675,-0.028269166126847267,0.6816471219062805,30.93208885192871,-9.311217308044434,38.66618347167969,0
263,2630161,0.06783710420131683,0.013705626130104065,-1.0136008262634277,0.6621264219284058,1.0544276237487793,0.38753995299339294,28.206254959106445,-10.53392219543457,40.003501892089844,0
264,2639639,0.007413661107420921,0.020630797371268272,-1.0069396495819092,0.05150209367275238,0.5789907574653625,0.7040694355964661,28.571870803833008,-9.79688549041748,39.99474334716797,0
265,2650013,0.07789363712072372,0.005336607340723276,-1.0233912467956543,0.39176496863365173,0.3201604187488556,0.05084327980875969,30.325504302978516,-10.59542465209961,40.57404708862305,0
266,2659809,-0.04284647852182388,0.06595916301012039,-0.978217601776123,-0.7693082094192505,0.44715672731399536,0.5864211916923523,30.581462860107422,-11.151618003845215,40.75016403198242,0
267,2670062,-0.0435795933008194,0.02307211048901081,-1.0312923192977905,1.2179293632507324,-0.36941421031951904,0.12254305928945541,29.221233367919922,-10.550740242004395,39.40488052368164,0
268,2680152,0.06664548814296722,-0.06334593147039413,-1.009597659111023,0.4072672724723816,-0.16272202134132385,-0.21766012907028198,31.684070587158203,-8.96590805053711,40.3114013671875,0
269,2690157,0.03227350860834122,-0.05165966600179672,-0.9988927841186523,0.6925263404846191,-0.5776857137680054,-1.4838824272155762,28.45965003967285,-10.867463111877441,38.91893005371094,0
270,2699894,-0.02663528174161911,-0.008939145132899284,-0.992221474647522,0.5658458471298218,0.3702811598777771,-0.6161578297615051,30.679048538208008,-10.443732261657715,39.90212631225586,0
271,2709725,0.0007128532161004841,0.07798276841640472,-0.9760529398918152,0.19262458384037018,-0.9222157597541809,0.34111642837524414,31.889169692993164,-9.83676815032959,39.360374450683594,0
272,2720052,0.013050876557826996,-0.08610057830810547,-1.0319068431854248,0.05064648389816284,-0.772609293460846,-0.034840214997529984,30.178251266479492,-7.821041584014893,38.890899658203125,0
273,2729974,-0.03491118177771568,-0.006676953751593828,-0.9750111699104309,-0.8807055354118347,-0.8745585083961487,-0.21962398290634155,30.690250396728516,-9.491199493408203,41.08688735961914,0
274,2740254,0.03038361296057701,0.09822102636098862,-0.9860448241233826,-0.43309375643730164,0.5725303292274475,0.2991177439689636,30.786638259887695,-10.025826454162598,37.547733306884766,0
275,2750074,0.0055186874233186245,-0.0535544715821743,-1.0442932844161987,0.2661002278327942,0.2968367338180542,0.06772077083587646,29.68982696533203,-10.156560897827148,41.33589172363281,0
276,2760061,0.08584926277399063,0.02568739838898182,-1.0029032230377197,-0.14863668382167816,-0.5524030327796936,-0.09181936085224152,30.277984619140625,-10.747243881225586,39.06845474243164,0
277,2769941,0.03910572826862335,0.0009212945587933064,-1.0069317817687988,-0.0013827428920194507,0.09106218069791794,0.1322161704301834,29.864097595214844,-8.567927360534668,38.538787841796875,0
278,2779896,-0.049297187477350235,0.03463800624012947,-0.988678514957428,0.4268319308757782,0.5049354434013367,0.3103239834308624,29.35329246520996,-10.616157531738281,40.604610443115234,0
279,2789909,0.03735912963747978,0.03864213451743126,-0.9907833933830261,-0.05571591854095459,-0.021651146933436394,0.07227054983377457,31.787019729614258,-11.557412147521973,39.330074310302734,0
280,2800090,-0.06538504362106323,-0.037204645574092865,-1.0166324377059937,0.1481878161430359,0.30262935161590576,-0.19647449254989624,29.408388137817383,-11.595324516296387,40.421226501464844,0
281,2810043,0.01628715917468071,-0.0038484660908579826,-0.9993481636047363,0.22878170013427734,0.18616275489330292,0.1121121197938919,31.37742042541504,-9.133061408996582,40.45522689819336,0
282,2820019,-0.04092508926987648,-0.06079587712883949,-1.009529948234558,0.057331882417201996,-0.5644199848175049,-0.4838019013404846,28.361156463623047,-10.756935119628906,38.91788101196289,0
283,2830032,-0.08544974774122238,0.039059828966856,-0.9870129227638245,-0.6434218287467957,0.6410784125328064,-0.16498471796512604,29.443532943725586,-10.001113891601562,40.43983459472656,0
284,2840059,-0.013621668331325054,-0.05234351381659508,-1.0322247743606567,-0.09924507141113281,1.0519518852233887,0.2677227854728699,28.470458984375,-10.048222541809082,41.4930305480957,0
285,2850084,0.019429700449109077,0.043673403561115265,-1.0303562879562378,0.015477563254535198,0.1581178456544876,-0.4692920744419098,30.239362716674805,-10.376046180725098,41.02867126464844,0
286,2859931,0.14806580543518066,0.10986187309026718,-0.9906738996505737,-0.2135186791419983,-0.5740222334861755,-0.29661136865615845,31.801218032836914,-11.420520782470703,40.0890998840332,0
287,2869931,-0.07863383740186691,-0.037625301629304886,-0.9993645548820496,-0.3971938192844391,0.2044285386800766,0.4100324809551239,29.59577178955078,-10.745142936706543,39.71080780029297,0
288,2879890,-0.06554574519395828,-0.052906349301338196,-1.0147318840026855,0.3848843276500702,0.32294023036956787,0.6309858560562134,29.741199493408203,-10.202662467956543,39.299076080322266,0
289,2890455,0.017778068780899048,-0.020985020324587822,-0.9564215540885925,0.09663417935371399,0.05292193591594696,0.08387403935194016,29.56621551513672,-8.517183303833008,40.31095504760742,0
290,2899933,0.01830180548131466,0.013483327813446522,-1.018896460533142,0.3753630816936493,0.19296464323997498,0.45918819308280945,30.249483108520508,-9.74748706817627,41.55690002441406,0
291,2909944,0.02336401492357254,-0.056742168962955475,-1.020512580871582,-0.33115866780281067,-0.28104081749916077,-0.4491083323955536,31.953235626220703,-10.893383979797363,39.584564208984375,0
292,2920035,0.027984309941530228,0.005516917910426855,-1.042720913887024,0.49803444743156433,0.3294738233089447,0.5665994882583618,30.515338897705078,-9.845268249511719,40.87873077392578,0
293,2930020,0.034658823162317276,0.004830441903322935,-1.047216773033142,-0.10731347650289536,-0.35129985213279724,-0.286950021982193,29.811222076416016,-11.812292098999023,40.127140045166016,0
294,2939903,-0.04583480581641197,-0.003624546341598034,-1.026861310005188,-0.21468722820281982,-0.5534613132476807,-0.08119433373212814,28.901687622070312,-9.979077339172363,41.263187408447266,0
295,2949893,-0.10647844523191452,-0.04567840322852135,-1.0244412422180176,-0.16974395513534546,1.2519482374191284,-0.3019788861274719,31.619169235229492,-10.370292663574219,38.590553283691406,0
296,2959742,-0.055961307138204575,-0.0014770124107599258,-1.012424111366272,-0.025084421038627625,-0.046727944165468216,-0.09911292046308517,29.50639533996582,-10.195596694946289,39.828407287597656,0
297,2969786,0.03675396740436554,-0.00962953269481659,-0.9828203320503235,0.18572348356246948,-1.4966548681259155,0.2398720681667328,29.338951110839844,-10.077864646911621,41.092071533203125,0
298,2980094,-0.002941235201433301,0.03233315050601959,-1.0177181959152222,0.5885208249092102,0.16933120787143707,0.18244649469852448,31.053424835205078,-10.88093090057373,40.74437713623047,0
299,2990168,0.020847424864768982,-0.011638928204774857,-0.9941439032554626,0.33729010820388794,-0.6479682922363281,-0.06577223539352417,30.19003677368164,-10.327166557312012,39.60115432739258,0
300,3000234,0.039431437849998474,0.06633080542087555,-0.9757722020149231,0.2887701094150543,-0.2471184879541397,0.2413509488105774,28.809778213500977,-10.551773071289062,38.677364349365234,0
301,3009787,-0.015485386364161968,0.01248047687113285,-1.010042667388916,-0.28374961018562317,-0.5461775660514832,0.08495733886957169,29.83755111694336,-10.404030799865723,39.69034194946289,0
302,3020058,0.03558008372783661,-0.031010711565613747,-1.0168085098266602,0.25772279500961304,0.5009016990661621,-0.5950672626495361,29.256488800048828,-10.292219161987305,39.158443450927734,0
303,3029894,0.020480437204241753,0.075269415974617,-0.9713749289512634,0.1785520315170288,-0.014079027809202671,0.389051616191864,29.462324142456055,-10.857237815856934,40.95932388305664,0
304,3040125,-0.06634669750928879,0.06509183347225189,-0.9721462726593018,0.23147687315940857,-0.5112517476081848,0.09768553823232651,26.970460891723633,-10.117091178894043,40.274173736572266,0
305,3049985,0.018981391564011574,-0.06492127478122711,-0.9960903525352478,0.04972140118479729,-0.16277717053890228,0.0175714660435915,29.540456771850586,-8.993185997009277,40.399559020996094,0
306,3059791,-0.1360316276550293,0.008246012963354588,-0.9723228216171265,0.7513304352760315,-0.37498581409454346,-0.6805574297904968,30.477262496948242,-10.368487358093262,40.721778869628906,0
307,3070097,-0.03390948846936226,0.11966254562139511,-0.9926149845123291,-0.4749547839164734,0.2524692118167877,0.3527783155441284,30.529090881347656,-11.037120819091797,38.984710693359375,0
308,3080064,-0.12983199954032898,0.00013785356713924557,-1.0014222860336304,0.7673800587654114,0.33508530259132385,0.38287121057510376,28.842479705810547,-11.302142143249512,39.55426788330078,0
309,3089948,-0.010304641909897327,0.023695839568972588,-1.0026084184646606,0.4101002514362335,-0.1448444128036499,-0.4994884431362152,30.057369232177734,-9.666316986083984,38.850791931152344,0
310,3099750,0.018596725538372993,0.03079460933804512,-1.007614016532898,-0.690141499042511,-0.03841009736061096,0.30346277356147766,31.948165893554688,-10.291912078857422,40.60795593261719,0
311,3109852,0.06797550618648529,0.09933748096227646,-0.9828932285308838,-0.042173027992248535,0.6897372007369995,0.3839111328125,29.40241050720215,-12.274042129516602,40.54042434692383,0
312,3119828,-0.006346538662910461,-0.042537473142147064,-1.0079091787338257,-0.12630805373191833,0.48418036103248596,-1.1807960271835327,27.99618148803711,-10.20056438446045,42.43280792236328,0
313,3129982,-0.02238847129046917,-0.01823679357767105,-0.9856613874435425,-0.07280661165714264,-0.06336487084627151,0.5507695078849792,27.826906204223633,-10.545559883117676,39.16520309448242,0
314,3140183,-0.02486800029873848,-0.03821394592523575,-0.9864556789398193,0.08848796039819717,0.3053644597530365,0.42461761832237244,28.533872604370117,-11.613757133483887,40.926719665527344,0
315,3150014,0.0321146585047245,0.01017894595861435,-0.9694615602493286,-0.18049822747707367,-0.4711097776889801,-0.4992588758468628,29.802242279052734,-10.368351936340332,39.90196990966797,0
316,3159979,0.005681455601006746,0.05418777838349342,-0.9807583689689636,0.15743966400623322,-0.3899305760860443,-0.24897940456867218,29.745197296142578,-11.110166549682617,40.982181549072266,0
317,3170017,0.05058253929018974,0.020573128014802933,-1.0062670707702637,-0.29145553708076477,-0.03137582913041115,0.7816743850708008,30.611595153808594,-9.008268356323242,38.63655471801758,0
318,3180066,0.03199072554707527,9.136280277743936e-05,-0.9852930307388306,-0.37542352080345154,-0.1810767650604248,-0.15407556295394897,31.272397994995117,-10.777918815612793,40.405513763427734,0
319,3190055,0.056983284652233124,0.028369545936584473,-1.0039169788360596,-0.04153509438037872,0.4487483501434326,-0.0015143504133448005,28.99319076538086,-9.00442886352539,40.90382385253906,0
320,3199856,-0.010435491800308228,-0.0020022375974804163,-0.9780919551849365,0.529962420463562,0.21278196573257446,-0.16646891832351685,32.38899230957031,-8.864798545837402,39.309329986572266,0
321,3209995,0.044348813593387604,0.010001910850405693,-1.0230034589767456,-0.11516638845205307,0.22450877726078033,0.7032275199890137,28.697940826416016,-6.813186168670654,41.638938903808594,0
322,3220004,0.03319663926959038,-0.07913800328969955,-1.0033315420150757,0.7009943127632141,1.3365637063980103,-0.17773769795894623,29.675031661987305,-9.610162734985352,40.570640563964844,0
323,3229887,-0.0007133294711820781,0.00426403759047389,-1.0119855403900146,-0.49364879727363586,0.14139515161514282,0.24955296516418457,30.574565887451172,-11.22636604309082,39.9815673828125,0
324,3239952,-0.06330615282058716,0.0024480142164975405,-1.0003300905227661,-0.7314716577529907,-0.20585566759109497,0.5635478496551514,30.870939254760742,-9.407583236694336,40.28728103637695,0
325,3249909,-0.02373255044221878,0.07358215004205704,-0.9772114753723145,0.1485789269208908,0.178511381149292,0.4950540363788605,30.639524459838867,-9.62162971496582,40.55167770385742,0
326,3260098,0.013063463382422924,-0.04433633014559746,-0.975528359413147,0.09312219172716141,-0.06501006335020065,0.5871399641036987,29.785568237304688,-11.428568840026855,40.24125671386719,0
327,3270001,0.026401134207844734,-0.01997092179954052,-1.0065594911575317,0.04189039394259453,0.2605975568294525,0.4256841540336609,31.552942276000977,-10.793594360351562,38.637577056884766,0
328,3280083,0.02917018160223961,0.004330963362008333,-0.9732308387756348,-0.15425705909729004,-0.09941495954990387,0.8518021106719971,31.198163986206055,-10.419221878051758,39.7519416809082,0
329,3289944,-0.04782942682504654,-0.058582790195941925,-1.0048911571502686,0.1993991732597351,-0.6062952876091003,0.19397075474262238,29.35856056213379,-9.284147262573242,41.30472183227539,0
330,3299958,0.019265521317720413,0.04559926316142082,-0.9884482026100159,-0.4171788990497589,0.29144805669784546,0.17800728976726532,29.34691047668457,-9.473203659057617,40.30842590332031,0
331,3309938,-0.028740879148244858,0.03264020010828972,-0.9605279564857483,-0.7957988381385803,-0.4399586617946625,0.564171314239502,28.594968795776367,-8.007087707519531,40.386749267578125,0
332,3320051,-0.03231096640229225,-0.030999286100268364,-1.0090264081954956,0.15401005744934082,-1.2509973049163818,-0.156077042222023,29.81841468811035,-10.50747299194336,39.624412536621094,0
333,3329894,-0.019557826220989227,-0.013101654127240181,-0.9892273545265198,0.1869082748889923,-0.1949961632490158,0.3477942943572998,30.59430503845215,-11.049088478088379,40.660823822021484,0
334,3339902,-0.06343922019004822,0.029537754133343697,-1.0105090141296387,-0.14179109036922455,0.4289740025997162,-0.046338990330696106,28.632274627685547,-8.330707550048828,41.29096984863281,0
335,3349936,0.07328011095523834,-0.014786658808588982,-1.02657151222229,0.6186930537223816,0.8420061469078064,-0.39565494656562805,32.22782897949219,-9.224982261657715,39.16236877441406,0
336,3359966,-0.09177146106958389,-0.019134286791086197,-0.9876493215560913,-0.09570791572332382,0.48048025369644165,-0.39553672075271606,32.5254020690918,-9.071722984313965,41.35926818847656,0
337,3369959,0.041352152824401855,-0.06353688985109329,-0.9810696244239807,0.21204891800880432,0.614691436290741,-0.2749292552471161,30.822643280029297,-8.795351028442383,39.36369323730469,0
338,3379868,-0.00869625061750412,0.0653664767742157,-0.9873020052909851,0.35747283697128296,0.5035470128059387,0.205747589468956,27.767080307006836,-10.551127433776855,39.643985748291016,0
339,3390114,-0.0022682547569274902,-0.004654768388718367,-0.9430352449417114,-0.681148886680603,0.37798184156417847,0.6260604858398438,29.96845817565918,-10.167123794555664,41.18671417236328,0
340,3400033,0.006252126768231392,-0.025278139859437943,-1.0099061727523804,-0.3401462137699127,-0.21257631480693817,0.35048237442970276,31.595827102661133,-10.218796730041504,38.22951889038086,0
341,3409955,-0.020754000172019005,0.08646421134471893,-0.9931533932685852,-0.29369503259658813,0.37900471687316895,0.3226478099822998,31.664714813232422,-10.883928298950195,40.61784744262695,0
342,3420266,-0.027560902759432793,-0.07500969618558884,-0.9895649552345276,-0.10757207870483398,-0.5210249423980713,0.6118229031562805,28.93772315979004,-8.573803901672363,39.08749771118164,0
343,3430131,0.08179415017366409,-0.003694741753861308,-0.9974097013473511,1.248651146888733,-0.561468780040741,-0.3455422818660736,29.443470001220703,-9.658979415893555,39.34519958496094,0
344,3440039,-0.004869448486715555,-0.021558260545134544,-1.0195927619934082,-0.01995188556611538,-0.06217384338378906,0.12767857313156128,31.817060470581055,-10.065567970275879,39.40339279174805,0
345,3449955,-0.07020046561956406,0.003621925599873066,-1.0170737504959106,0.1330518275499344,-0.032462310045957565,0.41869884729385376,29.16826629638672,-10.849849700927734,41.34696960449219,0
346,3459780,0.011994417756795883,-0.017552431672811508,-0.9962610602378845,-0.27376124262809753,-0.20501892268657684,0.47136542201042175,28.598752975463867,-8.901877403259277,39.56703186035156,0
347,3469845,0.010431251488626003,0.005256793461740017,-1.0079469680786133,0.8914589285850525,0.14187319576740265,-0.8888292908668518,31.758747100830078,-12.607571601867676,39.607330322265625,0
348,3479826,0.014058608561754227,-0.03652193769812584,-0.9788286089897156,-0.21718601882457733,-0.004745814949274063,-0.23780716955661774,29.980993270874023,-8.595695495605469,40.485206604003906,0
349,3489828,-0.013499914668500423,0.003602024633437395,-0.9986671805381775,0.957233190536499,-0.24110256135463715,-0.4613816738128662,30.51793670654297,-8.77796745300293,40.745418548583984,0
350,3499889,0.06183044612407684,0.02181207574903965,-0.9884890913963318,-0.5509881377220154,0.07801952958106995,-0.5029023885726929,30.115943908691406,-11.252824783325195,39.270103454589844,0
351,3510059,-0.025896739214658737,-0.05031312257051468,-1.0352699756622314,-0.5236921906471252,0.813523530960083,0.1729838252067566,30.451107025146484,-10.19242000579834,41.15501403808594,0
352,3520055,0.06230467930436134,0.06515287607908249,-1.0174530744552612,-0.4266376793384552,-0.2940153479576111,-0.6397386789321899,30.76180076599121,-10.790669441223145,41.662696838378906,0
353,3529871,-0.012956545688211918,0.047689106315374374,-1.0020612478256226,0.37254658341407776,-0.4033113121986389,0.737114429473877,29.570362091064453,-8.426427841186523,40.28476333618164,0
354,3539968,0.046773556619882584,-0.10499389469623566,-1.0277972221374512,-0.3156832158565521,-0.27925440669059753,-0.6838597655296326,30.4758243560791,-9.680488586425781,40.13734436035156,0
355,3549663,-0.026115957647562027,-0.040850892663002014,-1.005513072013855,0.27746209502220154,-0.7708537578582764,-0.18225382268428802,32.39199447631836,-9.831231117248535,38.844600677490234,0
356,3560122,0.08152495324611664,0.04631980508565903,-1.010651707649231,-0.15625114738941193,-0.6466547250747681,-0.542060136795044,29.096633911132812,-8.590694427490234,39.786163330078125,0
357,3569806,-0.016389423981308937,-0.09221431612968445,-0.9891377091407776,-0.23581047356128693,-0.5004677176475525,-0.27549242973327637,31.018381118774414,-8.73098373413086,39.67426681518555,0
358,3579859,0.03721597418189049,-0.03839033469557762,-1.0024255514144897,0.5218093991279602,0.22518466413021088,0.3755030035972595,29.352725982666016,-9.28927993774414,41.36013412475586,0
359,3590109,-0.06029514595866203,0.021230971440672874,-0.9831961989402771,0.3155093789100647,-0.60271817445755,-0.6353875398635864,29.165977478027344,-9.76498794555664,41.431732177734375,0
360,3599919,0.10307303071022034,0.04104956239461899,-0.97590571641922,-0.6412259936332703,-0.8269621133804321,0.3742479085922241,28.55263900756836,-11.603092193603516,40.73182678222656,0
361,3609988,-0.000500102702062577,-0.002653520554304123,-0.9891040921211243,-0.06406030058860779,0.017367428168654442,0.14493069052696228,31.4356632232666,-10.207767486572266,40.81229019165039,0
362,3620068,0.0580340176820755,0.014354572631418705,-0.9908896088600159,-0.09522846341133118,-0.06780055910348892,-0.1045178771018982,30.9406681060791,-9.834415435791016,40.2010612487793,0
363,3630023,0.042226627469062805,-0.006694897077977657,-0.9900327324867249,0.08407188206911087,-0.6205455660820007,-0.5001875758171082,29.21375846862793,-11.848006248474121,39.37507247924805,0
364,3639935,-0.08543668687343597,0.01864168420433998,-1.0054985284805298,0.5975081920623779,-0.1380968540906906,-0.04394485056400299,28.64267349243164,-8.862027168273926,40.071144104003906,0
365,3649927,0.06256318837404251,-0.039863407611846924,-0.9773436784744263,0.3986271917819977,0.3629588484764099,1.1389511823654175,28.71451759338379,-10.378246307373047,38.95697021484375,0
366,3660066,0.012987206690013409,-0.013974646106362343,-0.9907965064048767,-0.43243545293807983,-0.05360591039061546,-0.32766658067703247,29.031761169433594,-10.78005599975586,38.02158737182617,0
367,3670031,-0.03552083671092987,0.10048872232437134,-0.980891764163971,0.3067280948162079,0.501367449760437,-0.03632207587361336,30.26668357849121,-10.411744117736816,39.80790328979492,0
368,3680182,-0.05929344892501831,0.008637937717139721,-1.0317209959030151,-0.35420042276382446,0.23814116418361664,0.6038863658905029,29.712270736694336,-10.291111946105957,41.053924560546875,0
369,3690062,0.005675449967384338,0.03210987523198128,-1.0002241134643555,0.21494846045970917,0.7448493838310242,-0.10406701266765594,29.138235092163086,-11.187920570373535,38.9201545715332,0
370,3699954,0.016304947435855865,-0.08782316744327545,-0.9720314145088196,-0.11036691069602966,-0.3982357680797577,-0.4574034810066223,30.4451961517334,-9.657379150390625,39.258209228515625,0
371,3710082,-0.011211292818188667,-0.00021212483989074826,-0.9815554618835449,-0.12400580197572708,0.39781758189201355,0.24861431121826172,29.82792091369629,-9.508618354797363,40.146480560302734,0
372,3720023,-0.008014708757400513,-0.0053192125633358955,-1.0322246551513672,0.34068402647972107,0.12347802519798279,-0.11105462163686752,30.77692413330078,-9.381868362426758,39.07243728637695,0
373,3730280,0.06398395448923111,0.02690061368048191,-0.9827558994293213,0.5974348783493042,0.1549481898546219,-0.8378528952598572,30.537256240844727,-10.1112060546875,40.487361907958984,0
374,3740023,0.010591651313006878,-0.017237473279237747,-1.006515383720398,-0.015364616177976131,-0.1677722930908203,-0.9669408202171326,29.41887855529785,-9.146330833435059,41.01844024658203,0
375,3750260,-0.04193755239248276,-0.02272593230009079,-0.9948997497558594,-0.5470865964889526,0.16279758512973785,-0.5857704877853394,30.819259643554688,-9.54334545135498,39.564125061035156,0
376,3760057,-0.005987747106701136,-0.04200857877731323,-1.0378642082214355,0.5614175200462341,0.2066025584936142,1.0271741151809692,29.524890899658203,-10.498571395874023,40.972957611083984,0
377,3770288,0.027655664831399918,-0.059011392295360565,-1.0299493074417114,0.29354703426361084,-0.07930292934179306,-0.36951324343681335,28.865917205810547,-9.758685111999512,41.16780090332031,0
378,3779782,-0.03181746229529381,-0.05857282131910324,-1.0055960416793823,-1.0917068719863892,-1.22996985912323,0.020090237259864807,29.81989288330078,-11.624711036682129,40.34128952026367,0
379,3789929,0.0573873333632946,0.0939130187034607,-1.0165330171585083,-0.17188170552253723,0.9062736630439758,-0.09893016517162323,30.368831634521484,-11.323328971862793,39.838138580322266,0
380,3799928,0.11979527771472931,0.022989410907030106,-1.0094035863876343,0.5898147821426392,0.5312806963920593,0.04472218081355095,29.453393936157227,-10.25472354888916,39.410518646240234,0
381,3810172,0.021367594599723816,0.03391466662287712,-1.0006334781646729,-0.8822970390319824,-0.8748689293861389,-0.08317863196134567,29.01273536682129,-7.360433578491211,41.36056137084961,0
382,3820060,-0.09185824543237686,-0.04590883105993271,-0.9696731567382812,0.042431872338056564,-0.366950660943985,0.11081856489181519,30.587087631225586,-11.407057762145996,41.6782341003418,0
383,3829842,-0.003699744585901499,-0.038698192685842514,-1.0013151168823242,-0.00454429816454649,0.34070882201194763,-0.4560108780860901,31.574129104614258,-8.700905799865723,40.771759033203125,0
384,3840096,0.012217489071190357,0.016389034688472748,-0.9855462908744812,0.09543900191783905,1.2919955253601074,-0.19286870956420898,30.684030532836914,-9.639320373535156,40.362815856933594,0
385,3850098,-0.019914191216230392,-0.005623774603009224,-1.000536561012268,-1.055221676826477,-0.01771535538136959,-0.6608654260635376,30.13836097717285,-12.266755104064941,41.15058135986328,0
386,3860087,-0.03394663333892822,0.02904209867119789,-0.9579308032989502,-0.5430982112884521,-0.3590710759162903,0.1321636587381363,31.413875579833984,-8.990811347961426,39.28002166748047,0
387,3869957,0.02937995456159115,0.03733200207352638,-1.019120693206787,-0.20829881727695465,-0.5370644330978394,0.16823993623256683,27.95075225830078,-10.47750186920166,41.65886306762695,0
388,3879748,-0.05753080174326897,0.041445400565862656,-1.009974718093872,-0.1312648206949234,-0.14052116870880127,-0.528974711894989,30.134571075439453,-9.734199523925781,38.560508728027344,0
389,3889874,0.07974092662334442,-0.004553934559226036,-0.9747392535209656,0.230876162648201,-0.15504337847232819,-0.28366267681121826,32.011539459228516,-10.57027816772461,39.81526565551758,0
390,3900006,0.012055687606334686,-0.010656292550265789,-1.006899356842041,0.776915431022644,-1.041100263595581,0.3647323548793793,30.613365173339844,-10.72780990600586,39.96189880371094,0
391,3910067,0.04146271571516991,-0.004500575363636017,-1.0173169374465942,0.6241715550422668,0.7157460451126099,-0.32550284266471863,29.37002182006836,-8.816786766052246,41.36305618286133,0
392,3919945,0.030492303892970085,0.012457311153411865,-1.014036774635315,0.35534602403640747,-0.2799068093299866,0.6238690614700317,30.215402603149414,-11.516889572143555,40.38782501220703,0
393,3929846,-0.0019169555744156241,-0.06105509027838707,-1.0304059982299805,-0.053314387798309326,-0.5648160576820374,0.10549619793891907,29.87145233154297,-10.31860637664795,40.93685531616211,0
394,3940004,-0.007495710626244545,0.07107991725206375,-1.0098272562026978,-0.14726442098617554,1.2276785373687744,0.15526261925697327,30.449481964111328,-11.127625465393066,39.66083526611328,0
395,3949797,0.06851702928543091,0.012010742910206318,-1.0070074796676636,-0.1460346281528473,-0.21066313982009888,-0.6614991426467896,28.39282989501953,-8.735466957092285,38.6458740234375,0
396,3959957,-0.0668354332447052,0.0020839106291532516,-1.0060436725616455,-0.09842734783887863,-0.19539259374141693,0.17382016777992249,29.332307815551758,-10.686885833740234,39.30174255371094,0
397,3970123,-0.05635916441679001,-0.03706289827823639,-0.9931811690330505,0.4950847029685974,0.2994355261325836,-0.09817018359899521,32.77534103393555,-10.21696949005127,41.27609634399414,0
398,3980061,0.0008936350932344794,-0.050087664276361465,-0.9973899722099304,0.29895371198654175,0.595591127872467,-0.11335401237010956,28.58182716369629,-10.707599639892578,38.99342727661133,0
399,3990147,0.02346493862569332,0.041322603821754456,-1.00596022605896,0.08290880173444748,0.8340365886688232,0.5087063908576965,29.758098602294922,-12.069964408874512,37.190738677978516,0
400,4000135,-0.10599285364151001,0.016337061300873756,-1.0141093730926514,0.19836346805095673,1.0291049480438232,0.4225117266178131,30.836414337158203,-10.792202949523926,40.16429138183594,0
401,4010073,0.14986954629421234,-0.08772297948598862,-0.9923117756843567,0.19869890809059143,-0.3548668622970581,-0.07152754813432693,29.80686378479004,-7.789707183837891,40.529258728027344,0
402,4020113,-0.04092516750097275,-0.04241889342665672,-1.0039069652557373,-0.5526723265647888,0.8943507075309753,0.529144823551178,29.31158447265625,-8.308867454528809,39.99866485595703,0
403,4030024,-0.037582751363515854,-0.05511981621384621,-1.0293877124786377,-0.17822887003421783,-0.707755982875824,-0.3109113276004791,32.98884963989258,-8.972716331481934,40.75642395019531,0
404,4039667,0.0060270195826888084,0.056269191205501556,-0.9760378003120422,0.028271155431866646,-0.413933128118515,-0.5573457479476929,31.715225219726562,-9.400738716125488,39.51536560058594,0
405,4049580,0.06039665639400482,-0.02946631982922554,-1.033524751663208,0.21779826283454895,0.07481370866298676,0.6696511507034302,29.203157424926758,-9.18167781829834,39.225528717041016,0
406,4060078,0.08555649220943451,0.12167979031801224,-1.0021483898162842,0.16292104125022888,-0.35833048820495605,0.3258216381072998,28.57843589782715,-9.703782081604004,42.5291862487793,0
407,4069744,0.011821459047496319,-0.03247525542974472,-1.004771113395691,0.4181900918483734,0.3059864342212677,-0.07832920551300049,29.70435905456543,-7.902396202087402,40.0909538269043,0
408,4080256,-0.03745696321129799,0.04693977162241936,-1.0073533058166504,-0.035767607390880585,-1.3855664730072021,-0.038694754242897034,29.609264373779297,-8.674601554870605,39.34599304199219,0
409,4090200,0.02151888981461525,-0.06066572293639183,-1.008267879486084,-0.8558580875396729,-0.3404724597930908,0.7073691487312317,32.25312042236328,-8.872995376586914,40.03478240966797,0
410,4100027,-0.02662709355354309,-0.026820730417966843,-1.004159927368164,0.23697800934314728,-0.3627910614013672,0.25719013810157776,31.016616821289062,-8.243342399597168,40.83065414428711,0
411,4110127,0.005413430277258158,0.05221729353070259,-0.9643062949180603,-0.5110608339309692,0.6342882513999939,0.0667450800538063,28.614761352539062,-8.753536224365234,39.63595199584961,0
412,4119924,-0.001191168325021863,-0.053899090737104416,-1.016968011856079,-0.47139260172843933,-0.8696803450584412,-0.3875867426395416,31.0341739654541,-11.173307418823242,39.743553161621094,0
413,4130005,-0.016271982342004776,-0.015651779249310493,-0.9772274494171143,-0.814915120601654,0.12419071793556213,0.4318138360977173,28.437297821044922,-9.5340576171875,40.17247009277344,0
414,4140007,-0.02221868187189102,0.005702221300452948,-0.9933227896690369,0.7171125411987305,-0.04438527300953865,-0.19802603125572205,31.017818450927734,-10.99489688873291,38.90501403808594,0
415,4150075,-0.020300239324569702,0.019527260214090347,-1.00197434425354,-0.30192387104034424,0.19646573066711426,-0.5745527744293213,29.451257705688477,-9.194605827331543,38.44769287109375,0
416,4160186,-0.10327061265707016,-0.009979712776839733,-1.0046190023422241,-0.1969441920518875,-0.5770692229270935,-0.20362363755702972,30.889860153198242,-8.341228485107422,39.98848342895508,0
417,4169962,-0.003348754718899727,0.03160079941153526,-1.0054941177368164,0.8157305121421814,0.4968547224998474,0.05983258783817291,29.398746490478516,-10.517805099487305,39.92179870605469,0
418,4180199,-0.064947709441185,-0.023804310709238052,-1.0172470808029175,0.5751298069953918,0.787848174571991,-0.16247466206550598,30.625064849853516,-10.205244064331055,40.58052062988281,0
419,4189781,-0.03351529315114021,0.06698958575725555,-1.000223159790039,0.27097979187965393,0.28926223516464233,-0.5669118165969849,30.23484230041504,-11.064285278320312,40.54508972167969,0
420,4200107,0.0046492512337863445,-0.039432819932699203,-0.9529052376747131,-0.9898024797439575,-0.6410030126571655,0.42277032136917114,30.442790985107422,-10.30810260772705,41.51554870605469,0
421,4210059,0.05476433411240578,0.017707809805870056,-0.9767343997955322,0.05127323418855667,-0.3865853250026703,-0.35937413573265076,30.544002532958984,-12.37849235534668,41.492000579833984,0
422,4219779,0.07327830791473389,0.08117035031318665,-1.00332772731781,0.1974978893995285,-0.5912094712257385,-0.3886113166809082,29.99925422668457,-7.915107250213623,40.64076232910156,0
423,4229928,0.009480922482907772,-0.044054485857486725,-1.0207586288452148,0.5659275650978088,0.9500950574874878,0.025487380102276802,31.099811553955078,-9.23538589477539,40.990447998046875,0
424,4239906,-0.03574810549616814,0.0867190733551979,-1.0023717880249023,0.2586551010608673,1.5040472745895386,-0.8819324374198914,29.556516647338867,-11.03542709350586,40.425472259521484,0
425,4250087,0.01349383220076561,0.011109311133623123,-1.0063177347183228,-0.4906919598579407,0.23856818675994873,0.37286707758903503,30.51357078552246,-10.533853530883789,40.505760192871094,0
426,4259963,0.06292842328548431,0.013796159997582436,-1.0649049282073975,0.6963038444519043,0.4248155951499939,0.3559260666370392,28.75799560546875,-9.503470420837402,39.88874053955078,0
427,4269871,-0.11155864596366882,0.04784991592168808,-1.0026400089263916,-0.3014254868030548,-0.6678769588470459,0.3035689890384674,29.512392044067383,-10.015631675720215,40.04859161376953,0
428,4280110,-0.03317810595035553,0.11108902841806412,-1.0066882371902466,0.5825856328010559,0.3622898459434509,0.2867434322834015,29.277982711791992,-11.49440860748291,38.577911376953125,0
429,4289859,-0.02659793756902218,0.06046779453754425,-0.9859423041343689,-0.5554866194725037,-0.7694066762924194,-0.13526859879493713,30.281461715698242,-10.345389366149902,40.329185485839844,0
430,4299990,-0.0661146342754364,0.021658651530742645,-0.9831172227859497,0.7692920565605164,-0.4017082452774048,-0.6481357216835022,30.165786743164062,-8.91407585144043,39.685848236083984,0
431,4310086,-0.03359081968665123,0.05494332313537598,-0.9885772466659546,-0.3952234387397766,-0.021741503849625587,0.5013670921325684,29.96198844909668,-9.760655403137207,39.40597915649414,0
432,4319942,0.0442018136382103,-0.014567060396075249,-1.0094950199127197,0.3333205282688141,-0.01147474441677332,0.4225034713745117,31.429826736450195,-10.990185737609863,39.343902587890625,0
433,4330073,0.021415917202830315,-0.031821902841329575,-0.9887672662734985,0.818265438079834,0.17634497582912445,-0.24305716156959534,30.80525779724121,-10.433178901672363,41.63702392578125,0
434,4339919,-0.005542880855500698,0.006163877435028553,-0.9839975237846375,0.9697716236114502,0.12662599980831146,0.26227855682373047,30.211061477661133,-10.557162284851074,39.73373031616211,0
435,4349993,0.03107784502208233,0.03957526758313179,-1.028313398361206,-0.6909686923027039,-0.3726221024990082,-0.14538119733333588,29.082971572875977,-9.12411117553711,40.20878601074219,0
436,4360037,-0.0500372089445591,-0.026708343997597694,-0.9791852831840515,0.07010149210691452,-0.18210193514823914,-0.4620932936668396,30.928430557250977,-9.768134117126465,40.04016876220703,0
437,4369995,0.05046308785676956,0.03518152981996536,-1.0142221450805664,-0.6558152437210083,0.4256924092769623,-0.628744900226593,28.646099090576172,-10.090475082397461,41.596012115478516,0
438,4379743,-0.029867369681596756,0.03730576112866402,-0.9812711477279663,-0.68732750415802,-0.4246414303779602,-0.48964494466781616,31.447742462158203,-10.241849899291992,39.094146728515625,0
439,4389904,-0.07493477314710617,-0.006220066919922829,-1.0176059007644653,-0.42936545610427856,-0.13613025844097137,0.552348256111145,28.943105697631836,-9.30223560333252,41.68013000488281,0
440,4400071,-0.006063344422727823,-0.05315811187028885,-1.0027439594268799,0.45304763317108154,-1.0135105848312378,0.889714777469635,29.051090240478516,-8.99414348602295,40.379337310791016,0
441,4410114,-0.03859315067529678,0.010407528840005398,-0.9902184009552002,0.6982990503311157,-0.19888150691986084,-0.24940484762191772,30.67910385131836,-10.356815338134766,40.8811149597168,0
442,4419746,0.06548816710710526,0.030730418860912323,-0.9854390621185303,-0.3160887062549591,0.325596421957016,0.562946081161499,31.311567306518555,-8.852286338806152,38.156253814697266,0
443,4430083,0.074805349111557,-0.06984442472457886,-1.0058021545410156,-0.1674686223268509,-0.28704166412353516,-0.43045857548713684,29.937911987304688,-9.959893226623535,40.70058059692383,0
444,4440155,0.007849774323403835,-0.011967627331614494,-1.000316858291626,-0.04847041144967079,-0.5842472314834595,-0.7976040840148926,30.897098541259766,-11.2366943359375,41.505489349365234,0
445,4450280,-0.002305051079019904,0.01907777599990368,-0.9991514682769775,0.058274123817682266,-0.6550689339637756,-0.01661785878241062,30.704858779907227,-9.057856559753418,39.091312408447266,0
446,4460063,-0.020313961431384087,0.03415239229798317,-0.9702870845794678,-1.5374969244003296,0.12726552784442902,0.4957614541053772,29.73247528076172,-12.36742877960205,37.94677734375,0
447,4469850,0.07818254083395004,0.05502907186746597,-0.9807480573654175,0.389116495847702,0.8300889134407043,-0.07300639897584915,30.19570541381836,-8.911669731140137,37.58698654174805,0
448,4479974,-0.0012103489134460688,0.0031169767025858164,-0.977207601070404,0.1108068898320198,-0.4075685143470764,-0.9251758456230164,29.062891006469727,-9.135135650634766,38.870628356933594,0
449,4489993,0.022130290046334267,0.1062498390674591,-0.9881466031074524,0.22044731676578522,-0.2773195505142212,-0.31662893295288086,32.84183883666992,-11.168351173400879,39.296913146972656,0
450,4500132,0.04204954579472542,0.034918565303087234,-0.9854145646095276,0.5781128406524658,-0.3819272220134735,0.20789222419261932,31.57499122619629,-8.559161186218262,40.35091018676758,0
451,4509713,-0.0004235061351209879,0.05471901223063469,-1.0264643430709839,0.2918669283390045,-0.4087613821029663,0.44558414816856384,29.131404876708984,-9.862030982971191,39.12867736816406,0
452,4520074,-0.05892646312713623,-0.012020859867334366,-0.9862454533576965,0.49178048968315125,0.03352324292063713,0.28815698623657227,30.25472068786621,-10.71882438659668,38.5593376159668,0
453,4529841,-0.019913088530302048,-0.06793823838233948,-1.012219786643982,-0.03607494384050369,0.40573155879974365,0.13633938133716583,29.497262954711914,-10.28140640258789,40.97162628173828,0
454,4539842,-0.037438321858644485,-0.041491616517305374,-0.9843599796295166,-0.4499746859073639,-1.0455280542373657,-0.14585579931735992,30.12384796142578,-8.712353706359863,40.3715705871582,0
455,4549901,-0.02038598619401455,0.014929884113371372,-1.0125795602798462,0.33006319403648376,-0.02605338580906391,0.2185802459716797,30.684446334838867,-9.858200073242188,38.744285583496094,0
456,4559949,0.04551549628376961,0.0025348749477416277,-0.9939675331115723,-0.8437440991401672,-0.16635094583034515,-0.7078885436058044,28.9876708984375,-9.318502426147461,39.50875473022461,0
457,4569993,-0.00037031836109235883,0.030929606407880783,-1.0124083757400513,-0.8538317680358887,-0.478982537984848,0.7822498679161072,29.65035057067871,-8.410694122314453,39.601341247558594,0
458,4579808,0.03831728175282478,0.049149662256240845,-0.9936968684196472,-0.22041259706020355,-0.34224823117256165,0.16442710161209106,31.127788543701172,-9.446537971496582,40.1041145324707,0
459,4590137,0.048919789493083954,-0.003347566118463874,-1.0038093328475952,0.13703835010528564,0.1818006932735443,0.2554705739021301,30.455324172973633,-10.030352592468262,40.213809967041016,0
460,4599956,-0.00736889336258173,-0.02261132188141346,-0.9963130950927734,0.19229765236377716,0.4199593663215637,-0.38649487495422363,31.569185256958008,-10.340057373046875,40.11198043823242,0
461,4610114,-0.05034973844885826,0.007884252816438675,-0.9855860471725464,-1.0468560457229614,0.008800310082733631,0.41454246640205383,31.766340255737305,-11.649569511413574,38.624202728271484,0
462,4620072,0.006732434034347534,-0.007040116004645824,-0.9924678802490234,0.48170915246009827,-0.324404239654541,0.4400434195995331,28.783998489379883,-10.52761173248291,41.71908950805664,0
463,4630020,0.05027344822883606,0.005718747619539499,-0.9875789284706116,0.701022744178772,-0.859908938407898,-0.8234034180641174,30.28240966796875,-8.439445495605469,39.93287658691406,0
464,4639989,0.05555924400687218,0.014104885049164295,-1.0203707218170166,0.20647065341472626,-0.1408899575471878,-0.39880019426345825,29.7110538482666,-11.218193054199219,38.611148834228516,0
465,4649978,-0.012526694685220718,-0.014222417958080769,-0.9933372139930725,-0.9478336572647095,0.23457741737365723,-0.10258749127388,28.046974182128906,-10.124296188354492,40.7866096496582,0
466,4660129,0.0029914153274148703,-0.0365152508020401,-0.9845787286758423,-0.31175562739372253,0.2565682530403137,-0.8383108973503113,30.303268432617188,-9.937583923339844,40.451881408691406,0
467,4670185,0.0387035608291626,-0.02488618902862072,-0.9925488829612732,-0.3805554211139679,-0.4043788015842438,0.2147279530763626,30.0824031829834,-10.194290161132812,41.88862609863281,0
468,4679967,-0.0343414805829525,-0.03633155673742294,-0.9934670329093933,-0.29669076204299927,0.26495352387428284,0.232046440243721,30.943408966064453,-9.285213470458984,39.60266876220703,0
469,4689717,0.02781248465180397,-0.018704336136579514,-0.994350790977478,0.6461115479469299,0.0838407427072525,0.009981570765376091,29.755050659179688,-9.995851516723633,39.06510543823242,0
470,4699919,-0.008571172133088112,0.0644710436463356,-0.9790692329406738,0.2531736195087433,-0.048676498234272,0.3741045594215393,31.06632423400879,-11.047651290893555,40.33795166015625,0
471,4710058,-0.08511443436145782,-0.0067066592164337635,-1.0413618087768555,-0.012371696531772614,-0.9792184233665466,-0.4156307876110077,30.71382713317871,-8.097512245178223,41.15486145019531,0
472,4719886,-0.03053201548755169,0.02493647299706936,-0.9611154198646545,0.26168927550315857,0.20862466096878052,-0.2871223986148834,30.776039123535156,-8.916254043579102,39.54597091674805,0
473,4730219,0.052507299929857254,0.030249442905187607,-0.9967026114463806,-0.7978584170341492,-0.629448652267456,0.6613337397575378,27.653921127319336,-9.68922233581543,38.59832000732422,0
474,4739823,-0.021423151716589928,-0.0313638336956501,-0.9842477440834045,0.19202648103237152,-0.40023669600486755,0.2256571352481842,27.985671997070312,-10.104635238647461,38.46030807495117,0
475,4750085,-0.06727322936058044,-0.06777720153331757,-1.0126265287399292,0.5606555342674255,0.06937216967344284,-0.5278151035308838,29.6906681060791,-7.925536155700684,40.98652648925781,0
476,4759870,0.04158971086144447,-0.052094716578722,-0.9887688755989075,-0.2127247452735901,0.6679465174674988,0.146762415766716,29.28960609436035,-10.310540199279785,39.814544677734375,0
477,4769842,0.14157643914222717,0.043143514543771744,-0.9777094125747681,-0.3901437222957611,-0.748989462852478,-0.014364119619131088,30.840669631958008,-11.410083770751953,38.85008239746094,0
478,4779787,0.033726826310157776,-0.06149812415242195,-1.006182312965393,0.12533336877822876,0.3843366205692291,0.12575572729110718,29.37932586669922,-9.983763694763184,39.78108596801758,0
479,4789988,0.010834003798663616,0.00945759192109108,-1.0053168535232544,0.021205797791481018,-0.725045382976532,0.2909148335456848,30.834428787231445,-8.871644973754883,38.64079284667969,0
480,4799784,-0.02311975695192814,-0.023859858512878418,-0.9874555468559265,-0.6840951442718506,-0.1999906450510025,-0.1691044569015503,29.80387306213379,-10.738565444946289,41.16722869873047,0
481,4809975,-0.0161422248929739,-0.019078947603702545,-1.0065034627914429,-0.3541632890701294,0.17225100100040436,-0.2168135941028595,29.755617141723633,-10.559425354003906,39.9532356262207,0
482,4820359,0.1541500985622406,0.06651376187801361,-1.0132207870483398,-0.5408474206924438,0.2304222583770752,0.4092044532299042,30.093994140625,-10.580948829650879,38.926116943359375,0
483,4830125,-0.0035023509990423918,0.020397882908582687,-0.9955050945281982,-0.5369376540184021,-0.3299739956855774,0.6011160612106323,29.659692764282227,-9.999236106872559,39.55308151245117,0
484,4839689,-0.013186996802687645,0.036304913461208344,-1.0059069395065308,0.09948837012052536,-0.2772873044013977,-0.3908408284187317,29.203693389892578,-9.315455436706543,40.31338882446289,0
485,4849824,0.0345899760723114,0.008537918329238892,-1.0000876188278198,-0.5240413546562195,0.37536734342575073,0.10613761842250824,29.260902404785156,-8.274065017700195,40.74042510986328,0
486,4860007,-0.004370329901576042,0.020520882681012154,-1.0134618282318115,-0.3463634252548218,-0.10906558483839035,0.14211635291576385,30.090742111206055,-10.202742576599121,39.83412170410156,0
487,4869855,0.09906108677387238,-0.044653039425611496,-0.9689847230911255,-0.498651921749115,0.28591570258140564,0.3707695007324219,28.7459774017334,-9.927634239196777,41.178409576416016,0
488,4880023,0.039276525378227234,0.07537300139665604,-0.9993361830711365,-0.19863007962703705,-0.5483106970787048,0.42315706610679626,30.939455032348633,-10.728123664855957,39.10192108154297,0
489,4889926,-0.042323775589466095,0.004869953729212284,-1.012137532234192,0.762072741985321,0.24577808380126953,0.028655000030994415,31.204652786254883,-11.343473434448242,39.8506965637207,0
490,4899888,0.01252060942351818,-0.05644098296761513,-1.0062819719314575,-0.5989606976509094,0.37113064527511597,0.8642069101333618,31.088457107543945,-9.711283683776855,40.08365249633789,0
491,4909924,0.07924482971429825,0.0647883415222168,-1.0213613510131836,-0.3278295695781708,-0.47433626651763916,0.13597066700458527,29.691877365112305,-10.397309303283691,40.244571685791016,0
492,4919995,-0.0740223377943039,-0.003387201577425003,-1.017080307006836,-0.9578664302825928,-0.8057863712310791,0.17940056324005127,29.057783126831055,-10.004115104675293,39.998313903808594,0
493,4930219,0.014267947524785995,0.03650218993425369,-0.9946856498718262,-0.7710561752319336,-0.7391424179077148,-0.19457365572452545,30.87148666381836,-11.014348983764648,40.07651138305664,0
494,4939726,-0.058482807129621506,0.016040029004216194,-1.0032655000686646,0.4457017779350281,0.03364931792020798,-0.6977221965789795,29.729938507080078,-11.279038429260254,40.159393310546875,0
495,4950148,-0.022832395508885384,-0.005769718904048204,-0.9704406261444092,-0.8273627758026123,0.11478462815284729,-0.37577781081199646,29.941951751708984,-12.83513355255127,39.51935958862305,0
496,4960158,-0.02644382417201996,-0.03961274400353432,-0.9990581274032593,0.3614712953567505,0.36186134815216064,0.6282452344894409,30.263273239135742,-12.766144752502441,40.36518478393555,0
497,4970174,-0.02558068372309208,-0.024073269218206406,-0.9840030074119568,0.7069079875946045,0.6417020559310913,0.28524264693260193,30.892894744873047,-10.215341567993164,39.83797836303711,0
498,4979900,0.007159234490245581,0.027494464069604874,-1.007866621017456,-0.41692182421684265,0.31522518396377563,0.1325562745332718,30.95661735534668,-8.92390251159668,40.02014923095703,0
499,4989915,-0.0326739065349102,0.0019590032752603292,-0.9835824966430664,0.4231756329536438,0.18703116476535797,1.2867825031280518,29.972122192382812,-10.786026000976562,40.98067092895508,0
500,5000084,-0.10201423615217209,-0.039274197071790695,-1.0135776996612549,-0.2967226803302765,-0.24512310326099396,-0.20144639909267426,30.93592643737793,-9.986473083496094,38.218711853027344,0
501,5010016,0.05708939582109451,-0.014668863266706467,-0.9742448925971985,-1.0100747346878052,0.2157915234565735,-0.7756744027137756,27.71237564086914,-8.27789306640625,39.176109313964844,0
502,5020065,-0.05912385508418083,-0.002875763224437833,-1.0116283893585205,-0.10974300652742386,0.40183135867118835,-0.05993331968784332,30.47303581237793,-8.123383522033691,40.12893295288086,0
503,5029997,0.03255560249090195,0.003184565342962742,-0.9551247358322144,-0.9193803071975708,0.22629454731941223,0.21325360238552094,30.236570358276367,-9.049234390258789,40.082603454589844,0
504,5039727,0.02062762901186943,-0.01110711507499218,-1.0110799074172974,0.2863171100616455,0.2230643332004547,0.29219937324523926,30.726524353027344,-11.067906379699707,40.08967590332031,0
505,5050235,-0.022090530022978783,-0.047364816069602966,-1.0510550737380981,0.28993386030197144,0.6894043684005737,-0.9442039728164673,31.085845947265625,-9.748029708862305,40.561798095703125,0
506,5059645,-0.07513979077339172,0.028998998925089836,-1.0190939903259277,0.19796238839626312,-0.8695508241653442,-0.34727734327316284,29.506576538085938,-9.81219482421875,39.557037353515625,0
507,5069956,0.03880482167005539,-0.015094338916242123,-0.9733314514160156,-0.06704343110322952,-0.7510520219802856,-0.6974403262138367,30.061946868896484,-10.077232360839844,40.74091339111328,0
508,5079886,-0.01483963057398796,-0.10061711817979813,-0.9894653558731079,-0.283032089471817,0.43446269631385803,0.13935664296150208,31.615150451660156,-10.365777015686035,39.69221496582031,0
509,5090045,-0.0580579973757267,-0.022807855159044266,-1.0269397497177124,-0.6448771357536316,0.37155216932296753,-0.21809597313404083,29.263296127319336,-10.13655948638916,38.87843704223633,0
510,5099959,-0.06013688072562218,-0.020877057686448097,-1.020921230316162,-0.18879471719264984,0.3011930286884308,-0.36592012643814087,30.29805564880371,-10.079095840454102,40.58134078979492,0
511,5109850,0.018168197944760323,0.08795014023780823,-1.01641845703125,-0.22104573249816895,-0.6362076997756958,0.7274063229560852,29.72589683532715,-9.842692375183105,37.9891242980957,0
512,5120184,-0.032523345202207565,0.028818391263484955,-1.007205605506897,0.4671419858932495,0.7194643616676331,0.286349892616272,29.497840881347656,-9.384217262268066,41.07141876220703,0
513,5129978,0.01451757550239563,0.03290554881095886,-0.9751976132392883,-0.2973080277442932,0.4563748836517334,0.1530168354511261,29.15691375732422,-9.879434585571289,39.79060363769531,0
514,5139997,9.292831236962229e-05,0.08944141119718552,-1.0157389640808105,-0.10401877760887146,-0.16019965708255768,1.0135326385498047,31.598026275634766,-10.710527420043945,40.72787094116211,0
515,5150187,0.062630794942379,0.03435494378209114,-0.988974392414093,0.9327506422996521,0.30513495206832886,-0.33138346672058105,29.883819580078125,-9.63241958618164,39.24373245239258,0
516,5160053,-0.009313760325312614,0.0728025883436203,-0.9803332090377808,0.779910147190094,0.09474357217550278,0.03759491816163063,30.364154815673828,-11.340930938720703,39.73122024536133,0
517,5169918,0.0033042188733816147,0.04045058786869049,-0.9621345400810242,-0.10804573446512222,0.3223074972629547,-0.18799026310443878,28.179546356201172,-9.902482032775879,40.446537017822266,0
518,5180059,0.010343245230615139,0.08805446326732635,-0.9876701235771179,1.1669440269470215,-0.3849315345287323,-0.23351669311523438,30.29444694519043,-11.359781265258789,38.11066818237305,0
519,5190199,-0.033567238599061966,-0.05691943317651749,-1.0335372686386108,0.04622631520032883,0.31062793731689453,0.6802769899368286,30.860868453979492,-9.706379890441895,40.64644241333008,0
520,5200018,-0.06070081889629364,0.1003960445523262,-1.0008004903793335,0.5989527702331543,-0.33489570021629333,-0.36236733198165894,29.55042839050293,-9.615166664123535,39.97370529174805,0
521,5209809,0.07742562144994736,-0.1013675406575203,-1.0088000297546387,-0.40872544050216675,0.24667802453041077,0.5932045578956604,29.742023468017578,-9.249194145202637,39.10872268676758,0
522,5219825,-0.0387742854654789,0.06125855818390846,-0.9874626994132996,-0.024851027876138687,-0.932106077671051,-0.7985172271728516,29.201425552368164,-9.950571060180664,41.029483795166016,0
523,5229889,-0.042169731110334396,0.02732781693339348,-0.97214275598526,-0.24036350846290588,0.9490485787391663,-0.48481762409210205,31.76095962524414,-11.127535820007324,41.51730728149414,0
524,5240104,0.0686834529042244,-0.02117031253874302,-0.9925395250320435,0.2234707921743393,0.48787590861320496,-0.0014669941738247871,29.452709197998047,-10.376425743103027,39.244197845458984,0
525,5250169,0.006772863678634167,-0.10985064506530762,-0.9918655157089233,0.22021035850048065,0.04767467826604843,-0.14191098511219025,28.333843231201172,-10.751570701599121,39.35985565185547,0
526,5260093,-0.05207681655883789,0.0354493148624897,-1.0116060972213745,-0.9955156445503235,-1.0028189420700073,0.16454549133777618,28.85936737060547,-8.012090682983398,39.595794677734375,0
527,5269760,-0.044582828879356384,-0.05532999709248543,-0.9767245054244995,0.30889761447906494,-0.7346783876419067,0.13370083272457123,30.629255294799805,-9.139139175415039,39.33867645263672,0
528,5280180,0.016596637666225433,-0.05643260106444359,-1.024023413658142,0.2924657166004181,-0.4897737205028534,-0.6917847394943237,29.22450065612793,-8.561606407165527,40.71329116821289,0
529,5289989,0.06339237093925476,0.04816698655486107,-0.9766650199890137,0.9177863597869873,-0.5661972165107727,-0.060653023421764374,29.20199966430664,-11.064383506774902,38.4720344543457,0
530,5299933,-0.024964623153209686,0.04441899433732033,-0.9911231398582458,-0.1494978368282318,0.09154265373945236,-0.6036489605903625,28.57777214050293,-11.121336936950684,39.1579475402832,0
531,5309844,0.03632452338933945,-0.09641768038272858,-1.000466227531433,0.5155249834060669,-0.24407929182052612,-0.22214873135089874,29.454524993896484,-10.703547477722168,38.42470932006836,0
532,5320022,0.07343434542417526,0.02032029628753662,-1.021781325340271,-0.6831372380256653,0.05450643226504326,-0.816845178604126,30.700109481811523,-8.968008995056152,37.964054107666016,0
533,5329827,-0.015006845816969872,-0.053854331374168396,-1.003419041633606,0.31456631422042847,0.741266131401062,-0.5512689352035522,30.714244842529297,-10.776171684265137,39.72389602661133,0
534,5340090,-0.048095982521772385,-0.08152690529823303,-1.0302584171295166,-0.17502570152282715,-0.5869289040565491,1.5747239589691162,30.456912994384766,-9.809810638427734,40.33038330078125,0
535,5349876,0.011168194003403187,0.06278607994318008,-0.997251570224762,0.2627226412296295,-0.22827774286270142,-1.6917550563812256,30.919878005981445,-9.136161804199219,39.0809326171875,0
536,5360076,-0.08918426185846329,-0.04869317635893822,-0.9901981353759766,0.24054235219955444,0.06518200784921646,-1.3131191730499268,29.51742935180664,-10.332709312438965,39.35544967651367,0
537,5370005,-0.015834813937544823,-0.02211586944758892,-0.991396963596344,-0.3928324580192566,0.03765297681093216,0.20267236232757568,31.419721603393555,-11.12067985534668,39.98258972167969,0
538,5380220,-0.02105538733303547,0.0014869000297039747,-1.0002583265304565,-0.21085815131664276,0.4323335587978363,0.3582049310207367,29.958759307861328,-9.656795501708984,41.16701889038086,0
539,5390146,-0.038613636046648026,-0.01428059209138155,-1.007765769958496,0.09746802598237991,-0.1222611516714096,-0.9237988591194153,29.967491149902344,-9.624537467956543,39.3831787109375,0
540,5400039,-0.11067649722099304,0.05955204740166664,-1.038057804107666,0.19421246647834778,-0.983752429485321,0.16863229870796204,30.65795135498047,-10.463883399963379,42.12380599975586,0
541,5410072,-0.0739927738904953,0.06564125418663025,-1.0171276330947876,0.3148788511753082,-0.1349313110113144,-0.29360368847846985,29.905221939086914,-10.340478897094727,40.2194709777832,0
542,5419746,-0.035237859934568405,0.07386522740125656,-0.997125506401062,-0.44857117533683777,-0.023459987714886665,-0.16477134823799133,30.167362213134766,-12.583515167236328,38.93024444580078,0
543,5430112,-0.05037572979927063,-0.03940901905298233,-0.9917910695075989,0.1916445642709732,0.1370711475610733,0.660467267036438,29.078947067260742,-11.302403450012207,40.884315490722656,0
544,5440035,0.05178515613079071,-0.004743325524032116,-1.0158213376998901,0.03723839670419693,-0.2570895850658417,0.7415997982025146,31.697662353515625,-11.055465698242188,38.94490051269531,0
545,5449836,0.013649008236825466,0.10168222337961197,-0.9858562350273132,0.4095233082771301,-0.0046194917522370815,-0.3250729739665985,30.162717819213867,-10.709912300109863,41.61317443847656,0
546,5460097,0.0063445111736655235,-0.07722397893667221,-1.0153822898864746,0.07358621060848236,-0.29299306869506836,0.27006620168685913,29.478300094604492,-9.759710311889648,38.80245590209961,0
547,5469930,-0.05932009592652321,-0.008927000686526299,-0.9968171715736389,-0.1284121423959732,0.03194055333733559,-0.041004255414009094,30.158634185791016,-11.153602600097656,39.63897705078125,0
548,5479781,-0.009236056357622147,0.08005186170339584,-0.9870343804359436,-0.04175174981355667,0.6249738931655884,0.0375940278172493,30.47930335998535,-11.388916969299316,39.85533905029297,0
549,5490081,-0.007930180989205837,0.04848327487707138,-1.0095919370651245,0.32970863580703735,0.7605082392692566,0.1321909874677658,29.78301239013672,-10.673691749572754,38.54168701171875,0
550,5499617,0.021574916318058968,0.006933526135981083,-0.9972779750823975,0.6191385984420776,-0.47962039709091187,0.04202227666974068,28.725797653198242,-9.971863746643066,38.25758743286133,0
551,5509993,-0.05470084398984909,-0.009551478549838066,-0.9942450523376465,0.005242964252829552,0.28104540705680847,0.07523570954799652,28.074420928955078,-11.247886657714844,38.91712951660156,0
552,5520024,0.00020484749984461814,0.028489531949162483,-1.0008111000061035,0.832380473613739,-0.07722649723291397,-0.09085870534181595,30.77952766418457,-10.08226490020752,37.958030700683594,0
553,5530078,0.059307411313056946,-0.03315631300210953,-0.9957724809646606,-0.3445344865322113,-0.04552290588617325,0.6057272553443909,30.18510627746582,-10.184919357299805,38.29568862915039,0
554,5540222,-0.003019304946064949,0.07420314848423004,-0.986570417881012,0.5123241543769836,-0.23388120532035828,0.2191779464483261,29.540409088134766,-12.313557624816895,41.463653564453125,0
555,5549906,-0.010241223499178886,-0.0030700848437845707,-1.0208607912063599,0.3336598575115204,0.9809554815292358,0.542604923248291,29.443925857543945,-8.761290550231934,40.536537170410156,0
556,5559796,-0.035580310970544815,-0.01810002513229847,-0.9906501173973083,1.009990930557251,0.11569144576787949,-0.4780829846858978,29.90718650817871,-8.755324363708496,39.76506423950195,0
557,5569850,-0.008191777393221855,0.08753600716590881,-0.9951645135879517,0.22754888236522675,-0.37479475140571594,0.2099829912185669,30.283222198486328,-10.737897872924805,38.87562561035156,0
558,5579840,0.07727230340242386,0.04388417676091194,-0.997774064540863,0.5666768550872803,0.2558499276638031,0.3808854818344116,30.49641990661621,-10.461748123168945,40.64445114135742,0
559,5590233,-0.07577583938837051,-0.03604213148355484,-1.0067120790481567,0.7801183462142944,0.2704221308231354,-0.5965830683708191,30.00002098083496,-10.488600730895996,40.96583938598633,0
560,5600112,0.010450823232531548,0.030072342604398727,-1.006718397140503,0.14171789586544037,0.7320171594619751,-0.45051440596580505,30.38153648376465,-9.517004013061523,41.278499603271484,0
561,5609854,0.06101631373167038,0.0680413767695427,-0.974153995513916,-0.3602735698223114,0.5786945223808289,0.25552570819854736,30.66983985900879,-10.899944305419922,40.79730987548828,0
562,5619842,0.06027446314692497,-0.08807770162820816,-1.0263820886611938,0.09740132093429565,0.4106247127056122,0.3956795036792755,31.286113739013672,-8.845085144042969,40.34629821777344,0
563,5630006,-0.009015465155243874,-0.02491610310971737,-1.002459168434143,0.44816267490386963,-0.3520856499671936,0.1024426519870758,30.565990447998047,-8.386635780334473,38.29167938232422,0
564,5639876,0.028076795861124992,-0.06607861071825027,-1.0039867162704468,0.6397923231124878,0.2625369727611542,-0.38986533880233765,29.76938247680664,-11.095688819885254,39.7624626159668,0
565,5650081,-0.08811288326978683,0.04051456227898598,-1.0662257671356201,0.440219521522522,1.093703031539917,0.6785798668861389,28.27529525756836,-10.184239387512207,40.444637298583984,0
566,5659972,-0.06082538887858391,0.10871751606464386,-1.0107593536376953,0.39702263474464417,-0.2970788776874542,0.6024630665779114,29.57332420349121,-10.922086715698242,40.082942962646484,0
567,5670056,0.019651254639029503,-0.05554283782839775,-1.0081751346588135,-0.5701400637626648,-0.8227631449699402,-0.0235613863915205,27.577167510986328,-9.43970012664795,40.0700798034668,0
568,5679565,0.06092345342040062,0.012616092339158058,-1.0106184482574463,0.0832061767578125,-0.3289591372013092,0.023987045511603355,31.787979125976562,-10.32906436920166,38.95155715942383,0
569,5690153,0.04332960024476051,-0.06797607243061066,-0.9776324033737183,-0.7101778984069824,0.014633553102612495,0.03264576569199562,30.114086151123047,-8.57980728149414,41.05708312988281,0
570,5700032,0.01281917467713356,0.04439361393451691,-1.0468378067016602,-0.3260556161403656,-0.03289647027850151,-0.10020773112773895,29.62693977355957,-9.470573425292969,38.731117248535156,0
571,5710004,0.030745703727006912,0.04690669849514961,-0.9763073921203613,-0.7100272178649902,0.7904820442199707,0.008157575502991676,30.03021812438965,-10.322500228881836,39.77632141113281,0
572,5720100,-0.0367630198597908,0.0661158338189125,-0.999621570110321,0.16021445393562317,-0.049051206558942795,-0.10867184400558472,29.635211944580078,-10.933852195739746,39.5426025390625,0
573,5730000,0.00997612252831459,-0.03900614753365517,-1.024222493171692,-0.327198326587677,0.6395822167396545,0.5291643738746643,30.82171058654785,-9.567610740661621,39.069435119628906,0
574,5739784,-0.03534400463104248,-0.035430263727903366,-1.0059254169464111,-0.2120800018310547,0.021390601992607117,-0.1625724732875824,30.13103485107422,-10.704057693481445,39.63220977783203,0
575,5750178,0.0016573466127738357,0.008647149428725243,-0.9950050115585327,-0.316245436668396,-0.21945255994796753,-0.3051915466785431,29.409360885620117,-8.876919746398926,39.316463470458984,0
576,5760192,-0.022307967767119408,-0.06891198456287384,-0.9951446056365967,1.0903334617614746,-0.6652925610542297,-0.5412299633026123,30.96862030029297,-10.71057415008545,38.25754928588867,0
577,5769947,0.1811641901731491,0.05119901895523071,-0.9612250924110413,0.21994492411613464,0.039934005588293076,0.6749445796012878,31.16155242919922,-9.583218574523926,40.42877960205078,0
578,5780016,-0.06953544914722443,-0.005115326028317213,-0.9526990652084351,-0.12339025735855103,-0.07664581388235092,0.2394205629825592,30.349212646484375,-11.258920669555664,39.11457443237305,0
579,5789756,-0.027236059308052063,-0.06575275957584381,-1.0218783617019653,0.9820342659950256,-0.46757376194000244,0.4432591199874878,30.078908920288086,-8.675284385681152,40.02225875854492,0
580,5799711,-0.10390309244394302,-0.020208057016134262,-1.0243520736694336,-0.7791533470153809,-0.25489869713783264,-0.5979506969451904,30.157238006591797,-11.44700813293457,39.37726974487305,0
581,5810234,0.04717934504151344,0.020227110013365746,-0.9448668360710144,0.019312109798192978,0.24285298585891724,-0.04856106638908386,29.79668617248535,-12.166877746582031,41.43397521972656,0
582,5820072,-0.033688049763441086,-0.03911181911826134,-0.9905990958213806,0.020218107849359512,-0.2976037263870239,0.772413432598114,29.45281410217285,-9.04735279083252,40.91542053222656,0
583,5829958,0.08194079250097275,0.03857879340648651,-1.0086431503295898,0.1534947007894516,0.22722916305065155,0.06204181909561157,28.2936954498291,-9.917705535888672,40.32614517211914,0
584,5840194,-0.06756197661161423,-0.02213275618851185,-0.9747716784477234,-0.3277720510959625,-0.5513420701026917,-0.33680230379104614,29.536787033081055,-10.268272399902344,38.36789321899414,0
585,5849931,0.0878865048289299,-0.008823397569358349,-0.980307400226593,-0.8160504102706909,-0.023744480684399605,0.5179151296615601,30.32373809814453,-8.524330139160156,38.98526382446289,0
586,5859802,0.02219805307686329,0.0762770026922226,-1.0072733163833618,0.553645133972168,0.07333765923976898,0.03223761171102524,30.327075958251953,-9.903782844543457,38.79050064086914,0
587,5869863,0.055411532521247864,-0.03282175213098526,-0.9728801846504211,0.04145730286836624,-0.5608717203140259,-1.2326709032058716,28.142854690551758,-8.901317596435547,40.11653518676758,0
588,5880098,0.043157149106264114,-0.01197546161711216,-0.977914035320282,-0.1984703242778778,-0.5646090507507324,0.6603879332542419,30.86435317993164,-10.609174728393555,41.05720138549805,0
589,5889816,-0.036386579275131226,-0.03828482702374458,-0.9825641512870789,-0.0036146235652267933,0.0772969126701355,0.023399408906698227,30.57273292541504,-9.657025337219238,42.214385986328125,0
590,5900074,0.04912102222442627,0.008624916896224022,-0.9857490658760071,0.06111058220267296,0.8087263107299805,0.14082841575145721,28.958627700805664,-10.23334789276123,40.34720230102539,0
591,5909961,0.028434209525585175,-0.040883421897888184,-0.9904369711875916,-0.024375205859541893,-0.1378134936094284,0.19817228615283966,30.46963119506836,-10.856992721557617,39.13656234741211,0
592,5919758,0.0394304133951664,0.012871317565441132,-1.000134825706482,-0.577689528465271,-0.27307817339897156,0.5988824963569641,29.09902000427246,-10.583929061889648,40.136962890625,0
593,5930037,-0.004217525944113731,0.056479740887880325,-1.006178379058838,0.3755985498428345,-0.20589491724967957,0.3296443521976471,29.617088317871094,-10.543195724487305,40.11384201049805,0
594,5939975,0.013568531721830368,-0.026422595605254173,-0.9829938411712646,-0.040260445326566696,-0.7086693644523621,0.5530020594596863,30.084190368652344,-10.505631446838379,38.87652587890625,0
595,5950006,0.07646334171295166,-0.03482925146818161,-1.0129714012145996,-1.0511860847473145,0.06107671931385994,-0.14721804857254028,28.83141326904297,-10.864816665649414,40.16643524169922,0
596,5960367,0.036099497228860855,0.038228102028369904,-1.0117614269256592,0.30087801814079285,-0.2898552417755127,-0.5886094570159912,29.39961051940918,-9.89268970489502,40.170528411865234,0
597,5969939,0.05441728234291077,0.04772178456187248,-0.9925317764282227,0.7613869905471802,0.5223919749259949,-0.5071011781692505,28.59154510498047,-10.842378616333008,39.626014709472656,0
598,5980223,-0.00883740745484829,-0.08144807070493698,-0.9986636638641357,-0.36286526918411255,0.7159850597381592,0.2092672735452652,27.89691162109375,-8.997292518615723,39.1033935546875,0
599,5989946,0.025213973596692085,0.06529470533132553,-0.9908260107040405,0.22653867304325104,-0.63437819480896,-0.0611165314912796,29.503643035888672,-9.16926097869873,41.468929290771484,0
600,6000252,0.008804425597190857,0.005326228216290474,-0.9973767399787903,-0.6314204931259155,-0.18019774556159973,-0.15164093673229218,28.038166046142578,-8.995505332946777,39.230369567871094,0
601,6010144,-0.01766393706202507,0.06111704930663109,-1.0003055334091187,-0.3447224199771881,-0.47967591881752014,0.34773796796798706,29.338382720947266,-9.605330467224121,40.56583786010742,0
602,6020060,-0.010371548123657703,0.028489526361227036,-0.9816332459449768,1.0501888990402222,-0.10752233117818832,-0.555314302444458,29.92793083190918,-9.905631065368652,39.74604034423828,0
603,6029894,0.07285366952419281,-0.014965180307626724,-1.0075812339782715,-0.24625641107559204,-0.28670740127563477,0.549716055393219,30.740079879760742,-10.728777885437012,39.10818099975586,0
604,6040020,0.023411648347973824,-0.014911762438714504,-0.98682701587677,0.29617244005203247,0.09811046719551086,0.6151564121246338,31.87651824951172,-9.396036148071289,40.264442443847656,0
605,6049918,-0.04822511598467827,0.12066348642110825,-1.005793809890747,0.49293771386146545,-0.0193011574447155,0.7529988884925842,29.414962768554688,-9.561627388000488,39.86309051513672,0
606,6059860,0.025624815374612808,-0.06717214733362198,-1.0209804773330688,0.2967574894428253,0.3848588764667511,0.07791312038898468,29.70728874206543,-10.547484397888184,39.717437744140625,0
607,6070106,-0.06715815514326096,0.038741547614336014,-1.0422271490097046,0.26504576206207275,-0.02973008155822754,0.188951775431633,30.615144729614258,-8.550625801086426,39.54961395263672,0
608,6079766,0.0040650684386491776,0.010157766751945019,-1.018750548362732,0.45909202098846436,-0.5440506935119629,0.3306780755519867,29.445228576660156,-11.404211044311523,40.44178771972656,0
609,6090125,0.03733038529753685,0.10915043950080872,-0.9959884285926819,-0.19811885058879852,0.6074842810630798,0.09289855509996414,30.630338668823242,-9.383865356445312,40.04225158691406,0
610,6099867,0.03684728220105171,0.052875909954309464,-1.0026915073394775,1.2616426944732666,0.7469285726547241,0.5022391676902771,29.277799606323242,-10.39102840423584,38.990116119384766,0
611,6109733,-0.09278134256601334,-0.05830494314432144,-1.02656090259552,-0.837814211845398,-0.11130727082490921,0.15965469181537628,29.933658599853516,-8.440064430236816,41.678306579589844,0
612,6119839,-0.018684402108192444,0.018430368974804878,-1.0096721649169922,-0.19562533497810364,-0.04799022898077965,-0.7039781808853149,30.859804153442383,-9.200668334960938,39.69758987426758,0
613,6129946,0.06585000455379486,-0.01350207906216383,-0.9891086220741272,-0.142200767993927,-0.13725042343139648,0.10914410650730133,31.53012466430664,-11.906006813049316,40.42631912231445,0
614,6139875,0.043504901230335236,-0.05845242738723755,-1.0038809776306152,-0.2696969211101532,0.5728335380554199,-0.8082384467124939,31.01266860961914,-10.174386024475098,40.19108963012695,0
615,6150004,0.019264867529273033,-0.03703621029853821,-0.9887832999229431,0.10660003870725632,-0.8541087508201599,-1.232208251953125,29.760324478149414,-10.182332038879395,40.608642578125,0
616,6159959,0.02422826550900936,0.02003605291247368,-1.0087757110595703,0.025921886786818504,-0.7104554772377014,0.9561853408813477,29.269777297973633,-10.997142791748047,39.529937744140625,0
617,6170096,0.010664816945791245,0.05991758033633232,-0.9890492558479309,0.02107110805809498,0.7824229598045349,0.217917799949646,29.02606201171875,-9.788270950317383,40.79697799682617,0
618,6179956,-0.08012764900922775,-0.010428930632770061,-1.0090514421463013,-0.06210809201002121,-1.2446105480194092,0.7741619944572449,30.13069725036621,-11.005037307739258,39.74137878417969,0
619,6190268,-0.09124237298965454,-0.04011218249797821,-0.9764242172241211,-0.6745718121528625,0.6916065812110901,-0.8007392287254333,30.409404754638672,-9.285229682922363,39.29212951660156,0
620,6200037,0.027556052431464195,-0.022481855005025864,-1.0128000974655151,-0.019472917541861534,-0.057383522391319275,0.2677530348300934,28.690458297729492,-11.241411209106445,40.40217971801758,0
621,6210204,0.033412426710128784,-0.14594337344169617,-1.0125417709350586,0.5632448196411133,-0.6468234062194824,-0.10423556715250015,30.40799331665039,-10.955368041992188,38.83561325073242,0
622,6220069,0.021000554785132408,-0.003963270224630833,-1.0004570484161377,0.2998324930667877,-0.2377985417842865,0.5632986426353455,30.945180892944336,-11.101356506347656,39.73453903198242,0
623,6230058,-0.00041947822319343686,0.02504185028374195,-0.9730902910232544,-0.15833908319473267,-0.13791173696517944,0.10591775923967361,30.426889419555664,-10.406664848327637,39.438072204589844,0
624,6239991,0.09549794346094131,0.019179455935955048,-1.0208579301834106,-0.33289289474487305,-0.21556827425956726,-0.023797746747732162,30.777793884277344,-8.885212898254395,41.032737731933594,0
625,6250086,-0.01299281232059002,0.047900743782520294,-0.9849435091018677,-0.7398096323013306,-1.0223939418792725,0.22009769082069397,30.412752151489258,-11.244401931762695,42.45456314086914,0
626,6260256,-0.013658737763762474,-0.056960396468639374,-1.002389907836914,0.02676013670861721,0.02981252782046795,0.21373231709003448,29.141517639160156,-11.63746166229248,41.13353729248047,0
