time_ms,ax,ay,az,gx,gy,gz,mx,my,mz,roll_cf,pitch_cf,yaw_cf,roll_kf,pitch_kf,yaw_kf
10,0.1856,0.0694,9.7861,-0.3733,0.2319,0.5065,29.9622,-9.864,41.0111,1.3892,-0.5272,1.2016,0.8694,0.8979,0.8289
22,-0.0475,-0.0679,9.7689,-0.0433,-0.0552,0.3541,29.8544,-12.2023,40.7212,0.0781,-0.5624,1.0277,0.8772,-0.9814,-1.6157
96,0.0623,-0.0928,9.8314,0.0132,0.3783,0.6183,30.1759,-10.6274,40.4308,0.9604,-1.2196,2.4413,-0.0796,0.7401,-0.3936
106,-0.0083,0.1232,9.8663,-0.3104,0.7751,0.2927,28.7969,-10.7487,39.4215,0.2472,0.259,0.9961,1.1353,0.8994,0.3889
117,-0.0076,-0.0068,9.8087,0.5335,0.076,0.7445,29.4079,-12.3755,40.4201,0.6607,-0.1863,-0.1799,1.5888,1.2875,1.3531
128,-0.0534,0.0412,9.7702,-0.061,0.431,-0.6861,29.0958,-9.9423,39.9401,-0.6177,0.0269,-0.6246,-0.9428,0.5219,-0.6507
138,0.0069,-0.1337,9.7706,-0.4138,-0.1661,-0.7693,30.6253,-9.3568,39.3419,1.668,-0.7865,0.0527,-1.6772,-1.6366,-0.6224
150,0.0066,0.1249,9.8685,0.2276,0.5552,0.9182,27.9016,-11.0562,40.2088,-0.5733,0.2988,-0.4897,-0.1808,0.1707,-0.648
161,0.0278,0.0025,9.7858,-0.4329,-0.0733,1.0268,30.0417,-10.0447,39.4423,0.8912,-1.2922,-0.1028,-0.6501,-0.6165,-0.4711
172,-0.1651,0.2127,9.7915,0.2882,0.0256,-0.0577,29.8215,-8.5497,40.8923,0.7767,-2.2685,-1.7194,-2.0222,-1.8624,0.2033
187,-0.2241,0.0342,9.7881,-0.5906,0.302,-0.0266,28.9434,-9.4207,38.3589,0.2885,-1.5214,0.3332,-0.8208,-0.2362,-1.193
197,0.102,-0.1368,9.8372,-0.3358,0.3934,0.0244,28.3304,-8.498,39.1005,-0.2203,1.332,1.548,0.2462,-2.0749,-0.454
208,0.1702,-0.0776,9.8074,-0.5162,-0.9193,-0.8091,30.5114,-8.9506,39.2892,0.2775,0.7212,0.6669,-0.4537,0.4516,-1.5872
218,0.1067,0.0476,9.8434,0.169,0.428,-0.2083,30.0879,-8.1448,39.2434,0.9369,1.2831,-0.2438,-1.8752,1.0276,0.1464
230,-0.0443,0.1816,9.6972,0.2904,0.1108,0.003,28.3619,-10.4373,40.9854,0.8013,0.3651,-1.662,0.1458,-2.2726,-1.2839
241,-0.1192,0.0729,9.8199,-0.1562,-0.305,-0.3178,29.3994,-8.6738,40.1497,1.9738,-0.7758,0.1977,1.4502,0.7357,-1.6851
252,-0.0099,-0.1712,9.8125,-0.2925,-0.047,1.1258,29.485,-10.1196,40.7459,0.5822,1.313,0.8782,-0.7893,0.3175,-0.759
268,0.0043,0.1401,9.8508,-0.1255,-0.3343,0.0998,29.617,-9.6077,40.6565,-0.2746,-1.8873,0.6199,-0.0064,-0.6079,0.2705
279,0.1559,-0.0044,9.7559,-0.0385,0.234,0.1975,31.2918,-10.7037,40.571,0.5985,2.1019,-1.7084,0.5563,1.2303,-0.4819
289,0.0024,-0.0218,9.8745,0.3695,-0.2694,-0.1051,30.6767,-10.62,40.063,-0.3813,0.4334,-1.0525,-1.3367,1.3042,0.1619
300,-0.1128,0.1137,9.8259,-0.7676,-0.2651,0.0023,31.0038,-9.1433,40.1742,1.0578,-0.4735,0.3022,0.1073,2.0371,-1.2726
312,-0.0122,-0.1561,9.732,1.4656,0.6711,-0.1603,30.6659,-8.7547,39.8724,-0.5203,2.4014,1.163,0.7309,-1.1336,-0.274
328,0.1257,0.0937,9.7599,-0.7682,0.3926,0.3052,27.38,-11.9415,40.358,-1.4807,-0.5522,0.1312,-0.081,-1.5608,-0.0579
346,-0.0552,-0.0996,9.721,0.1315,-0.5867,-0.1561,29.0498,-9.452,41.4432,1.6341,-0.3062,0.5474,0.2231,-0.8957,-0.6852
357,0.0359,0.0424,9.7798,-0.4298,0.4478,-0.0375,30.5233,-10.3542,38.814,-0.6281,0.0475,-0.888,-1.7188,-0.0279,1.1455
367,-0.0186,-0.1709,9.7936,0.2333,0.1804,0.6712,28.0265,-10.5468,39.1223,0.4096,-0.589,-0.5741,1.0841,-0.069,0.7097
382,0.0415,-0.15,9.7847,0.18,0.1201,0.4581,29.3935,-8.2152,39.119,1.7498,-0.9001,-0.9852,-0.369,0.2807,-0.4504
392,0.0541,0.0045,9.7638,-0.7084,-0.2017,-0.5042,31.0642,-10.0617,40.9051,0.0989,-0.9261,0.7916,0.6092,-0.2327,-1.1419
403,0.0168,-0.0556,9.8114,-0.862,-0.6089,-0.1228,31.4356,-10.2936,39.3221,0.5031,-0.1909,-1.2844,0.4663,0.6833,-1.2926
413,0.0929,0.0456,9.8367,0.2263,-0.3539,-0.0521,30.5903,-10.4804,41.1477,-1.1905,-1.6362,0.7531,0.0449,0.8132,0.162
423,-0.0641,0.0353,9.8908,0.4774,0.5996,0.3322,30.4237,-10.8191,39.6435,0.3196,0.8987,-0.3029,-0.7333,-1.7059,0.991
434,-0.1057,-0.0744,9.7541,-1.5997,0.5743,0.005,30.1198,-10.3823,39.7671,0.9974,-0.4662,0.0906,0.7368,-0.4973,-0.33
449,-0.0494,-0.0371,9.8062,-0.6812,-0.5708,0.4111,29.7611,-12.208,41.1364,2.389,0.0384,0.0943,0.2661,-1.5565,-1.2128
460,0.084,-0.0217,9.7659,0.0889,0.0699,0.3827,29.0485,-10.0822,41.1981,0.7476,1.0591,-0.1908,0.988,0.4387,1.0891
470,-0.1305,-0.0609,9.7768,-0.333,0.2609,-0.7181,29.2806,-11.1495,39.7149,-2.1628,0.4858,-0.8479,-0.628,0.159,-0.5096
481,-0.0899,0.017,9.7725,-0.5491,-0.2702,-0.7234,29.3632,-9.9123,38.2834,0.0376,1.1499,0.4226,-0.5604,0.5213,0.6484
494,-0.099,-0.1331,9.8488,-0.1626,0.2796,0.3984,30.0678,-9.3441,40.6786,-0.4373,0.2264,-1.0287,-2.3018,-0.1948,-0.4454
508,0.0082,-0.0608,9.776,0.071,0.8501,0.8471,29.6437,-9.7967,39.7,3.4865,-0.837,0.2619,-0.0629,0.3932,-0.8671
520,-0.0079,-0.0097,9.8731,-0.8419,-0.2297,-0.8761,29.1353,-8.3755,41.0785,1.0234,-0.6589,-1.0932,-1.2928,0.5986,-0.0579
531,-0.0188,0.0864,9.7205,0.4415,0.2142,-0.1016,29.1387,-10.759,38.2386,-0.984,-1.0276,0.9102,1.1316,-0.894,1.2036
541,0.2522,0.0256,9.8947,0.1254,-0.4035,-1.094,29.8178,-8.8891,39.9135,0.489,-0.3554,0.3446,-0.0271,-0.0577,0.0965
551,0.0825,0.0961,9.7554,-0.2194,0.7442,0.094,29.4917,-10.6281,41.2196,0.1833,0.4888,1.0812,-0.6077,0.0592,0.7542
564,-0.0877,0.0839,9.9008,-0.0453,-0.2688,0.1521,29.56,-9.4608,39.1265,0.8096,0.5896,-0.2406,0.1553,-1.2876,0.9114
575,-0.0869,0.0269,9.8063,0.1157,-0.539,0.6863,30.6763,-9.2319,41.3578,0.6581,0.7709,-0.6123,-1.0297,0.3128,-0.6306
586,0.0809,-0.0056,9.7968,-0.2103,-0.1438,-0.5723,30.4134,-8.8745,39.3972,-0.8969,1.5611,1.2567,-0.6593,0.6887,0.1572
597,0.0191,-0.0982,9.7487,0.0633,-0.3087,-0.871,30.622,-10.3817,37.9444,0.8723,1.003,0.2065,1.8817,0.7927,0.068
609,0.0073,-0.1664,9.8575,0.0657,0.4956,-0.4049,29.3975,-12.0437,39.2414,-0.4095,0.5738,1.7973,0.4546,-0.1335,0.186
621,0.0193,0.1165,9.7564,0.358,0.1151,0.1734,28.3682,-10.9447,39.7899,-0.0752,-0.6865,-1.6896,-0.6625,-0.4014,-1.0616
632,0.0482,-0.0671,9.8299,0.8268,-0.3705,-0.4335,31.3212,-10.6866,39.3148,-0.5128,-0.8914,1.2282,-1.0005,-0.0533,0.673
643,-0.0206,0.0802,9.7277,0.8177,-0.1428,-0.6351,28.848,-9.7375,40.0181,-0.1465,1.2537,0.8724,-0.5254,-0.1426,0.6061
653,0.0628,0.076,9.8244,-0.9142,0.0112,0.3613,29.673,-9.1241,38.7302,-1.2493,-0.0449,-1.0413,-0.4832,-1.4993,0.1859
664,0.1175,-0.0459,9.777,0.2206,0.1231,-0.4761,30.2783,-11.5259,40.9993,0.8419,-0.4858,0.2808,-0.8394,-0.1154,-0.4318
674,0.0344,-0.1563,9.8083,-0.0867,0.2139,0.6061,29.4963,-7.9838,40.5369,0.922,1.3944,-0.8686,-0.0692,1.2733,1.4794
685,0.1082,0.0556,9.7902,-0.2177,-1.0162,0.7035,29.792,-10.7574,42.3156,-0.0259,0.2312,0.8479,-0.8522,-0.4959,-0.6289
698,0.1293,-0.1639,9.7901,0.365,0.0871,-0.1435,29.802,-11.1559,39.1865,-2.2509,-0.3574,-0.1012,-0.6778,0.0814,0.0048
710,0.0906,-0.0176,9.8549,0.2379,-0.1806,0.1076,29.5345,-10.4482,42.3603,1.4226,1.364,0.4462,0.2953,0.2473,-0.8125
723,0.0518,0.1076,9.8375,0.1212,-0.1751,0.5942,31.4455,-8.7991,39.1021,0.4239,-0.2209,-0.5195,-0.2923,-0.4106,-0.6377
735,-0.1323,-0.0434,9.7522,-0.3226,0.4148,0.3021,30.7969,-9.3114,40.558,0.3792,0.0003,0.0219,1.934,-1.2852,-1.9417
746,-0.0473,0.0369,9.7883,0.0078,-0.5066,0.6602,29.0845,-10.6678,39.4543,-1.3275,0.505,0.463,0.1554,0.4489,1.232
757,-0.1444,0.0499,9.7969,0.6945,0.2337,0.3039,29.7922,-10.4761,39.8533,0.2159,0.4813,1.0451,-0.2731,0.594,-0.3419
767,-0.0321,0.1922,9.8462,0.8674,-0.7987,-1.0164,27.23,-10.2667,38.7,-0.2524,0.3091,0.989,1.5298,-0.9442,1.1058
779,-0.0627,0.1852,9.794,-0.7148,0.2541,0.7816,29.9797,-8.8668,39.9632,0.8734,0.5149,-1.939,-0.5763,0.8686,0.7628
797,0.1228,0.0584,9.7139,0.649,0.4762,0.5836,28.2835,-10.9231,39.4775,0.7315,-0.3665,-1.5169,0.249,1.9839,1.448
811,0.2592,0.1003,9.7637,0.3197,0.2551,0.3075,30.4791,-9.2351,40.4788,0.0289,0.8237,0.4155,1.2967,0.9923,-0.0354
827,0.0917,0.0763,9.8206,0.2092,0.1898,0.4599,28.1653,-11.8666,38.3921,0.4239,0.7369,-1.1684,0.6706,0.1921,0.2195
841,-0.0588,-0.094,9.8454,-0.4931,-0.1076,-0.0926,29.0889,-12.3668,40.2453,-1.5341,1.0664,0.3573,-0.786,0.561,-1.6943
854,0.0148,-0.0734,9.8981,-0.181,0.3473,0.3098,30.1058,-10.5324,40.652,-0.5671,1.9585,0.2321,-0.3636,-0.0252,1.2607
868,0.0473,-0.0653,9.8578,-0.9649,0.0967,-0.4386,30.182,-9.9181,40.4418,0.2357,-0.9798,-0.3999,-0.2,-0.5268,-1.2591
879,-0.0432,-0.1496,9.807,0.1442,0.3248,-1.1784,31.6032,-10.7271,38.4578,1.3841,1.4351,0.8607,-2.6174,-0.5931,-1.9996
889,0.2266,-0.0839,9.7017,-0.1629,-0.2497,-0.0963,32.0977,-10.9544,42.184,1.4179,-0.8877,2.2094,-0.3439,0.4818,0.0205
900,-0.0224,-0.0999,9.7148,0.6851,0.3431,0.5553,30.7169,-9.7137,39.8283,1.289,1.1746,0.6034,-1.0917,-0.6714,-0.5918
913,-0.0465,-0.0281,9.8188,-0.2278,0.3531,0.0209,30.0538,-9.9025,39.0571,-1.0119,-0.8556,-1.2419,1.0004,0.749,0.8006
927,-0.066,0.0732,9.7093,0.0826,0.124,-0.339,29.9266,-9.6075,40.6896,-1.3165,-1.19,0.2394,-1.4911,0.874,0.3839
939,0.0395,0.2995,9.8071,0.6155,-0.168,0.1744,28.7565,-11.8247,38.541,0.4943,0.9865,-0.1005,-0.6846,-0.6653,0.0363
956,-0.1462,-0.0553,9.7992,-0.4423,0.7557,-0.0625,30.6117,-9.1127,40.5063,-0.9935,0.2337,-0.3241,-0.902,0.7298,0.4995
971,-0.107,-0.0568,9.9021,0.0558,-0.6678,-0.3156,28.7952,-9.8518,38.4035,0.5599,-0.078,0.5292,-0.1138,-0.4037,0.3504
983,-0.0656,0.0072,9.8896,-0.1182,0.2937,0.1673,29.9323,-11.268,38.4776,0.3312,-0.9714,-0.1081,1.5074,1.3072,-1.4106
994,-0.0999,0.0255,9.8186,0.0049,0.3623,1.121,27.6805,-9.2398,40.6749,0.7417,-0.3833,1.9028,-0.9819,0.2707,0.6596
1005,0.125,0.0389,9.8213,-0.6047,0.5857,-0.0644,30.1262,-9.5245,40.3189,-0.2369,-0.7455,-0.8975,-0.0761,0.0842,-0.2083
1015,-0.1826,-0.065,9.6696,0.3181,-0.0643,0.1771,29.6395,-9.3759,38.5506,-0.7968,1.6805,0.141,0.6282,0.9869,1.4434
1028,-0.094,-0.084,9.8211,0.3533,-0.6977,-0.5512,30.4469,-8.8681,39.7835,-0.9977,0.3462,-0.9178,-0.4438,-0.3622,1.7574
1044,-0.1383,-0.0121,9.8769,-0.9141,-0.5501,0.0427,31.843,-10.3532,38.7503,-0.1097,-0.6514,0.145,0.8132,0.8301,-1.5053
1056,-0.0479,0.3432,9.818,0.661,-0.2741,0.385,27.9962,-11.5213,41.3479,0.0224,1.9505,-1.4069,-0.9782,-0.0637,1.6453
1069,0.058,-0.2039,9.8132,-0.4342,0.5283,0.0269,29.0357,-9.8154,39.5078,1.995,0.2626,-0.9984,-1.1543,0.2269,-0.2611
1081,-0.1803,0.145,9.7617,-0.1316,0.0026,0.23,30.713,-9.0005,40.6206,-2.486,0.5407,0.6888,-0.0204,0.6346,-0.8332
1092,0.0533,0.1983,9.7564,0.5926,0.548,1.07,29.7869,-10.5156,40.2945,0.0078,0.2896,0.1627,1.3669,0.3271,-0.8527
1104,0.0838,0.1592,9.761,-0.101,0.2276,0.1907,31.3498,-10.6333,39.6042,0.2321,0.8042,1.006,-0.6953,-0.1281,-0.9381
1115,0.1553,-0.1435,9.8051,0.5651,0.0114,-0.1041,27.7168,-9.2996,40.0305,-1.4083,-1.1082,-0.5475,-0.1901,1.0886,0.6561
1125,-0.0474,0.0081,9.8439,0.2573,0.3564,-0.3151,30.2792,-8.2048,40.0886,-0.853,-2.0677,-0.302,-0.2862,1.208,0.329
1135,0.059,0.0002,9.7893,-0.1031,-0.6725,-0.3736,30.9833,-10.5892,39.8248,0.3071,-0.9821,1.0093,-0.8961,-0.6657,1.3143
1154,-0.2512,0.0602,9.8239,0.1278,-0.9281,-0.105,29.3155,-9.9638,39.7011,0.7179,0.6601,0.2462,0.6384,-0.0765,-0.1651
1166,-0.0004,-0.0057,9.7809,-0.3736,-0.1406,-0.1007,30.2407,-11.1996,39.3108,0.5863,0.0402,-1.0127,-1.7294,-0.1267,-1.1638
1180,-0.1368,-0.0563,9.7782,-0.0043,-0.6479,0.4748,29.3548,-9.5325,40.158,0.6103,-0.2062,0.2809,1.1855,1.5783,-1.5547
1193,-0.1053,0.0944,9.7296,-0.532,-0.0924,0.1259,29.3818,-10.6198,38.6026,-0.3452,-0.8492,-0.8685,-0.3503,-0.0198,-0.7501
1205,0.0872,-0.1991,9.7932,0.1337,-0.3294,-0.5038,30.6108,-9.0606,39.8912,1.8516,0.6498,-1.6989,-2.4119,0.09,-0.9544
1217,-0.0748,0.0744,9.7834,-0.0749,-0.0948,-0.1044,28.9333,-9.5042,40.3279,1.9197,0.4647,0.5909,-1.775,1.0695,-0.543
1228,0.0058,0.1019,9.7956,0.7007,0.256,0.4222,32.4466,-9.1611,39.8095,0.9217,0.4788,-0.3139,-1.8983,-0.6306,-1.011
1238,-0.0864,0.0961,9.8614,-0.016,-0.4183,0.4313,30.4463,-9.1417,38.788,-1.1696,-1.1486,2.2323,-1.8726,-0.4539,-0.568
1249,-0.1029,0.1295,9.7959,0.1047,0.107,1.1923,31.4377,-9.5868,38.9445,0.7008,-0.7293,-1.0195,0.9313,1.0209,-0.2458
1259,-0.0893,-0.0831,9.8041,-0.5679,-0.1464,-0.979,29.9156,-10.8528,39.2316,0.4926,-0.588,0.6223,-0.6104,1.0926,-1.1398
1271,0.0121,0.2356,9.8958,0.3741,0.6971,0.0651,29.9456,-10.1608,38.0298,1.2318,-1.0934,0.1039,-1.3224,-0.1561,-1.2309
1284,-0.0752,-0.0397,9.8578,0.3755,-0.3584,-0.5883,29.5476,-9.3549,40.3455,1.0502,-1.0258,0.3715,1.1019,1.0121,-1.7756
1296,-0.0763,0.0428,9.7967,0.6286,0.5701,0.6086,31.3605,-10.1948,40.3394,0.222,-0.5008,0.0142,-1.1525,2.7407,-0.8475
1310,-0.0203,-0.089,9.7976,0.1827,0.5022,-0.268,28.5483,-8.7774,40.2578,0.0805,0.6173,-0.7774,-0.8022,1.4791,0.4605
1326,0.0479,0.0175,9.7328,-0.5519,1.0179,0.0597,29.1463,-8.0422,40.7489,1.8816,-1.1484,-1.4549,1.371,0.681,1.3793
1337,-0.1322,-0.1278,9.8602,0.8059,0.0656,-0.4357,28.6049,-9.9597,41.4646,-0.3996,0.9108,1.1224,0.3112,0.2115,0.9064
1348,0.1106,0.0001,9.7057,-0.43,0.8661,0.1055,30.7956,-10.5388,39.2909,1.3339,-1.2902,-0.0182,-0.419,1.2053,-0.7001
1358,0.0249,0.0376,9.7862,0.3991,0.7512,-0.4488,28.708,-9.1289,39.7805,-0.2802,1.8535,-0.5112,-1.4509,-1.1589,0.9027
1369,-0.0733,-0.0303,9.7675,0.1679,0.0888,-0.1857,30.0248,-9.6604,40.9758,-0.376,-0.7018,0.2603,0.2539,-0.2021,-0.6167
1379,0.0047,-0.0514,9.8707,-0.6249,0.407,-0.092,28.7033,-8.3575,39.5758,-1.0826,-0.9848,0.0549,-0.683,0.8373,-2.1985
1393,-0.1304,-0.1106,9.8194,-0.1765,-0.7769,0.3772,28.783,-11.2819,41.9428,-0.3511,0.6816,0.3186,-0.929,0.057,-1.4466
1405,-0.1793,0.0091,9.8889,0.3921,0.1384,0.0469,30.1571,-10.0456,40.9258,0.9957,0.6485,-0.1511,0.0228,0.0463,-0.0157
1419,-0.0012,-0.0059,9.7987,0.5049,-0.6159,-0.4336,30.058,-11.6661,41.1409,0.497,-0.45,0.3936,0.141,-0.7667,0.2967
1433,0.1239,0.0428,9.8345,0.2291,0.2922,0.363,31.0885,-9.5097,38.6461,0.7408,-1.1038,0.267,1.1482,0.2685,0.2037
1445,0.0886,-0.0759,9.7761,0.7725,0.0258,0.3803,31.1228,-8.3335,39.2526,0.6776,-0.6189,0.8639,0.6402,-1.7329,-2.8606
1457,0.105,-0.0628,9.7481,-0.1989,0.3835,-0.122,30.9754,-8.5946,40.7825,0.9998,-0.2519,-0.3282,-1.1681,-0.9872,0.2793
1468,-0.131,-0.0648,9.8364,0.3544,-0.2985,-0.0649,29.1533,-8.6013,38.7472,-0.667,-0.607,1.2132,1.2387,-0.9837,-0.2734
1478,-0.0961,0.1081,9.7794,-0.3605,-0.6063,0.1448,29.8657,-9.7928,39.0267,-1.5899,1.7009,-0.704,0.925,-0.0564,1.9246
1489,0.0476,-0.0417,9.7989,0.3985,-0.5523,0.4841,30.8372,-9.3891,40.7632,-1.1239,0.3725,0.6898,-0.1284,0.7404,-0.7418
1499,0.0605,0.0173,9.7754,0.1095,-0.1532,-0.0823,30.3752,-10.0074,41.3518,-1.2551,1.2184,0.8249,-0.3638,-1.9331,0.2208
1513,-0.1379,0.0218,9.7597,0.3067,0.3021,0.1228,32.2077,-13.9103,40.3956,-0.1667,-0.3843,-0.5766,0.2571,0.0983,-0.0753
1525,0.2714,-0.0063,9.7754,0.3366,-0.7365,-0.1867,29.5995,-8.7894,38.0727,1.392,1.6624,0.469,1.1177,0.8635,0.0666
1535,-0.0445,0.1019,9.7926,-1.0794,-0.5144,-0.079,31.2164,-12.3319,40.2578,-1.1339,1.1768,-1.1861,0.6474,0.9573,-0.194
1547,-0.1288,0.0026,9.8206,-0.0781,-0.6029,0.0081,28.2876,-8.5394,38.8412,-0.5966,-0.7853,0.4663,-1.3607,-1.317,-0.004
1559,-0.0415,0.0949,9.9504,0.4141,0.1113,0.4135,28.7243,-10.9226,38.5813,0.6834,-0.5133,-0.8935,-1.268,0.2151,1.0748
1569,0.0798,-0.1015,9.8223,-0.1275,-0.0824,0.0696,29.0675,-11.9627,39.9272,0.2328,-1.3503,-2.0813,-0.6275,1.7844,0.1615
1582,0.0931,-0.1135,9.862,-0.6351,0.0184,-0.5552,29.2289,-10.9792,39.8136,-0.4055,-0.2586,-0.987,1.0398,-0.0538,0.9141
1592,-0.0049,-0.0119,9.8978,0.3627,0.9556,0.0893,29.1538,-9.142,40.0878,-0.3353,-1.4685,0.2447,0.0881,-0.0109,0.5667
1603,0.0411,-0.0861,9.8263,0.4405,-0.0981,-0.8139,31.4031,-8.4438,38.8643,-0.5412,-1.6499,-1.9176,-1.0709,0.4917,0.2698
1613,-0.1096,-0.0073,9.7549,0.4472,-0.1672,0.4369,32.2936,-9.6677,39.1987,-0.3431,-1.1306,-1.9438,-1.5428,0.1547,-1.5992
1623,0.1018,0.092,9.7789,0.4166,0.7235,-0.042,30.4674,-10.4385,38.8747,-1.1554,-0.7705,-1.1936,0.1663,-1.3943,-0.3268
1635,-0.1169,0.0947,9.7463,-0.5822,0.4683,-0.0908,29.8841,-10.058,39.1234,-1.0511,-2.1079,1.6324,-0.0335,0.041,-0.035
1649,-0.0791,-0.0234,9.8282,0.3207,0.7757,-0.1507,30.1902,-8.9794,39.9463,-0.9646,0.7095,0.6247,-0.7054,-1.316,-1.4417
1659,0.0825,0.0319,9.7653,0.873,-0.2818,-0.6417,31.4592,-10.1323,38.192,-0.9184,-0.9727,-1.6008,-0.9238,0.3161,0.0948
1671,-0.056,-0.0274,9.7807,0.377,-0.1207,-0.2886,30.1733,-10.1233,37.7189,0.0669,-0.953,0.9231,-0.4384,1.3028,-0.3828
1687,0.0488,0.0372,9.7091,-0.9366,-0.7209,-0.2934,30.4545,-7.9723,40.7416,-1.4938,0.3029,-1.5179,-1.55,0.3636,-1.6685
1699,-0.1895,0.0443,9.706,0.228,0.2975,-1.8326,31.7413,-11.2814,39.3299,-0.4744,-0.7642,-0.6816,2.42,1.0333,-1.9551
1710,-0.1207,-0.0709,9.8291,1.2695,0.731,0.2129,31.9163,-9.4007,40.6751,-0.7555,0.6715,-0.7367,-0.0599,-0.0222,-0.1318
1720,0.1198,-0.0043,9.81,0.1361,0.5294,-0.4874,29.3503,-11.6167,38.5184,-1.4605,0.2211,2.0894,-0.2683,0.2223,1.1439
1735,-0.2331,-0.1542,9.8115,-0.0964,0.1502,0.2616,30.4941,-10.1293,40.7593,-0.0666,-0.6898,-1.4689,1.0049,0.0863,0.9809
1750,-0.0244,-0.0001,9.8473,-0.1138,0.4731,-0.5727,30.1487,-8.3712,38.1655,-0.0916,-0.9157,-1.5539,-1.2286,-0.5947,0.5853
1763,-0.1078,-0.0558,9.7027,-0.2217,-0.7275,0.1171,28.1699,-10.276,39.8101,-2.0649,1.2159,1.0417,-0.4264,0.1991,0.303
1776,0.0373,-0.0096,9.7934,-1.1532,-0.5921,0.694,29.3741,-10.0556,39.9039,0.7323,-0.2838,-0.5158,0.775,2.4316,-0.9275
1789,0.1217,-0.0065,9.7377,-0.1277,-0.2371,-0.3912,30.9787,-9.9947,40.1096,-0.785,0.4497,-1.0008,0.2533,-0.3695,-1.7839
1802,0.0676,0.0059,9.8399,0.2527,-0.0518,-0.2732,30.4985,-10.4818,39.6728,0.0719,1.8382,-0.6294,-0.518,-0.0704,-1.5538
1814,-0.0851,-0.0137,9.8158,-0.2711,-0.7694,-0.5199,30.8412,-9.1212,40.0144,-0.2064,0.3845,-2.4131,-0.6314,0.5665,0.6628
1824,-0.0797,-0.1096,9.708,0.4613,-0.2376,0.7623,29.1677,-10.2571,39.8046,-1.8401,0.3728,-0.1186,-1.6264,0.8885,-1.3413
1834,0.0417,-0.0228,9.7492,0.3395,0.4952,0.5753,29.4364,-9.3477,42.0212,-2.823,0.854,-0.6219,0.0937,0.9947,-0.663
1844,0.0064,0.0014,9.8957,0.2103,-0.1226,-0.1412,30.7101,-11.3782,38.8198,-0.6853,-0.2312,-2.1083,-0.0393,-1.1938,-0.1434
1862,0.0573,0.0015,9.8824,-0.7053,-0.676,-0.2534,28.9653,-10.8733,41.8644,0.0641,0.3656,-0.9558,0.128,1.6839,0.1395
1874,0.0952,-0.1106,9.7525,-0.4547,0.7169,-0.1091,30.5418,-11.6489,39.1505,1.519,0.3932,-0.7077,-0.4541,1.6709,-0.4665
1887,0.0523,-0.0096,9.8092,-1.374,0.5076,0.1485,29.6673,-9.7639,41.7072,0.9149,0.2683,0.923,-0.6465,-0.9869,-0.0765
1899,0.0244,0.0402,9.7779,-1.1405,-0.2576,-0.0995,29.8251,-8.8692,41.5653,0.3178,0.1208,0.2096,1.4549,0.5845,-0.7561
1911,0.023,0.0141,9.8881,0.0185,0.1718,-0.2795,30.8196,-8.9969,41.881,-0.7512,-0.663,-0.1078,2.0243,-0.9945,0.1828
1922,-0.1744,0.0581,9.8204,1.2567,0.4393,0.3798,30.2222,-9.0112,39.6371,1.6095,0.4092,2.0734,0.3892,0.474,-0.6546
1933,0.2526,0.1854,9.8389,0.4612,0.1565,0.6113,29.2176,-9.289,40.942,0.3707,0.6446,-0.2649,0.4441,0.8149,0.0194
1943,0.0122,0.1375,9.8458,0.2425,0.5145,0.5261,30.0457,-11.4548,38.1815,-1.5295,0.0114,-0.2573,0.3817,-0.7183,-0.2769
1957,-0.1301,-0.0388,9.8273,0.5329,-0.1265,0.1368,31.5388,-11.1708,38.8051,0.0447,0.1065,0.9301,0.6614,-1.883,0.4438
1971,0.1491,0.0868,9.7917,0.2775,0.3108,-0.4581,27.9184,-12.0989,39.969,-0.5614,0.9596,-2.4566,1.056,0.2131,-0.795
1983,-0.0253,-0.0887,9.8208,-0.3731,-0.3148,-0.1618,28.7718,-10.5984,39.5454,-0.9869,-0.4431,-0.8708,-0.3315,-0.0596,0.9336
1996,-0.0431,-0.0077,9.85,-0.1679,0.7365,-0.404,28.2904,-10.6129,38.8099,0.236,-0.1076,0.3321,-0.7513,-0.2912,1.1817
2007,0.1385,0.1264,9.7833,-0.0913,-1.2534,0.0818,30.4704,-11.1461,39.024,0.3058,1.0746,0.3959,-1.2331,0.5008,-2.4863
2018,-0.0597,-0.1519,9.7977,-0.7995,-0.0259,1.266,31.6052,-9.2532,39.7438,0.5933,-0.635,0.047,-1.5626,-1.3404,0.0596
2031,0.0912,0.002,9.7841,-0.1279,-0.0756,0.3598,32.1008,-9.7217,41.6946,0.3568,0.7616,0.942,0.8864,0.1842,0.4447
2041,0.0511,-0.0163,9.8209,0.424,-0.1179,0.1786,29.405,-10.7087,39.4227,0.0977,0.5369,-0.4854,1.0994,-1.5835,-0.3732
2051,-0.1442,-0.0178,9.7296,0.4953,-1.218,-0.6055,29.6346,-8.6995,41.4603,-0.8735,-0.5067,-1.1454,0.5091,-0.2907,-0.1444
2061,-0.0663,-0.1104,9.835,0.3365,-0.1239,1.499,29.7075,-10.7522,40.6507,1.1789,-0.2602,0.082,-0.6564,-0.3377,0.6031
2073,0.1414,0.0269,9.7528,0.1543,-0.3995,0.8447,31.0086,-9.4233,39.0002,1.4159,-0.3288,-0.9795,0.9957,-0.5211,-0.5993
2083,0.0935,0.1542,9.9147,0.2028,0.3582,-0.5614,28.9373,-8.3962,39.6485,-1.2109,0.2847,0.7503,-0.3168,0.77,0.0619
2094,-0.0791,-0.0709,9.807,1.0109,-0.525,1.5979,28.4453,-9.8124,40.2094,1.6803,-1.2957,-1.7959,0.8555,-0.154,-0.2012
2104,-0.0826,0.0107,9.74,0.5513,-0.2507,0.1871,29.0047,-12.1098,41.0609,-1.5363,-0.7395,0.5552,1.4543,0.4296,0.323
2117,-0.0293,-0.0446,9.8825,-0.3881,-0.1862,0.0378,30.2494,-10.8909,38.2585,-0.3197,-2.3221,0.1768,-0.8987,-0.0276,0.1047
2130,0.115,0.0726,9.7558,-0.5406,-0.7314,0.2065,29.2759,-9.9964,38.9672,1.2862,0.6245,-0.4283,-0.4836,-0.0111,0.7724
2141,-0.0102,-0.21,9.7324,-0.6068,0.6757,-0.0055,29.4587,-10.2438,39.802,-1.5827,-0.9002,-0.3343,-0.1936,-1.7203,2.4204
2153,0.1244,0.0339,9.8429,-1.3914,-0.2084,0.5412,29.8541,-10.9326,39.6317,0.2511,-0.0555,1.6271,-0.2806,0.7944,0.3612
2163,0.0971,-0.1067,9.7729,-0.6152,0.3521,0.6315,31.8024,-9.9809,40.232,0.8472,0.0273,0.196,-1.5776,0.5701,-1.3173
2174,0.1227,0.0516,9.8316,-0.1997,0.0538,0.464,30.1974,-10.7848,41.132,-0.1029,-2.1372,-1.4172,-1.2823,-0.56,-0.4165
2185,0.0031,-0.0348,9.7737,-0.0099,0.9152,0.0051,30.2029,-9.6576,40.659,2.0465,0.3569,1.5811,0.298,-1.837,1.0999
2198,0.1473,-0.0768,9.7691,0.859,0.6979,-0.473,30.7755,-10.6008,38.896,-1.2886,1.2312,1.2475,0.2706,-0.3361,-2.1877
2210,0.108,0.0316,9.869,-0.1202,0.1253,0.251,31.8267,-10.5426,39.7728,0.0117,0.8233,1.9396,-0.8621,-1.4038,1.3565
2221,0.0436,0.1197,9.7279,0.6466,-0.0555,0.0074,28.8708,-7.3493,40.1999,0.2913,-1.5198,-0.4444,1.8026,-0.0238,0.2587
2232,0.0234,-0.0127,9.7936,0.6643,0.0103,-0.0425,30.0089,-11.9634,39.2135,1.5783,-0.5416,-0.6797,-1.7872,-0.0736,-0.9019
2243,0.0094,-0.0295,9.8091,0.7185,0.4268,-0.1744,30.8928,-8.0364,40.3,-1.2447,-0.5073,1.0522,-0.5853,-0.6929,-0.2783
2253,-0.0535,0.165,9.7434,0.3372,0.2235,-0.0749,31.5078,-8.3333,40.1507,1.5721,1.6637,-0.7518,0.6114,0.8474,-1.5876
2264,0.025,0.01,9.7565,-0.01,0.4092,-0.4277,30.694,-9.8449,40.7584,-0.8437,0.3114,1.2409,0.5665,0.3435,0.2137
2274,-0.1977,0.0923,9.7663,0.5348,0.5662,-0.4694,29.6154,-9.969,41.0371,0.8261,0.7062,-0.2536,1.0066,0.5836,0.4488
2284,0.0989,0.0833,9.793,0.147,-0.1921,-0.1813,28.9622,-10.7249,38.3435,0.8139,-0.3408,-2.985,-0.4135,-0.0101,0.9622
2295,0.099,-0.0459,9.7468,-0.5129,-0.0718,-0.5847,29.8056,-11.3469,40.4356,0.4547,0.9335,0.7555,-0.0883,0.4436,-1.2228
2306,0.0957,0.0341,9.789,-0.5302,-0.2333,-0.0051,30.4329,-10.7256,37.9195,-0.8479,-0.2495,-0.5128,-1.1056,-1.0064,-0.3768
2318,-0.046,0.0124,9.7968,-0.2892,-0.6333,0.2749,30.1566,-9.7649,39.928,-0.3412,0.554,0.9833,-2.7231,0.1156,-0.0666
2328,0.085,0.1081,9.7175,0.8184,-0.2487,0.6228,29.8648,-10.2312,40.0488,-0.0866,-3.3998,-0.5709,-0.4008,0.2078,-0.0842
2339,-0.1622,-0.1094,9.8199,0.9821,0.022,0.8867,29.3962,-10.3356,40.1574,0.6805,0.3594,-1.9531,-0.2311,0.0284,-1.2987
2351,-0.0207,-0.0629,9.7842,-0.341,-0.2407,0.5513,30.863,-10.3914,38.5484,-0.0992,0.9374,-1.0233,-0.1419,-1.22,0.5745
2363,-0.1351,0.1387,9.8233,-0.3071,-0.8774,0.0836,29.0312,-10.7646,40.3561,2.0657,-0.9963,2.4162,0.0,0.8586,1.3618
2375,0.1077,-0.0521,9.7574,1.2082,0.5504,-0.3815,29.1569,-9.0812,38.9871,0.5945,0.5119,-0.6556,0.2516,-1.1563,1.4521
2385,0.0558,-0.0381,9.7909,-0.0783,-0.6694,0.2797,29.6501,-8.2202,41.992,-1.117,0.1918,0.8905,-0.2646,-0.065,1.2713
2395,0.0969,-0.0728,9.7907,-0.6192,-0.7359,0.555,30.0159,-8.7679,39.8941,-1.2911,-0.3924,0.0488,2.6895,0.268,0.7674
2406,-0.0451,-0.1049,9.8145,0.1305,-0.1178,0.5689,29.2528,-9.5533,39.4981,-0.0032,0.7983,0.2949,1.4036,1.3068,-1.8068
2417,0.1389,-0.0022,9.8309,0.6419,0.8454,0.2254,29.4381,-11.8655,41.4298,0.9175,3.4666,-0.3614,0.175,-0.6375,-1.3239
2431,0.0127,0.1472,9.7808,0.7091,-0.11,0.5544,30.3941,-7.8116,38.5777,0.6732,0.6938,-1.5464,0.9857,0.9479,0.5252
2444,0.1136,0.0258,9.8851,-0.1113,0.5068,0.3215,29.0017,-11.0739,39.5351,-0.0878,0.7617,-0.5707,-1.6102,2.8242,-1.4169
2458,0.0466,0.107,9.7128,-0.1238,0.1146,-0.696,30.6309,-9.6527,40.3597,1.1321,-0.7663,0.6155,-0.4663,-1.3904,1.0625
2471,-0.0696,0.0569,9.7665,-0.6932,0.4988,0.8452,29.5285,-8.8209,40.355,-0.262,-0.5207,1.5316,0.2634,-1.4027,1.5953
2485,-0.0585,0.0033,9.6602,-0.0686,-0.0935,-0.0022,30.1896,-9.5377,38.9927,-0.0891,1.453,0.9037,1.1419,0.1626,-1.1831
2497,-0.135,-0.1117,9.8293,0.0625,0.2051,0.1443,29.8844,-10.2691,39.7523,-0.2064,-0.1929,-0.4862,1.5447,-0.7631,-1.4385
2508,0.098,0.0565,9.8124,-1.2584,0.1191,0.8144,28.1278,-11.3015,39.8492,2.376,0.4057,-0.0829,-0.2711,2.0068,0.9067
2518,0.0886,0.1052,9.8751,0.027,0.004,-0.493,30.8284,-9.3715,41.3093,1.2976,-0.6436,0.5715,0.6199,-0.4219,-2.0429
2533,-0.0424,0.1756,9.8286,0.3149,0.1579,0.0581,32.4639,-8.2925,40.4057,-0.3833,-0.7101,0.9255,-0.4021,-0.5482,-2.0863
2551,0.0908,-0.0678,9.8579,0.0806,0.2165,-0.193,32.375,-10.416,41.9633,0.7284,-1.5173,-1.366,-0.0549,-0.3863,-0.9799
2563,-0.0926,0.039,9.6952,0.0385,0.277,0.1854,31.0008,-9.0508,40.6361,1.8551,0.8867,-0.5932,-1.2828,0.1326,0.3419
2577,0.1603,-0.0969,9.7353,0.443,0.4361,-0.7167,30.9627,-11.331,40.3221,1.4551,-0.0019,-1.4831,-0.7293,-0.2821,-0.0556
2589,-0.036,-0.1931,9.7451,-0.121,1.2294,-0.0149,30.6392,-9.7235,41.83,1.8437,-0.8707,-1.2106,-1.1098,-0.4069,-1.4986
2602,0.042,0.0765,9.77,0.2367,-0.3803,-0.2664,31.6241,-10.3879,39.9096,2.0265,-0.0043,-1.9526,-0.7861,-0.9736,1.0325
2614,0.0548,-0.0322,9.7005,-0.0094,0.0873,-0.2604,31.0445,-10.6358,39.9435,-1.0877,-2.1493,-0.5205,0.2425,-1.7244,-0.7785
2625,-0.1372,-0.0366,9.7089,-0.0866,-0.4328,-0.1115,30.7386,-9.3087,40.2016,-0.5319,0.3792,0.494,-1.1496,-1.2554,-1.2577
2635,0.1036,-0.0591,9.8813,0.3911,0.0613,-0.2846,30.2652,-7.7258,41.1236,0.0849,-0.4394,0.8006,-0.5336,-0.0647,-0.526
2648,0.0372,0.0416,9.7358,0.2265,0.1042,-0.4377,29.992,-10.1334,40.1194,2.1855,0.4663,-0.3915,-0.6097,0.3393,-1.1696
2663,0.1439,-0.0236,9.8216,-0.2609,-0.0333,-0.0408,31.6174,-8.8408,38.4899,-0.4088,0.73,0.2298,0.3723,1.0952,0.8106
2675,0.1044,0.0715,9.7628,-1.3006,-0.4546,-0.3616,27.4936,-10.8613,40.8555,0.2734,-0.1343,-1.5494,1.0179,-0.1393,-0.0814
2688,0.2213,-0.0165,9.7781,-0.7897,-0.5063,-0.2388,29.4946,-11.0575,39.0315,-0.5874,-2.4383,-1.2183,0.9086,1.9953,0.3248
2699,0.0948,0.0574,9.7912,0.1295,0.1361,0.0385,29.5661,-8.1423,39.9692,0.618,-0.92,0.1515,-0.1919,-0.6655,0.1396
2710,-0.065,0.1276,9.7505,0.1836,-0.0532,0.5675,28.2823,-9.4245,40.0073,-0.8013,-0.7321,-0.3615,-0.51,-0.5501,-0.9049
2720,-0.0183,-0.0837,9.848,-0.5844,-0.7948,0.0115,29.233,-9.3742,39.7191,-2.2771,-1.0205,0.3499,1.1813,-0.4715,0.5104
2731,0.0997,0.0091,9.8294,0.3857,-0.0153,-0.5299,29.3077,-10.9511,39.6174,0.9696,1.4273,0.0802,0.7977,1.4773,1.8964
2742,0.2504,0.0439,9.8358,0.0766,-0.2757,-0.0675,30.4664,-10.5023,39.842,0.0245,0.3985,0.3144,-0.5453,0.6843,-0.1
2757,-0.0032,-0.1824,9.7705,-0.6271,-0.006,-1.4627,30.988,-10.2305,39.4305,0.5886,-1.4993,-2.3881,0.1096,-1.2304,1.1529
2768,-0.0736,-0.0723,9.7417,0.1237,-0.3272,0.8257,31.3466,-10.216,41.7218,0.5706,0.8697,0.3617,0.1042,1.5651,0.2751
2778,-0.058,0.0611,9.8908,-1.0088,-0.365,-0.7617,29.8492,-11.5635,40.5356,-0.8638,1.6456,1.4073,2.3367,-0.3508,-0.6936
2790,0.0402,0.066,9.8765,-0.0519,-0.5706,0.5823,29.4992,-10.2682,40.027,-0.2185,0.5008,-1.1451,2.0473,-0.1811,-0.2382
2801,-0.121,-0.0401,9.8006,-0.8826,0.6305,0.0853,30.0176,-9.7783,41.0174,0.8064,-0.8292,0.8232,-0.1655,0.1809,-0.4516
2812,-0.2143,-0.1568,9.8158,0.128,-0.3533,-0.246,30.4923,-9.9165,39.0716,-3.2706,-0.455,-1.4662,-0.3948,-1.5891,-2.2685
2823,-0.0935,0.0253,9.8655,-0.7271,0.4778,0.1494,29.3659,-9.2334,40.8768,-0.524,-0.7066,-0.4243,1.7478,-2.5869,0.8035
2834,0.1031,-0.1683,9.7431,-0.7234,-0.1532,-0.75,29.8283,-9.7662,39.4016,0.5907,1.8652,-0.0688,1.5475,-0.3713,0.4979
2845,0.0021,0.0189,9.7986,-0.468,-0.1534,-0.9961,31.0478,-8.3597,40.1446,-1.6398,0.645,-1.532,1.203,1.8572,1.1132
2855,0.1009,0.0833,9.759,0.3161,-0.032,0.3082,31.4408,-9.5665,41.8483,-1.8352,0.2279,0.4856,0.2054,1.9818,0.1145
2870,0.1639,0.0683,9.6833,0.9279,-1.6341,-0.411,29.496,-7.8072,40.335,0.6018,0.2802,1.7027,-0.9368,-0.6632,2.0573
2884,-0.0231,-0.0719,9.6702,-0.2417,0.8097,-0.9474,30.4534,-9.7917,38.9825,-0.7473,-1.1026,-0.6818,0.6091,0.0217,-1.2009
2899,-0.0487,0.0089,9.7718,-0.2594,0.471,0.1259,30.9046,-10.4329,40.0671,-1.5421,0.4719,0.8145,-0.4622,1.0751,0.04
2912,0.0711,0.064,9.8054,-0.4785,0.3008,-0.57,27.4665,-11.0205,40.0134,0.0227,1.0232,1.9862,1.9515,-1.6525,0.5714
2923,0.0314,-0.0572,9.7683,-0.054,0.1542,0.241,28.8897,-9.6153,40.484,0.8233,0.6778,-0.5382,-0.8863,0.4563,0.8584
2933,0.083,0.06,9.8593,-0.046,-0.0035,0.4884,32.1749,-9.7018,42.4962,0.0397,-0.359,0.7892,-0.0927,-0.6085,0.8728
2944,0.05,0.1887,9.8135,-0.4577,-0.0942,-0.2856,28.8313,-8.8065,40.3687,-1.7535,0.4588,0.2742,0.3411,0.6515,-0.6721
2954,0.0033,-0.0294,9.821,1.0095,1.2188,0.1189,29.0857,-10.0383,38.8831,0.3304,-1.3186,-0.8866,0.5207,-0.3598,-1.0869
2966,0.0107,0.0323,9.7853,-0.0932,-0.1528,0.4215,29.7435,-8.779,40.2389,-0.0366,-0.9704,-1.7584,1.0737,-0.7258,-0.3986
2980,-0.0708,-0.174,9.806,0.5819,0.2791,-0.0835,29.7077,-8.1452,39.0018,-0.4272,-0.6524,-0.8871,1.1752,1.2892,1.6565
2993,0.0872,0.0563,9.7647,-0.9169,-1.3517,0.2428,29.915,-10.3096,40.1416,-0.9144,0.7574,0.5186,-1.6119,0.5748,-1.0706
3006,0.0632,0.1125,9.7642,0.0323,0.4748,-0.1657,30.5119,-9.5569,37.4955,-2.2095,0.813,-3.4678,-0.2175,0.7394,0.4191
3018,-0.025,0.1315,9.7627,0.3311,1.2077,0.4225,30.4752,-10.6528,39.6934,-0.5188,0.5757,-0.0001,-0.0221,0.2481,1.0142
3030,0.0431,-0.0602,9.7098,0.5981,0.4857,0.4791,31.325,-10.1821,39.8178,-1.3411,-0.2002,-1.0286,-0.9573,-0.7785,-0.6021
3041,-0.0815,-0.1295,9.826,-0.3996,0.3788,-0.974,31.831,-9.2231,38.9878,1.0326,-1.6792,1.1563,-0.9698,-0.7753,1.1768
3053,-0.0168,0.0792,9.8282,-0.6264,-0.4623,-0.7195,30.0892,-9.2326,39.594,-0.011,-1.8247,2.5091,-1.0368,-1.2684,-1.9315
3063,-0.036,0.0125,9.657,-0.7228,0.7419,0.4322,28.8541,-10.131,40.424,0.2743,-0.5696,-0.1932,-0.7202,-0.62,-0.6977
3075,0.0413,-0.0061,9.7899,0.7558,-0.1383,-0.0616,30.0348,-10.3034,39.0793,1.2157,0.4669,-0.3072,2.7283,-0.9273,-1.2922
3090,0.022,-0.0615,9.8195,-0.5931,-0.4876,0.1788,31.0769,-10.1062,40.1146,0.2695,-1.7711,-0.5714,-1.229,-0.7838,-0.5384
3103,0.0249,-0.011,9.8217,0.8365,-0.6242,0.2927,29.133,-9.6426,40.5825,-1.1832,1.2753,-0.7317,0.0684,0.6414,-1.9854
3117,0.1337,0.0358,9.6497,-0.6923,-0.0936,0.4418,28.5158,-10.3031,41.0603,-0.7166,0.3822,0.4274,-0.6233,-0.8392,-0.1788
3130,0.1193,0.3549,9.8299,0.6184,-0.5405,0.4637,29.3986,-8.8858,39.2803,0.6333,0.4321,-0.961,-0.1616,0.9077,-1.04
3141,-0.064,-0.051,9.7799,0.0516,-0.6186,-0.1981,28.8733,-11.5767,40.1752,-2.0058,-0.0865,-0.9659,-0.5557,1.3773,0.6379
3152,0.3011,0.0487,9.8005,-0.0994,0.2305,-0.6047,28.6024,-7.7974,38.538,0.9508,-0.5885,0.4603,-0.3694,-0.5179,0.7665
3162,0.134,-0.1126,9.8305,0.1678,-1.0691,0.3948,29.7461,-7.5286,40.4502,0.3306,0.7603,-0.5333,1.4305,-0.3679,1.1678
3173,-0.0915,-0.0786,9.7807,0.0507,0.0674,0.9985,29.8008,-11.0127,39.393,0.2784,-1.9733,-0.3298,-0.7034,0.2472,-2.1513
3184,0.0287,0.0285,9.7595,0.2494,-0.0979,0.5548,31.1406,-10.3119,39.0991,0.2809,0.5639,-0.9721,0.8098,-0.3938,-0.5375
3197,0.0122,-0.0818,9.8085,0.3093,-0.1098,-0.0939,31.8012,-10.628,41.1583,0.8664,-2.1488,1.3778,0.6609,0.1563,0.8273
3210,-0.0032,0.0862,9.8696,0.0348,-0.5598,-0.2514,28.9208,-12.7045,39.838,1.1432,-0.9165,0.5841,-0.0561,-0.2336,-1.0876
3225,0.0934,-0.1404,9.8384,-0.0098,-0.4907,0.2665,29.1052,-11.9492,40.6128,-1.0041,0.9097,-0.253,-0.4767,-0.5462,-0.5806
3237,-0.0246,-0.0643,9.7695,-0.5571,-0.8801,-0.0052,30.1849,-9.3735,38.2132,1.7086,0.7128,-1.4846,-1.1906,0.6988,-1.2405
3248,-0.0188,0.0745,9.8117,1.0468,0.1387,0.4242,29.2179,-8.1121,40.5669,-0.6132,-1.3079,-0.6579,0.5585,-1.1702,-0.8349
3259,-0.0095,0.0573,9.7786,-0.4495,1.1346,-0.6316,29.0386,-9.2369,40.0785,-1.315,-0.1065,-0.2908,-0.6046,-1.9487,1.4813
3270,-0.0236,0.1864,9.7983,0.0898,0.1001,0.421,30.4528,-9.8745,40.961,1.7553,-0.3324,0.5916,-1.0452,-0.0846,-1.5506
3280,0.0821,0.0065,9.693,0.0749,-0.0022,0.2787,29.8018,-8.713,40.3961,2.1665,0.8411,0.7959,0.3284,0.7139,0.027
3293,0.0859,0.0888,9.7797,-0.7544,0.9339,0.0545,30.8554,-10.1113,40.983,-0.5782,1.2886,0.3259,1.6088,-0.2015,1.2042
3310,0.0297,0.0074,9.7476,-0.5941,0.7297,-0.9838,31.5856,-10.3845,39.5389,0.1649,-0.1915,0.2724,0.8027,0.4427,-0.8424
3323,0.0283,-0.1041,9.8263,2.0853,0.0525,0.1351,28.6804,-8.0843,36.8694,-0.4401,-0.9406,0.3585,0.0722,0.3769,0.8557
3334,-0.0154,0.0587,9.8176,-0.1334,0.2291,-0.0418,29.8381,-8.5482,40.0504,-0.8769,-1.5534,-1.4995,0.1088,-0.5466,-1.3731
3344,0.153,0.044,9.8268,0.5969,0.4849,-0.0287,29.596,-10.8361,40.6746,-0.3194,0.5063,1.4851,-0.8424,0.2232,0.4693
3356,0.0707,0.0553,9.7324,0.507,0.2849,-0.115,30.9204,-8.1999,41.5058,-0.8606,-1.3655,0.7022,0.0683,-0.9115,1.1195
3367,0.008,0.147,9.7858,-0.1911,-0.0543,0.4132,30.1456,-8.3056,40.0597,-0.4919,-1.4147,-0.6526,0.7462,0.5912,-0.7845
3378,-0.0985,0.0506,9.8883,-0.4099,0.3397,-0.1066,30.319,-8.6279,38.4806,-1.2471,-2.2134,1.5833,-0.9499,0.3844,1.7614
3389,-0.0983,-0.1462,9.7985,0.0467,-0.2088,-0.0639,29.8452,-11.4055,39.3134,0.3582,0.5752,0.3158,-0.576,0.1775,0.9959
3400,-0.1215,0.0356,9.7328,-0.7046,-0.3628,-0.4354,30.0353,-8.699,40.1239,-2.4246,-0.5704,-0.0563,0.4405,-0.1405,0.8662
3410,-0.0176,0.0333,9.7955,-0.2498,0.031,0.4899,29.0999,-10.5606,38.0162,0.9766,-0.5088,1.0362,0.4817,2.3347,-1.7992
3420,-0.0096,-0.1966,9.8254,-1.0904,-0.8387,-0.2807,30.2076,-11.1166,38.0541,-0.8326,-1.54,1.3421,-0.006,0.7102,-1.4588
3430,0.0032,0.0321,9.7589,0.4896,1.1233,-0.678,28.4657,-10.585,38.1675,2.4708,1.8751,1.2217,-0.1542,0.6016,0.6985
3445,-0.0638,0.0282,9.7635,-0.303,-0.1302,-0.9887,28.5416,-11.0539,37.9263,-0.9948,1.2326,-0.6537,0.7451,0.501,-0.0333
3459,-0.1298,-0.0331,9.8327,-0.1835,0.189,-0.6575,31.2508,-10.8843,39.7735,-1.0793,-1.2682,0.043,-0.302,-0.4712,-0.0304
3472,0.0275,0.0136,9.706,0.595,-0.0832,-0.6309,30.6612,-10.8217,39.9437,-1.5146,-1.2291,-0.2963,0.1077,-1.5423,-1.117
3486,-0.046,-0.022,9.8597,-0.6857,0.3638,-0.2599,28.671,-9.4279,39.1374,0.5887,-0.3012,1.1155,-0.4501,0.9267,-1.0615
3500,0.0031,-0.0837,9.715,-0.5529,0.0875,-0.0984,29.232,-9.7311,40.2854,0.5884,0.0904,1.9051,0.4188,-1.5219,-0.9781
3511,-0.0326,0.0899,9.7659,-0.8636,-0.0953,0.2722,30.5405,-11.5806,40.3422,1.5363,0.336,-2.8732,-0.5556,1.6804,-1.0007
3521,0.0543,0.0149,9.7132,-1.0762,1.0718,0.0357,30.6561,-10.0349,39.2732,0.6089,-0.6682,1.0845,-1.1804,0.3642,1.9605
3531,0.0912,0.1216,9.7331,-0.2258,-0.0769,-0.8762,29.9317,-10.1724,39.1926,-0.07,-1.5623,-0.6988,1.8105,-1.0881,0.2755
3542,-0.0772,-0.0484,9.8303,-0.0987,-0.584,0.8989,30.4474,-10.1262,38.7375,-1.0854,0.8177,-0.6705,-0.1757,-0.7683,1.0681
3553,0.0509,0.0183,9.8493,-0.2656,-0.2413,-0.3047,30.6519,-9.1848,38.3799,-3.2322,-0.4928,0.3288,1.1564,-1.5718,-0.1595
3565,0.05,-0.0416,9.8103,1.1239,0.2003,-0.4867,30.3675,-10.6235,41.5086,0.0014,-0.968,0.6022,-1.5252,-0.3561,-0.2694
3580,-0.1303,0.0979,9.8492,-0.4823,-0.9318,-0.1455,30.8883,-9.5483,40.5582,1.593,1.1483,1.2335,2.0779,-0.0575,-0.0438
3593,-0.0786,0.005,9.7382,-0.041,0.0335,-0.3509,29.5216,-10.1685,39.9633,-0.8239,0.9099,0.0728,0.8535,-0.1683,0.5783
3607,0.0324,0.077,9.7199,0.1384,-0.47,-0.125,30.629,-9.409,39.0531,1.5841,1.0733,1.6884,-0.4723,1.064,-0.5708
3620,0.0852,0.078,9.7735,0.2541,0.0386,-0.1461,30.3601,-9.5905,39.6862,1.0727,-0.5777,0.2802,1.0306,-1.1054,0.3134
3630,-0.0829,0.1522,9.7114,0.1776,-1.048,0.5003,29.4638,-10.177,40.0304,-0.0788,1.1199,0.5062,-0.0794,0.2476,0.3199
3641,-0.1483,-0.06,9.7532,-0.4373,1.2135,-0.1445,28.5259,-8.5727,39.0384,-0.1233,1.49,-2.8456,1.1476,0.4582,0.5639
3652,-0.0431,-0.0235,9.8269,-0.4636,-0.2766,-0.2808,31.1504,-10.3984,39.1425,-1.3727,0.4714,0.7871,-0.6786,0.5425,-0.5665
3662,-0.1221,0.0235,9.7615,-0.3734,0.2183,-0.6495,29.7673,-10.1946,39.2713,0.1088,1.8939,-0.1284,-0.9844,0.4013,-0.4728
3674,-0.0298,-0.0114,9.8357,0.9408,-0.3482,0.412,29.4608,-9.7791,38.9996,-2.759,1.0686,0.8618,-1.1609,0.8093,-0.4177
3686,-0.0288,0.0637,9.7969,0.6614,0.6558,0.2574,29.3655,-9.9294,39.6349,-0.8719,0.657,1.9734,0.6899,1.1008,0.3886
3701,0.1612,0.0513,9.828,0.1657,-0.6914,0.7981,31.2917,-10.407,41.4487,-0.8547,-0.1844,-0.5834,1.632,-0.2849,-2.0804
3715,0.0399,-0.0508,9.7272,-0.7391,-0.0498,-0.3135,29.9808,-7.8956,38.7447,0.1208,-0.0879,-0.9973,0.7489,-1.0286,0.7129
3728,0.0464,-0.1557,9.8133,0.4804,0.0152,-0.4988,28.5892,-8.7762,39.9525,-0.8901,-0.6305,0.876,1.1424,0.8379,-2.0885
3741,0.0732,0.1985,9.7303,-1.0886,0.4905,0.484,30.3665,-9.0614,39.396,-0.5064,0.4029,-0.0845,-1.3456,-1.4281,-1.9037
3752,-0.0344,-0.1639,9.8478,0.7361,0.9546,0.3649,30.8083,-9.9094,40.7341,0.6429,-0.4319,-0.3643,-1.2059,-0.0784,0.1805
3762,0.0129,-0.1167,9.8844,-0.5962,0.9449,0.0723,30.3952,-10.0989,39.4653,-0.3232,-0.4263,1.4062,0.2094,0.3261,-0.2769
3773,-0.0385,0.1931,9.7695,0.779,-0.0344,0.1723,30.767,-11.8814,39.9565,0.1442,-0.5398,-0.7032,-0.1008,-1.967,0.0538
3783,0.0246,-0.1161,9.7912,-1.1824,0.2596,0.1537,30.7131,-9.933,40.6318,0.8877,0.2543,0.0325,-0.4056,-0.8444,-1.6311
3798,-0.0365,0.0441,9.8015,-0.393,-0.4829,-0.1473,31.0364,-7.9804,39.2448,0.6664,1.1238,-0.5076,1.9446,0.9421,-0.4827
3812,0.0151,0.1109,9.8353,0.0592,0.2335,-0.8869,30.0536,-9.286,40.4596,1.6755,-0.0473,0.0075,0.6498,0.6567,-2.204
3824,0.1453,-0.0326,9.7738,-0.2668,0.3311,-0.4927,31.3617,-9.0923,41.0902,0.5301,0.1386,-0.0701,0.3303,1.4939,-0.6789
3838,0.0532,0.1756,9.8335,0.9594,-0.2872,-1.1352,28.1247,-8.849,39.9434,0.9993,-1.8227,0.9372,-0.7269,-0.762,0.7915
3848,0.0402,0.0824,9.7566,-0.8158,0.2932,0.2909,30.4681,-9.4404,42.4959,0.8785,-1.4226,0.0112,0.6917,-0.1367,0.0213
3859,0.0141,-0.0561,9.7808,0.143,-0.1807,0.9906,30.8771,-11.8065,40.1235,-0.3893,-0.6345,0.0057,-0.7204,0.2671,0.9946
3871,0.0429,-0.164,9.7864,0.2286,-0.67,-1.2269,29.3459,-8.8532,40.3092,1.2183,-0.0352,0.7324,1.224,1.3331,0.3145
3882,0.0777,0.0321,9.8532,0.9397,-0.0998,0.1617,29.1097,-8.0768,39.1195,0.5466,0.1576,0.4034,1.0559,1.0715,-1.9973
3893,-0.0463,0.1446,9.7808,-0.3302,0.4683,0.0236,29.2126,-9.475,39.7284,0.6613,1.0359,0.0677,-0.0917,0.1506,0.9633
3905,0.1742,0.0558,9.7417,-0.228,0.0528,0.4777,29.2731,-11.8213,40.3111,-0.1421,-1.61,1.2379,0.2605,1.5288,2.4362
3919,-0.1988,0.0052,9.8248,-0.153,-0.1077,-0.0602,31.1648,-7.1351,41.8137,-0.67,-1.2679,-0.0793,0.2717,0.9843,-1.2497
3929,0.1549,-0.0519,9.7487,-0.3301,0.6644,-0.1938,31.036,-9.8678,40.1361,-0.1305,1.7359,0.1338,1.5247,0.1338,1.1512
3940,0.1766,-0.0887,9.8051,-0.4606,-0.1574,0.0612,30.1931,-10.7074,39.1218,-0.8318,2.2977,1.3895,0.1899,0.5517,-1.2205
3950,0.1033,-0.2123,9.7695,-0.0696,-0.3058,0.1084,30.1715,-10.2284,40.2841,-2.3957,-0.9264,-0.843,-0.4231,0.4985,1.3656
3964,0.0022,-0.108,9.8499,0.0964,-0.3848,0.3326,31.929,-10.5323,39.3022,1.8627,0.151,1.7037,-0.2264,-0.003,-1.1536
3975,-0.0492,0.0174,9.8545,0.6263,0.5326,0.2941,30.2335,-9.2377,40.8617,0.2279,1.5515,-0.6932,0.5052,-2.0821,1.2435
3986,-0.0473,0.1094,9.7661,-0.7311,0.0679,0.4441,29.529,-10.3859,40.1958,0.6245,1.2673,-0.4646,-1.6423,2.3303,-0.8613
3997,-0.0369,-0.0148,9.7724,0.3079,0.2458,0.8366,31.0273,-11.3589,39.2248,-0.3388,-2.1944,-0.1265,1.7389,0.9933,1.0393
4013,0.1314,0.0527,9.8698,0.3598,0.6381,0.5876,30.0397,-10.9444,40.6968,-0.5065,0.0245,0.1177,-1.5119,0.8959,0.3768
4027,-0.1311,-0.0521,9.8258,-0.2452,0.1006,-0.2765,30.109,-9.3968,40.061,1.569,-0.3061,0.0845,1.4302,-0.8564,1.1081
4043,0.078,0.0684,9.845,-0.7966,0.9814,0.302,31.2389,-8.3895,39.0661,-0.7059,-0.1354,-1.5326,0.0373,1.8809,0.8236
4053,0.1395,-0.3447,9.8831,0.3128,-0.0206,-0.6958,29.8006,-10.6598,38.5647,-1.8677,-0.5864,0.5908,0.1864,0.1071,1.275
4064,0.0116,-0.182,9.8888,1.1559,0.0579,-0.5442,31.4913,-10.2527,37.7028,-0.7823,1.0783,-0.4104,1.0193,1.486,2.4378
4075,0.0823,-0.0347,9.7639,-0.3655,-0.1203,0.4069,30.2984,-8.6615,41.3843,-0.0097,1.5736,0.9002,-0.7746,-0.3062,-0.0037
4085,-0.053,0.0763,9.8755,-0.3897,0.2498,0.2104,30.2325,-11.4636,38.4882,-0.0775,-0.8016,1.7026,0.5634,0.421,0.7446
4097,-0.0903,-0.0268,9.8035,0.5622,-0.3206,-0.238,29.2333,-10.1287,39.0269,-2.3406,1.2808,0.5564,-1.2849,1.7972,-0.3684
4110,-0.1555,-0.1225,9.8253,-0.6671,0.2689,1.1032,31.2029,-9.882,40.5857,0.8579,0.2679,1.3942,2.3269,-0.7615,-0.9658
4122,0.0676,-0.043,9.8101,0.3765,-0.2697,0.5507,29.5397,-10.3818,40.0077,-0.646,0.6476,-0.9528,-0.7164,1.3053,-0.244
4133,0.0285,0.0305,9.7751,-0.0614,0.9348,0.5176,32.0282,-8.3882,37.8082,-1.5279,0.8588,0.1255,-3.0282,0.4271,0.5658
4144,-0.0337,-0.0842,9.8221,0.0925,0.2332,0.5025,30.1277,-10.5898,40.2717,0.2587,-0.0117,0.7213,-0.2342,0.1657,-0.1748
4155,0.1202,-0.1111,9.8396,0.3519,0.6434,0.2278,30.7225,-8.8488,39.6018,0.8685,0.0099,-1.2821,-1.5654,0.4483,0.0066
4165,0.047,-0.0044,9.7881,-1.0135,-0.0047,0.1791,31.1568,-8.4981,40.5188,-0.7034,1.5062,0.9594,0.6776,-1.8083,0.2126
4175,0.0425,0.0757,9.7604,0.2096,1.1749,0.2016,29.9115,-8.3458,40.2317,-0.9907,-2.7915,-1.5499,-0.67,1.0569,-0.4764
4186,0.0881,0.0759,9.7958,0.2971,-0.2974,-0.0781,31.0613,-11.5535,39.6791,-0.3496,-1.2396,-0.2262,1.3819,-0.0354,-1.8899
4200,0.0264,-0.0246,9.7355,-1.0204,-1.0002,0.2593,30.3033,-11.5273,37.8327,0.0808,1.0583,0.0812,1.7128,-0.735,0.9182
4212,-0.0929,-0.0659,9.7526,0.155,-0.3938,-0.5624,30.0391,-9.6039,38.9978,0.3349,-2.4639,1.218,0.1224,0.9515,-0.5176
4224,-0.1243,-0.1319,9.7769,-0.4298,-0.0562,-0.6368,30.0059,-8.7082,38.6471,-0.7026,-0.5967,0.7999,1.0775,0.605,0.2806
4234,0.0383,-0.1955,9.7941,-0.2156,0.0212,-0.8839,30.6304,-10.4749,40.3334,-2.019,-0.3251,-0.574,-1.437,-1.19,-0.6041
4246,-0.0003,-0.0348,9.8524,0.3311,-0.352,-0.0539,29.3105,-11.1291,40.9916,-1.5535,0.2862,0.8637,-1.4929,-0.5874,0.5367
4256,-0.0348,0.1716,9.7988,-0.0918,0.2418,0.4897,29.7606,-10.6134,41.1301,0.4266,0.3425,-1.8489,-1.5263,-0.8354,0.5116
4268,-0.0298,0.0082,9.7316,-0.1633,-0.4048,0.2271,28.1591,-7.8573,41.1945,0.6624,-0.1228,-0.234,-0.4059,0.3804,1.1341
4279,-0.1324,-0.074,9.8402,-0.2224,-0.985,-0.0679,29.0723,-9.3301,41.2145,0.4643,-0.4292,1.3295,-0.6796,-0.3918,-0.9792
4290,-0.1286,0.0253,9.802,1.3495,-0.1167,0.1942,30.4687,-12.1527,39.8435,1.0798,-0.5843,-0.696,1.7691,0.4893,2.3947
4300,0.0735,0.0461,9.791,0.5734,-0.6627,0.244,28.0502,-10.8866,40.1138,-1.2226,0.2363,1.1405,-1.6515,0.6375,0.1814
4310,0.0952,-0.113,9.7771,-0.7084,0.1911,-0.2339,30.8723,-8.7586,40.571,-0.256,0.6198,-0.3176,0.157,-0.9673,0.4306
4321,0.1073,0.0192,9.7092,-0.8269,0.0618,0.3789,30.9012,-10.2744,40.8885,-0.399,-2.2065,-2.2383,0.2126,0.1317,-0.2147
4331,0.0482,0.087,9.8492,-0.8972,0.1382,0.3278,30.1335,-11.6151,39.247,1.8713,1.4166,0.8072,-0.214,-0.9554,0.1405
4347,-0.0171,0.0204,9.7355,-0.2104,0.9751,0.1866,29.6959,-9.0899,40.4906,0.7983,0.402,0.1468,0.8693,-1.2639,-0.5791
4360,0.1334,0.0093,9.8175,-0.3412,0.0703,-0.7994,30.8077,-10.4494,38.8869,-0.2824,-0.7171,-0.833,-1.4132,0.1177,-0.3958
4370,-0.1899,-0.0293,9.8102,0.1223,-0.0757,-0.0306,28.6203,-10.2747,40.713,1.4068,0.0929,0.045,-0.6839,0.946,-0.4974
4381,-0.0629,-0.1764,9.8617,-0.4191,-0.0669,0.6157,29.3172,-9.9701,40.7118,-0.0157,1.5783,2.1329,-1.9974,-2.6086,-0.0612
4398,-0.0922,-0.1153,9.7671,0.5381,-0.0423,0.5752,30.1329,-10.7014,38.9848,1.2755,0.0507,1.9565,0.9424,0.4853,0.142
4412,0.2114,-0.0149,9.8421,0.0884,0.1518,0.6079,31.1395,-11.2778,40.1879,1.1357,-1.1289,1.3224,0.9486,-0.0772,0.5352
4423,-0.1253,-0.0804,9.8081,-0.8506,0.386,0.0693,30.1555,-9.9747,41.0667,-1.7764,0.0398,-0.4688,0.9233,0.039,0.206
4433,0.1277,-0.0076,9.8471,-0.3883,0.1374,-1.1656,30.038,-11.5893,40.1656,1.8578,0.8275,-0.694,-0.8433,-1.6088,1.4541
4443,-0.0897,-0.0941,9.774,-0.3484,0.5773,0.0011,32.0709,-10.5717,40.4038,0.0966,-1.4687,-0.7311,-0.1868,-1.7084,2.6254
4454,0.0702,-0.1278,9.7839,-0.8516,-0.139,0.1746,29.1523,-8.9823,39.8135,-1.0965,-0.8895,-0.8905,-2.414,0.3746,0.0934
4466,0.2281,-0.0736,9.7829,0.2044,-0.2415,-0.1808,28.3712,-8.6253,38.72,-0.175,-0.9612,-0.5286,0.243,0.7255,0.9229
4482,-0.0651,-0.0637,9.7909,0.1945,0.1015,-0.1172,30.3824,-9.7399,39.8443,-0.0794,-0.9567,-0.5744,0.7407,-0.5003,-0.1514
4497,-0.0852,-0.1102,9.7335,0.0074,0.2428,-0.2676,32.5492,-11.5223,40.4996,-0.1347,-1.8145,-1.3443,0.2921,-0.6989,-0.2542
4508,0.0078,0.0442,9.8522,-0.2473,0.3601,-0.5076,32.4897,-12.0876,39.7878,-0.4483,0.2489,-0.3719,-0.2556,-0.9177,1.2683
4519,-0.0583,-0.0837,9.7096,0.0287,-0.2197,0.3654,30.2068,-9.6138,40.5969,-0.08,-1.408,-0.1012,-1.0037,-1.2382,0.627
4531,0.1613,0.032,9.8356,0.8686,0.1006,-0.2558,30.9628,-10.1725,39.2467,-0.3436,1.5834,1.4639,-0.1976,-0.6363,-0.1597
4543,-0.0377,-0.0137,9.6916,-0.4777,-0.0696,0.5256,30.6879,-10.1996,39.8824,0.4588,0.9599,0.2574,0.0556,0.1588,-0.3012
4554,-0.0372,-0.0706,9.7518,-0.0092,0.7154,0.23,28.0624,-11.6487,40.2128,-0.8456,1.0177,-0.0735,-0.0715,0.6344,-0.2646
4564,0.0519,0.0772,9.8128,0.3145,-0.4244,0.6456,29.1839,-9.5871,39.6325,-0.1323,-0.7138,0.162,-0.6241,-0.1561,-1.0636
4574,-0.1355,-0.1021,9.8583,-1.4057,0.8065,0.0779,28.6185,-12.0145,40.6135,0.51,-1.0665,-1.0485,-0.4416,-1.4824,-1.6053
4585,0.1189,-0.0058,9.8066,0.596,-0.7432,-0.3567,32.3134,-9.2711,43.2138,0.2484,0.1575,-1.7951,0.8859,-0.3758,-1.8821
4598,0.0657,-0.1355,9.8355,0.2073,0.4259,0.5493,30.2039,-11.2032,39.3694,0.4926,-0.1757,-1.2825,-0.5252,-1.9034,-0.3693
4609,0.0655,0.1492,9.7876,0.2493,-0.2844,-0.2533,30.5272,-10.7601,40.7371,-1.1616,-0.8769,0.3052,1.8796,1.149,-0.5247
4620,-0.0515,0.0885,9.7772,-0.3944,-0.0785,0.5038,30.4816,-9.7611,39.1706,0.3009,-0.2616,0.992,0.5266,-0.5372,0.9373
4630,-0.029,-0.071,9.8457,0.1971,0.0336,0.2135,30.6168,-10.1584,40.2438,-0.2327,-0.5497,-0.6185,-1.856,-0.0387,0.4924
4644,-0.0336,0.0656,9.8639,-0.4194,0.7779,-0.1199,30.785,-9.9936,41.7711,-0.576,0.2052,-0.4444,-0.7132,-0.5659,-2.3875
4659,0.0353,0.0524,9.7948,0.0502,-0.0241,-0.4458,29.5729,-10.8601,39.9345,1.4209,1.0789,1.0403,-1.6956,1.5057,0.7175
4675,-0.0409,-0.1316,9.7555,0.9242,-0.6114,0.8069,29.8769,-10.8431,39.6856,0.7626,1.084,-0.7462,-0.2469,-1.8951,-1.4441
4685,0.0943,0.0741,9.8139,-0.4586,-0.0566,0.6635,31.3753,-10.4356,40.3032,-0.1227,0.7922,1.8982,-2.3905,1.0252,0.5907
4695,0.0473,-0.1965,9.7857,0.0101,0.6517,-0.146,28.0973,-10.0342,42.0972,-0.5026,-1.402,-0.0969,-1.7644,-0.303,-1.5009
4711,0.0346,0.2153,9.8673,-0.8678,-0.4547,0.0946,28.6055,-7.0313,40.3561,0.6652,-0.5507,-1.5085,0.6365,0.2088,-0.2903
4725,-0.191,-0.0204,9.7841,-0.2472,0.7202,0.4239,28.2352,-11.0962,38.2881,1.3186,-1.6453,-1.6411,1.6073,-0.9018,1.5862
4739,0.0171,-0.1421,9.8115,-0.1179,-0.2133,0.9379,31.699,-10.713,38.9579,0.2709,1.0164,-0.5167,-1.3359,-1.4555,-0.0838
4750,0.0046,-0.0775,9.8141,-0.4891,-0.0006,0.3934,28.6632,-11.3052,40.4915,-1.1385,0.9291,-0.0204,-0.0958,-1.4016,0.8202
4762,-0.1209,0.0191,9.7924,0.3164,0.5421,0.3514,28.4187,-11.9149,38.7122,-0.301,0.0508,0.3156,-0.8694,-1.7581,0.7156
4775,0.0306,-0.182,9.7693,0.5282,-0.0648,-0.6109,29.8145,-11.7497,39.7557,2.0991,0.126,-0.2003,0.7799,0.3727,1.1925
4786,-0.1907,-0.092,9.7375,-0.5417,0.1808,-0.1329,27.9114,-11.8234,40.5175,-1.4796,2.9822,0.9567,0.0663,-0.3455,0.6712
4797,0.169,0.0438,9.742,0.2877,-0.8617,-0.6511,28.435,-9.4416,39.7614,-0.9438,-0.3132,-1.7089,0.5592,-0.8657,1.0465
4807,0.0613,-0.0675,9.8503,0.3695,-0.3388,0.7398,30.3294,-10.2014,40.0311,-2.3645,-0.6995,0.8052,-0.0611,-0.7973,0.4614
4818,-0.0321,0.0298,9.839,-0.1327,-0.3508,0.2441,30.3583,-10.3309,39.2355,-0.8284,0.3196,0.6493,0.7937,-0.4895,-0.9009
4828,0.0434,-0.0018,9.7509,0.5026,-0.1165,0.3917,31.6788,-9.8823,38.6303,-0.951,1.3658,-1.4846,-2.6259,-0.1319,-0.2327
4849,0.1568,-0.0569,9.7559,0.7232,0.4083,-1.2404,31.2299,-8.7143,41.3574,-0.6867,0.4499,0.29,0.0697,0.497,-0.3139
4863,-0.1241,-0.0803,9.8398,0.0921,1.062,0.4508,29.8231,-10.5495,39.4412,-1.021,1.3071,-0.2844,-1.9167,1.3561,0.0365
4877,0.1014,0.0501,9.8078,-0.8844,0.5867,-1.0005,32.6667,-9.4569,38.7708,-0.5823,-1.0555,1.0845,1.1716,-1.5065,0.4568
4888,-0.0242,-0.0395,9.8135,0.3562,0.3659,-0.1641,29.187,-11.0915,41.1068,-1.0069,0.5161,0.0892,-0.8012,1.4644,1.4628
4899,-0.0694,0.0543,9.713,0.0513,-0.8103,-0.0673,31.4257,-9.8377,40.6919,0.7365,0.3881,-1.8383,0.6419,1.1646,1.6186
4910,-0.0213,0.015,9.7562,0.231,0.5749,-0.1201,29.8872,-9.8627,39.81,-1.5417,2.2912,-1.3566,-0.2353,-0.4251,-0.6684
4921,0.048,0.136,9.7124,0.1694,-0.2554,-1.2992,29.7785,-10.588,38.4177,-0.264,-0.3631,0.1811,-0.9322,-1.1696,-0.9592
4932,-0.0135,-0.058,9.9347,-0.467,0.4209,1.5589,30.0648,-9.0344,39.4602,1.8865,-1.508,-0.053,0.9511,-1.235,2.1125
4942,0.0702,-0.1859,9.9158,-0.6296,-0.2454,-1.026,30.8867,-10.3036,39.1869,1.0946,-0.1494,1.0188,-0.2594,1.5028,0.5796
4955,0.0781,0.2683,9.755,-0.6364,-0.4112,0.1437,29.7095,-10.6228,41.9987,1.7916,-1.1206,0.0296,-0.6247,-0.665,0.2544
4967,0.0433,0.1298,9.8179,-0.5558,0.0194,-0.3818,30.3375,-9.8547,39.9787,0.5246,1.1601,0.826,0.4016,-0.7101,-0.1774
4982,0.0153,-0.1146,9.7157,0.5694,-0.2137,0.2609,30.8957,-9.4493,40.1262,-1.7493,1.1581,0.4532,-1.2785,-0.5914,0.5725
4995,0.0913,0.1292,9.7617,-1.0326,-0.4966,0.53,29.8349,-8.2653,39.0821,-1.6085,-0.9042,0.9699,0.489,1.9891,1.7925
5005,-0.067,0.018,9.8546,0.1375,0.676,0.4699,28.4257,-9.1637,39.7977,-1.7136,1.1403,-1.4251,-0.1194,-0.5494,-1.438
5016,0.0101,0.1701,9.8259,0.3913,-0.0364,-0.0604,30.1135,-10.9451,39.0524,1.8413,-0.8712,-0.4291,-0.5764,1.0407,0.4281
5028,0.013,0.0576,9.7648,0.2552,0.7226,-0.1592,30.8285,-10.2598,40.9203,0.4965,0.0743,-0.7937,-2.1478,-0.4646,0.8957
5039,0.1259,0.0488,9.8302,0.3369,0.1731,-0.1565,30.1794,-9.512,41.395,-1.7168,0.2674,1.4481,-0.4074,-1.6696,1.3667
5050,0.0123,0.0495,9.8175,0.1654,0.9846,-0.3921,29.4862,-8.4567,39.8402,1.5075,-0.9315,-0.4451,1.1886,-0.3945,2.7706
5060,0.1163,0.1591,9.6668,0.253,0.0523,-0.5825,30.9008,-10.0754,40.4925,-1.5565,0.3916,-0.099,-0.4122,0.4734,-0.05
5075,-0.0859,0.0421,9.8495,-0.1677,-1.1747,0.1711,31.1051,-9.9487,39.8494,-0.1751,-0.1185,-0.4045,1.2965,-0.1552,-0.0467
5090,0.0776,-0.1826,9.8305,0.3128,-2.0274,-0.1567,30.2057,-8.5833,39.95,-1.4245,0.0896,1.2282,0.0843,0.4948,2.5702
5103,0.0519,-0.0577,9.8079,-0.048,-0.2946,-0.0352,28.3729,-9.5835,38.7345,1.2071,-2.4053,0.2918,0.581,-1.4663,-1.9498
5118,-0.0917,0.2239,9.8327,-0.2472,0.1492,-0.1738,31.066,-10.8466,40.2178,-0.8864,0.6387,0.5092,-1.1454,-0.819,-0.0784
5131,-0.0643,-0.0794,9.7665,0.1698,0.4699,-0.1112,29.6837,-10.1625,39.2798,1.2002,-1.1068,0.073,-0.2007,0.0238,0.1174
5144,-0.1214,-0.115,9.8691,-0.9367,0.5395,0.2837,30.332,-9.0142,39.7382,-0.0345,-0.1429,0.2796,0.2515,1.2478,-1.3514
5155,-0.0268,0.0072,9.9131,0.5931,0.7384,-0.7535,30.3144,-10.4578,41.2477,0.9102,0.8489,-0.439,0.4227,-0.4634,0.1741
5165,0.1297,0.1674,9.8198,-0.8738,-0.4214,0.2522,28.9362,-10.7113,41.7902,0.2326,-0.1507,0.7337,-0.9411,0.7616,1.7474
5176,-0.0794,0.0364,9.6981,1.0757,-0.8055,-0.7848,32.3638,-10.7823,40.0547,0.4078,0.5837,-0.5141,-0.6303,-0.4523,-0.666
5191,-0.0261,0.0178,9.7618,-0.0161,-0.0573,0.0038,30.4072,-10.0462,39.5222,0.8501,-1.0988,0.9958,-1.0623,-1.6829,-0.9242
5203,-0.0728,-0.0419,9.7721,-1.0301,0.1137,0.3206,30.1878,-11.47,39.3469,1.2122,-0.2963,0.2435,-1.1746,0.8502,1.0891
5213,0.0259,0.0703,9.848,0.292,-0.2637,-0.1252,29.6624,-10.503,39.0202,0.4008,0.412,0.4513,-1.6557,-0.6149,-1.4089
5225,-0.0744,-0.0515,9.8715,0.4435,-0.1875,1.0529,29.1097,-9.4689,39.4265,-0.6114,0.532,0.4266,-1.8413,-0.6583,-1.85
5235,-0.0312,0.0688,9.9092,0.4432,0.2232,-0.9161,30.7653,-11.6069,39.11,-0.5353,-0.5581,-0.5362,1.1156,0.6569,0.3146
5246,-0.0701,0.0485,9.7785,0.1639,0.6612,0.6696,31.3921,-10.8869,40.4768,0.857,0.7043,0.0491,-0.489,-1.3256,0.1606
5257,0.0587,-0.0975,9.8523,0.0574,-0.0985,1.1277,30.2913,-11.8873,40.7052,-0.1827,1.2688,-0.9975,-0.3262,-0.1916,-0.6521
5269,0.1808,-0.1184,9.7978,-0.1483,-0.1206,-0.5658,29.7721,-8.7396,40.7702,2.0371,-0.8508,1.4269,2.443,0.8005,0.9139
5279,0.0546,0.0926,9.858,0.3271,-0.2544,-0.8907,30.309,-9.7019,40.4663,0.8206,1.5051,-0.2538,1.2574,0.8905,0.0712
5290,-0.0378,-0.0786,9.7173,-0.1252,0.1515,-0.3812,28.9031,-10.9295,40.7322,-1.0566,-0.791,-1.8473,0.8234,0.9119,-0.3457
5301,-0.0166,0.0038,9.8242,0.7576,-0.2456,0.0991,29.5784,-10.2967,39.9578,-1.2577,1.1879,0.6652,0.1215,0.047,0.0654
5311,0.1138,0.0514,9.7568,0.3748,0.4256,-0.7028,30.7581,-10.594,38.5205,-1.7364,-1.4503,-0.6657,0.0059,0.0525,0.5132
5322,0.0428,-0.1015,9.8582,0.0597,-0.2059,-0.3175,30.8061,-9.5562,40.0989,-0.3824,1.4955,3.2228,1.4962,2.4559,0.0981
5335,-0.1523,0.122,9.8182,-0.2374,0.4666,0.1704,29.6082,-9.6743,38.7855,0.4636,0.0449,1.3344,1.1506,1.6617,-1.4736
5351,-0.0146,-0.0052,9.7612,0.2224,-0.4694,0.6656,28.8625,-10.6234,40.8581,0.215,0.2915,-0.4406,1.9625,0.0592,0.4602
5363,0.0319,0.1074,9.8305,-0.9154,0.0421,0.776,30.1323,-10.3302,39.5088,0.9362,-0.4941,0.043,0.2807,-1.5355,0.2114
5376,0.054,0.0856,9.7877,-0.1945,1.7787,-0.3184,29.4403,-11.4195,40.1563,-0.9163,0.6142,1.3102,1.3151,-0.0274,0.4258
5392,0.1587,-0.0637,9.7858,0.1501,0.2341,-0.352,29.5605,-9.1922,41.1238,-0.8993,0.5485,-0.3507,-0.9628,0.0461,0.009
5402,-0.122,0.0976,9.7891,0.7372,0.4755,0.5742,29.4003,-8.4981,39.8842,-0.2047,-0.2397,-2.3261,0.4604,0.0834,-1.5843
5413,0.0602,-0.0223,9.8388,-0.2999,0.1627,-0.5462,31.3641,-9.4031,39.691,1.058,1.2561,1.6737,1.3644,-1.5975,-0.4631
5423,-0.062,0.0421,9.7447,-0.0022,0.2621,-1.2755,28.3473,-10.1131,38.6388,0.7082,-1.4504,-0.3177,-0.2532,-0.4722,1.6164
5434,-0.0496,0.0948,9.7612,-0.2028,-0.2983,0.744,30.8177,-11.1661,40.2184,0.5816,-0.8281,0.7563,-0.4233,2.4695,0.5926
5445,0.1413,0.164,9.8012,1.1455,0.0564,0.6426,30.9681,-9.7696,38.9832,0.5848,-1.1285,-0.0805,0.0696,-0.6924,0.2333
5457,0.0229,-0.0514,9.7036,0.4814,-0.174,0.9533,30.223,-9.9716,39.3857,-1.5378,-0.3633,-1.0708,0.3135,-0.3704,-0.4525
5467,-0.0469,0.1048,9.7582,0.02,-0.0763,0.4422,30.3935,-10.1036,40.6635,-1.5402,1.2542,0.2301,1.704,0.5535,-0.3135
5478,0.0854,0.0216,9.8098,0.1898,-0.2557,0.5467,31.0937,-9.2857,41.1687,-0.9797,0.8113,-0.9451,-0.6464,-0.7542,-0.3711
5490,-0.2275,0.0381,9.8536,-0.1412,0.0968,0.418,29.5511,-9.4176,40.5695,0.1116,-0.2138,1.1471,-1.1919,-0.1622,0.4919
5500,-0.2414,-0.1213,9.706,-1.0981,0.5397,0.7538,30.0154,-10.4269,42.1776,-0.1772,-1.982,2.1055,0.1481,-1.1711,0.1326
5511,0.0775,-0.036,9.8364,0.1834,-0.3019,-0.6816,29.166,-9.8477,41.8483,-1.3584,-0.2945,1.0555,0.5759,-1.4642,1.6662
5521,0.152,0.0235,9.8117,-0.2411,0.6037,-0.2471,30.1089,-9.8975,39.3354,0.8939,2.0909,0.7331,0.664,-1.3615,0.0189
5532,0.157,0.1841,9.7988,-0.3331,-0.435,1.0694,29.3349,-10.1621,38.9801,1.5742,-0.281,0.3694,0.5577,-0.8583,-1.7868
5542,-0.1225,0.0912,9.8266,0.3521,0.774,0.6147,30.8876,-10.7534,40.2825,1.9754,2.2034,1.5878,-0.3962,-0.9357,-0.3585
5553,0.0249,0.0787,9.7108,-0.4532,0.7193,-0.0181,29.8898,-9.8924,41.1925,0.0777,-0.0727,2.0684,-0.968,1.0636,2.3021
5568,-0.0115,-0.0007,9.7856,-0.3111,0.7449,0.2642,30.2686,-10.0813,39.482,-1.2417,-0.7373,1.4538,-0.9988,-1.3207,0.432
5583,0.1821,0.067,9.8124,0.5794,-0.173,0.1541,29.0528,-9.9881,38.8474,2.0192,0.781,-2.1359,-1.7363,-0.8158,1.5476
5596,0.1813,0.1816,9.7192,0.3051,-0.0772,0.1255,29.1038,-9.5215,40.0585,-2.3041,-3.0021,0.4587,1.2216,0.7653,-0.941
5610,0.1943,-0.1131,9.9113,-0.14,-0.6572,-0.2347,32.2269,-10.0499,41.0722,-0.9807,-0.4909,0.6217,-1.7856,-0.2097,-0.102
5623,-0.1136,0.0508,9.7835,-0.655,-0.1642,-0.7671,30.2239,-9.6444,41.8255,0.6268,-1.5919,1.5235,-1.251,-0.7029,0.3812
5634,0.1083,0.0334,9.8615,0.0903,0.1648,-0.4992,29.9631,-10.2673,38.5542,0.7716,-1.3924,0.938,2.1129,-0.1246,1.8061
5644,-0.1512,0.1638,9.8279,-0.054,-0.7749,0.4602,31.0896,-11.5937,39.1947,0.4618,1.2354,-0.0988,-0.6216,0.2904,1.4944
5658,0.0939,-0.0195,9.8921,0.5388,0.3018,-1.2004,29.7305,-8.7593,39.1504,-1.3178,-0.3813,1.1007,0.6615,-0.4323,0.4213
5670,-0.0208,0.0874,9.8202,-0.7042,0.2825,-0.0227,30.1699,-11.1492,39.8006,3.0,0.7632,-0.1049,-0.8921,-1.3547,-0.5517
5681,0.0903,-0.0539,9.8673,0.3759,0.289,0.1115,29.4058,-8.3367,40.6569,-0.3456,0.82,1.2598,-0.1133,-1.0097,0.8063
5691,-0.0041,0.108,9.7969,-0.2973,-0.0475,-0.1443,30.6917,-9.1676,39.6488,-0.3631,-0.7437,1.4802,-1.1247,-1.251,-1.27
5704,-0.1714,-0.1033,9.8091,0.0333,-0.8589,0.3461,30.6011,-10.0117,38.9515,0.0718,0.7814,-0.442,-0.4511,0.9005,0.4054
5715,0.0567,-0.0413,9.8229,-0.7711,-0.0455,-0.1882,29.3405,-9.2887,40.0097,0.3309,0.7146,-0.2595,0.0422,0.3438,-0.1622
5728,0.0836,-0.1341,9.7135,0.7296,0.5299,-0.1029,29.8649,-11.5935,40.1937,-1.5398,-0.6337,0.0872,-0.3892,-0.9875,0.7482
5742,0.005,0.0329,9.7615,-0.3112,-0.4051,-0.3915,29.0711,-9.9714,39.3332,0.738,0.3902,1.3581,1.09,0.8135,-0.0871
5754,0.0363,-0.021,9.8603,-0.1923,0.2227,-1.0478,30.9366,-9.5415,40.3561,-0.1439,-0.0498,0.9953,2.3691,0.0978,0.5494
5769,-0.1504,0.0046,9.744,0.2641,-0.2424,-0.7494,29.3365,-9.7806,37.8323,0.2772,0.2356,2.4954,0.6081,1.3951,0.4122
5779,0.096,0.1019,9.795,0.1685,-1.0023,-0.3371,29.1169,-9.7964,39.1108,-0.378,0.4555,0.9942,0.5751,0.2061,0.0787
5790,-0.0365,-0.0778,9.7956,-0.1026,0.1428,-0.2329,29.7424,-9.7043,39.7542,-1.6778,-0.6454,0.2715,0.3679,-0.5049,1.5463
5800,0.0629,0.1941,9.8255,0.3593,-1.4924,0.0163,29.9728,-10.4086,39.5314,-1.5094,-0.2387,-0.0708,1.5669,-0.9454,0.5664
5814,-0.1046,0.0938,9.8223,0.4858,0.2042,0.2649,28.8792,-10.9165,38.2634,1.1967,0.3108,-0.8639,1.0881,0.3135,-2.5099
5827,-0.1037,0.1253,9.805,-0.3937,0.0971,0.2637,30.774,-10.9347,40.3143,-0.8687,-1.0256,-0.5431,-0.0082,0.6405,0.2735
5839,-0.221,0.2161,9.751,0.1774,0.9167,0.2111,29.3742,-11.1186,41.1249,-0.5198,1.1353,-0.8416,1.4468,0.5257,-1.1117
5851,-0.1032,-0.0099,9.7684,-0.0279,0.1447,0.4221,30.5135,-10.2951,40.5536,-0.6327,-0.7662,1.7982,-0.7344,-0.6255,0.1626
5862,0.1028,-0.093,9.7974,0.7136,1.5123,-0.6313,28.8909,-10.2882,41.0388,-0.6419,-1.3278,0.277,-0.3926,-0.6043,0.6311
5872,-0.0702,0.0083,9.8412,0.4295,0.323,0.1571,29.345,-12.2614,41.3695,-0.0577,0.3619,0.9466,1.3144,1.8775,0.3509
5884,-0.0581,-0.0428,9.8025,0.4575,0.1313,-0.5908,32.229,-10.3129,39.0428,1.0777,0.0954,-0.3741,-0.9018,0.3769,-0.0723
5894,0.0376,-0.0518,9.7777,-0.0863,-0.4044,-0.3321,28.1479,-9.6019,38.1708,-0.0316,0.3545,-2.0258,-0.2516,0.1209,-2.6551
5905,-0.0498,0.0459,9.7345,0.6022,0.3484,0.2676,31.0589,-9.4823,40.4875,1.6105,0.7528,0.565,0.1957,-0.3024,1.8518
5922,-0.0397,-0.0364,9.8398,-0.4228,-0.125,0.3577,31.0738,-9.2976,40.0564,-1.3551,1.183,-0.6415,-1.2829,-2.8966,-0.5327
5933,0.0634,-0.0887,9.8202,-0.7367,-1.2692,0.1902,29.2542,-10.9895,40.5291,-2.229,-1.0258,0.6254,-0.144,0.2267,-0.0118
5943,0.0342,-0.0089,9.7185,-0.0661,-0.4096,0.3688,29.9754,-9.5349,40.4441,0.581,0.0324,-1.0612,-0.3185,-0.9636,0.1073
5954,0.0705,-0.0042,9.7128,0.7466,0.2425,0.9872,30.6079,-10.7665,40.1451,-0.6882,-1.3853,-1.8574,0.8948,0.1429,0.1652
5966,0.0497,0.0533,9.678,-0.651,0.965,0.6141,30.0604,-8.267,40.4,-1.6807,-0.3918,-0.6247,0.6706,-2.4778,-1.6604
5976,-0.0514,-0.0068,9.7936,0.0993,-0.8502,-0.798,29.3543,-9.8528,39.4069,-1.6885,1.2811,0.5553,1.4423,-1.5612,0.0884
5988,-0.0497,-0.0751,9.8189,-0.5817,-0.3713,-0.2089,28.6912,-11.0278,39.801,-1.7882,0.0642,-0.0603,-2.023,0.0562,2.1491
5999,-0.2371,0.0033,9.8072,-0.2615,-0.0094,-0.1588,29.2608,-10.4427,40.3832,-0.4056,2.0998,0.1593,0.0359,-1.9773,0.4012
6009,0.0581,-0.0989,9.8831,1.232,0.3223,-0.2535,28.8716,-10.3443,39.6359,0.7083,0.0628,-0.2008,1.7899,1.0216,0.4634
6020,0.147,0.2354,9.8365,-0.4137,0.4402,0.3388,31.4759,-11.0634,41.7062,1.0551,0.5768,0.3204,-2.6828,-1.5943,-0.8965
6030,0.1802,-0.0132,9.8951,0.3623,-0.859,-0.3562,30.5195,-10.5602,38.9318,-0.4757,-0.8032,-0.691,0.2022,-0.5306,-0.8782
6040,-0.0654,0.169,9.7473,0.1306,0.4056,-0.4946,30.3625,-10.1486,40.8144,0.6631,-0.9428,0.4784,-0.2198,-0.509,0.3013
6051,0.0198,-0.0393,9.7483,-0.305,1.0259,0.0687,29.9503,-8.5917,40.205,0.2479,-0.5031,-0.5503,-0.9819,1.7876,-0.1862
6062,0.1528,0.0438,9.8161,0.796,1.3022,0.1966,30.5866,-8.6251,41.2851,0.649,-0.2732,-1.2921,-0.0572,-0.3202,-0.592
6077,-0.0799,-0.0983,9.8009,-0.2086,0.1025,0.3128,28.6716,-10.1178,39.6471,1.154,1.3225,-1.1575,0.3635,2.1175,-1.4449
6088,0.0044,0.1193,9.8446,-0.3461,-0.2601,-0.2212,30.0172,-10.112,40.1061,-0.2336,-0.0649,0.726,-2.1933,-0.4234,-0.3155
6099,0.0336,0.2582,9.7975,-0.5505,-0.5025,0.9076,30.6122,-9.8116,38.3127,0.0163,0.4332,0.4815,0.5207,-0.422,0.4735
6112,0.0353,-0.1218,9.7371,1.094,0.4172,0.161,27.7411,-8.7137,40.5825,0.7986,0.1896,0.262,-0.8184,1.7094,-0.1171
6123,0.0223,0.0067,9.8712,-0.2966,-0.6673,0.3331,28.911,-11.2257,40.13,0.2742,-2.4368,-0.8362,-0.5345,0.2237,-0.3537
6134,0.191,-0.1303,9.8338,-0.0825,1.1888,-0.2095,30.2624,-10.8199,42.4588,-1.1608,1.5531,0.1278,-0.3551,0.3291,0.8497
6145,-0.0367,-0.0371,9.8258,0.1391,-0.2589,0.2698,30.876,-10.0986,39.5083,-0.9932,-1.8318,0.233,-2.7125,0.627,0.1121
6155,-0.042,0.0524,9.7251,0.2722,-0.4694,0.3883,31.2019,-8.8835,39.8256,0.507,-0.6424,0.3883,0.3242,-1.4121,0.2426
6166,0.2078,-0.0291,9.7543,-0.1315,0.7599,-1.2438,31.1258,-8.7967,40.3386,0.7562,-1.4142,0.913,-1.8253,0.0453,0.2426
6176,0.0746,-0.151,9.8665,-0.4657,-0.2416,0.1996,32.0771,-8.0132,42.5019,0.033,0.3853,-0.8115,0.2999,-1.5545,-0.0508
6188,0.0059,-0.0016,9.7524,0.3734,0.2996,0.3342,29.2358,-12.4178,39.2367,1.0496,-0.6136,-1.6604,1.2586,-0.7633,0.2323
6200,-0.0678,0.1926,9.8079,-0.4687,-0.1436,-0.5495,29.5933,-11.7803,38.6598,-0.8709,0.4889,0.2238,0.7478,0.3534,-0.7368
6211,0.1055,0.023,9.7478,-0.2874,-0.8782,-0.4356,31.3162,-9.5738,39.7377,-1.4779,0.5229,2.055,-0.729,-0.3212,-0.4012
6222,-0.1323,0.2164,9.8109,0.2988,-0.2267,-0.1225,30.6947,-10.5947,40.4825,-0.8946,-0.1915,1.2485,0.9394,0.8459,0.042
6233,0.0345,-0.0359,9.717,0.3745,0.7524,-0.214,30.4962,-9.917,41.0017,-0.4696,-1.7024,0.6504,-0.5094,-1.1493,-0.989
6244,-0.0329,0.0526,9.7937,0.198,0.986,0.1664,30.3383,-9.689,39.1351,-1.5854,1.0113,-1.8834,0.7177,-1.2598,2.7082
6254,0.2302,0.142,9.8463,-0.1396,-0.2436,-0.4231,29.6314,-9.8218,40.2852,0.0766,0.1244,-0.148,1.2372,0.6,0.8242
6265,0.0572,0.0199,9.7234,-0.4211,0.8509,-1.1588,30.2318,-9.6625,40.3521,1.1278,1.1471,0.2532,1.2285,-0.9476,-1.8223
6275,-0.0182,-0.1853,9.7973,-0.2757,0.5939,-0.0852,29.7701,-10.6358,39.1096,-0.2494,-0.4157,-0.9321,0.2109,0.899,-0.5758
6285,-0.0638,0.0156,9.7623,0.0052,-0.1707,-0.0594,30.7635,-10.5153,40.4104,-1.9119,0.7715,-0.1264,0.6709,1.7398,-1.6553
6296,0.0073,0.0774,9.8173,-0.2997,0.7432,0.5093,29.1747,-12.1536,39.909,-0.4034,-0.2747,-0.9399,0.7864,-0.604,0.6964
6307,0.056,0.0487,9.8427,-0.986,-0.5659,-0.6338,28.2974,-10.6508,39.9537,-0.2785,-1.5057,-1.414,1.1238,0.1046,0.9272
6317,-0.1033,-0.0931,9.7415,0.2289,-0.2247,0.1373,28.8172,-11.5372,40.3032,-2.1857,-0.7965,-1.4075,-1.2014,-0.028,-0.9523
6331,-0.0287,0.1148,9.8595,-0.004,0.2309,1.129,30.1257,-8.8121,41.424,0.4631,1.0593,-0.2162,-0.2251,0.7873,2.3345
6343,-0.1396,0.1241,9.8427,-0.4863,0.7777,0.0864,30.2999,-11.2989,39.0797,-0.2307,-1.183,-1.5672,0.2281,-1.4856,-0.5255
6360,-0.0839,0.1645,9.7944,-0.5628,0.0843,0.7871,30.4451,-9.6018,38.3622,0.5829,0.0438,0.4754,0.7273,-0.4659,-0.3067
6372,0.0349,-0.0036,9.7478,-0.2195,0.394,0.0095,29.975,-10.4384,41.1618,0.8558,0.8544,1.9411,0.5066,-0.6973,0.2527
6383,-0.0265,-0.0368,9.77,-0.2758,0.2085,-0.5365,29.0718,-9.8384,40.9756,2.522,1.442,3.7449,-0.5243,1.5443,0.6638
6393,0.1098,-0.1002,9.8188,0.1584,-1.179,0.1018,28.28,-10.0655,41.2609,-0.7463,-0.0939,0.0268,-0.6554,-0.6409,0.395
6404,0.1204,-0.018,9.8289,-0.2482,-0.3218,0.3759,29.6686,-11.7353,38.9332,-0.263,-0.2015,-0.9307,-0.0187,-0.6605,-0.026
6414,0.0055,-0.0365,9.7736,0.4606,-0.0535,0.8973,30.4898,-10.8445,40.1733,0.9808,0.6016,-0.9117,-0.0582,1.0124,-0.6536
6425,0.0022,0.1506,9.7426,0.2015,0.1112,0.4897,30.6682,-10.5899,40.1352,-0.1921,0.666,0.986,0.6245,0.8806,0.4818
6436,-0.1038,-0.0063,9.7232,0.0188,-0.315,-0.1785,31.8326,-8.6387,41.4298,-1.3958,0.1483,0.3127,-1.4295,-1.0013,-1.7691
6450,0.1112,-0.1094,9.8437,0.7935,0.9613,-0.3338,30.1804,-7.787,39.6129,1.306,-0.5949,2.1494,-0.7204,-0.137,0.2539
6462,0.0342,0.0189,9.8749,0.3292,-0.5113,0.3914,29.7557,-10.0686,39.1221,-0.7555,0.1139,-0.2955,-0.2397,-0.564,-0.3837
6473,-0.1542,-0.0109,9.793,0.0347,-1.1246,-0.6305,31.4349,-9.6734,38.984,-2.3427,-0.0922,0.5171,0.3708,0.1462,1.6289
6490,-0.0177,-0.2029,9.7426,0.6522,-0.307,-0.0498,31.3905,-9.807,39.2879,1.3028,-0.2497,-2.4475,1.1106,2.0654,0.8154
6505,-0.0479,0.0712,9.7834,0.3517,-0.8631,0.2047,30.7681,-10.5707,40.0816,-0.8639,0.2207,-1.2053,0.3967,-1.075,-1.4359
6516,-0.032,0.01,9.8122,-0.808,1.2496,-0.49,30.0506,-8.382,40.842,0.2752,0.0036,-1.0318,-0.6376,-0.8322,1.177
6528,0.0959,0.0041,9.7886,0.5333,-0.1713,0.2646,29.2357,-8.1473,40.6905,-0.849,-0.9957,1.6152,0.1517,-0.2478,2.2253
6541,-0.039,-0.1719,9.8309,0.5636,0.9466,0.0188,29.625,-9.6689,42.0065,-1.3105,-1.6421,-0.484,-0.2519,-1.2727,-0.2295
6552,0.2731,-0.0133,9.8196,-0.585,-0.6435,0.8041,28.198,-10.7665,39.6704,0.0248,0.0965,-1.8424,0.8615,-0.1622,0.2536
6563,-0.0433,0.0849,9.7295,-0.9371,0.9784,-0.3326,28.6172,-9.8562,40.4795,-0.1141,1.0188,-0.2404,-0.362,-0.4146,-1.6357
6573,-0.3277,-0.0895,9.7906,0.6834,-0.1614,0.3464,29.2607,-10.4325,39.2108,0.3451,-1.0093,0.5909,0.4855,1.1442,0.369
6584,0.123,-0.0785,9.8515,-0.6932,0.125,-0.4,32.3117,-9.7865,37.4788,0.6833,-0.8904,0.0687,-1.3081,1.6499,-1.0914
6594,-0.0514,-0.074,9.7589,0.3806,-0.8982,-0.4775,31.553,-11.0666,40.7374,0.8936,0.7049,0.2785,-0.1849,0.0634,-1.2978
6612,-0.0906,0.1153,9.7554,0.1059,0.1155,-0.9083,28.9891,-9.3569,39.7604,1.2715,-0.124,-0.7736,0.8615,-1.6768,0.853
6624,0.1381,0.0245,9.8216,0.3045,-0.8526,0.7515,31.9094,-8.5409,40.3757,0.3639,-0.0889,-1.0201,-0.5445,0.5509,-0.1113
6637,0.0731,0.0413,9.8399,0.2161,-0.1555,0.4279,31.0414,-8.1604,39.2068,-2.0284,0.1711,-0.8629,0.9429,-0.9176,0.4681
6650,0.0114,0.1215,9.8247,-0.1111,-0.2755,0.5409,30.6793,-10.896,40.0153,2.3922,-0.0725,0.1678,0.2353,-1.6839,0.8938
6669,0.0739,0.0153,9.8682,0.7639,0.4162,0.6915,31.0412,-9.3051,39.9128,-0.3187,-1.0615,-0.4148,-0.1562,-0.5901,-0.3135
6686,-0.1679,0.0293,9.7854,-0.037,0.2606,0.5962,29.9002,-11.9164,41.1677,0.0867,0.3729,-0.863,0.7484,0.9223,0.0165
6698,-0.1767,-0.0357,9.8098,0.3018,-0.503,-0.528,29.9245,-7.4363,39.9359,-0.4279,-0.8824,0.6216,0.92,-1.335,-0.2397
6710,-0.1456,0.0279,9.8084,0.1872,-0.3262,-0.1685,28.6279,-9.0649,41.617,-0.8664,0.852,-0.5747,-0.3756,-0.1649,-0.9893
6723,-0.0689,-0.1407,9.8434,0.5265,-0.0431,-0.5715,31.1337,-10.2564,38.8891,1.3697,0.191,0.2214,-1.9524,-0.5655,1.287
6734,-0.2065,-0.0704,9.7823,0.058,-0.4633,0.8676,28.3523,-11.9979,40.9452,2.1966,3.1658,-1.5795,1.2293,1.8052,1.0995
6744,0.0392,-0.1881,9.8245,-0.1151,0.6608,0.1857,29.0161,-10.0958,40.6266,0.8118,0.0094,0.646,1.2285,-1.1897,-1.7927
6755,0.0695,-0.0219,9.7185,-0.4596,0.8182,0.8603,29.5389,-9.2653,39.1617,0.7474,0.5335,-0.1604,0.1797,1.4035,0.2339
6765,-0.0589,0.1526,9.7492,-0.7361,-0.4298,-0.4096,30.4725,-10.1555,37.3717,1.8325,-0.0291,0.3109,0.1303,-0.5699,-1.4202
6778,0.0366,0.1653,9.8471,0.1712,-0.4039,0.608,29.7385,-9.5038,40.3873,1.2351,0.6282,-0.4649,0.1697,0.3071,0.0063
6792,0.173,-0.0742,9.8118,-0.3995,-0.0568,-0.3919,29.9295,-11.0225,39.3193,0.0373,-0.2948,-0.1567,-0.4227,0.6034,-0.9823
6805,-0.014,0.1123,9.7512,-0.273,0.3481,-0.3432,29.769,-9.5706,41.8412,0.6499,0.6903,-0.8675,0.1177,0.408,-0.9579
6818,-0.0575,-0.0241,9.7905,0.2213,-0.2384,0.2588,29.442,-10.9433,39.6985,0.4263,-0.091,1.7769,-0.3703,1.2129,0.1129
6831,-0.1284,-0.0319,9.8062,0.2417,-0.1187,0.6765,29.5476,-9.5825,39.9347,-0.0779,1.3516,2.4901,1.2656,-0.0932,0.2086
6841,0.0068,0.1094,9.8295,0.439,0.2982,-0.197,30.8882,-10.9038,39.6114,1.7168,-1.1602,-0.8411,-0.3564,-0.671,1.3539
6852,-0.0293,0.1062,9.7224,-0.3334,0.9771,-0.7287,31.2795,-9.5444,38.5418,-0.3108,-0.1192,1.0241,0.1886,0.9744,1.1956
6862,-0.0692,0.1355,9.8148,-0.8105,-0.3526,0.9104,29.8156,-9.7119,40.6179,0.2066,-0.7738,-1.0469,0.0613,0.8931,1.4763
6872,-0.0109,-0.0358,9.7811,-0.1756,0.2507,0.2722,28.0386,-11.3558,38.578,0.6783,-0.333,-0.6234,0.428,-0.5318,0.1992
6883,-0.0237,-0.1178,9.7833,-0.9088,0.1707,-0.0738,30.771,-10.3154,40.1499,-3.1733,2.1312,-0.5626,0.2705,-2.1555,1.8737
6893,0.1834,-0.0987,9.7893,0.0628,-0.2367,0.2205,31.335,-10.538,38.9356,0.2028,0.0301,1.3176,0.0849,-0.1725,-0.4727
6907,-0.0669,-0.0497,9.8246,-0.2513,0.2877,-0.6258,30.0198,-10.1416,38.9017,0.0521,-1.5868,-0.7602,-0.6763,-1.7869,1.3955
6919,-0.2322,0.0561,9.7306,-0.4876,0.4534,0.6407,29.7283,-8.2793,38.0551,0.9489,-0.9106,-0.1244,0.2288,0.2283,0.5044
6930,-0.1997,0.0875,9.8944,0.3389,0.5045,0.8205,30.2413,-9.5644,39.8046,0.8325,-0.269,-1.3616,0.9982,-0.3912,-1.8001
6942,-0.0033,-0.0102,9.892,0.5232,-0.0648,-0.1746,30.5867,-8.9783,38.3278,-0.8437,1.7644,-1.0382,1.652,0.5958,0.9838
6953,-0.148,-0.0288,9.7546,0.7044,0.7496,-0.2534,29.7756,-9.3946,40.6657,0.4018,-0.5194,-0.1878,1.553,-1.3735,0.3422
6964,0.1505,-0.0267,9.8373,1.0973,0.9425,-0.3492,27.9675,-10.7918,39.6592,-1.4659,0.1995,-1.5168,1.6958,0.2348,0.2467
6975,-0.0026,-0.0335,9.73,-0.3167,-0.1044,0.2733,29.9232,-9.8541,38.5668,-1.1437,-0.0828,-1.3442,0.2745,-1.2676,0.4397
6985,-0.1036,0.1152,9.8183,0.2693,-0.437,-0.197,29.909,-9.8264,40.0706,-0.0203,0.2077,0.1785,0.9054,0.7978,2.2571
6996,-0.1062,-0.0308,9.7818,-0.6539,0.2899,-0.7293,31.2758,-8.6951,40.9663,0.2118,0.0664,-0.0843,0.6986,1.3871,0.1501
7006,0.0151,-0.0076,9.7995,-0.352,-0.2279,1.0096,29.7914,-9.3112,41.4543,-0.251,0.6797,1.7905,0.0035,0.8913,-0.7585
7017,-0.1207,0.1722,9.7489,0.2009,-0.0715,0.6147,27.9428,-11.8818,40.7096,-0.5102,-0.3975,0.0553,0.0828,-1.2097,-0.4687
7029,-0.0761,-0.1776,9.7842,-0.0676,0.8309,1.212,29.4262,-11.1386,39.2075,0.9192,-0.8765,1.1855,-0.0396,-0.1537,0.3753
7040,0.0214,0.1568,9.8216,0.3598,0.7005,-1.0547,31.2732,-10.1388,39.9216,-0.7605,0.1696,0.5801,-0.0187,0.3975,0.0814
7055,0.0182,-0.0173,9.8738,-0.0973,0.3695,0.1917,30.6199,-9.0542,40.5319,0.736,-1.0765,0.5734,0.4314,-0.2429,0.5785
7074,0.0397,0.1078,9.8064,-0.8187,0.0249,0.5121,30.6954,-10.9584,40.6214,1.0418,0.6399,0.921,-0.2524,0.194,-0.9401
7086,0.2077,-0.0678,9.7337,0.1073,0.0309,0.3706,30.7313,-9.1295,40.0318,-0.3802,0.1038,-0.5961,1.8432,0.0462,1.5762
7098,-0.1165,-0.0766,9.7967,0.1477,-0.6138,-0.3054,32.0521,-9.3607,37.3382,0.0487,0.9299,-0.3613,0.7672,1.1647,-0.2684
7109,-0.03,0.0108,9.7357,0.2939,-0.6816,-0.3818,29.6412,-9.7641,41.0192,0.2884,-0.0986,0.2898,-0.6443,1.109,0.861
7126,0.1335,-0.0189,9.7562,-0.6486,0.9747,0.4644,31.2285,-9.6746,41.1112,0.6801,-0.7494,0.9673,-1.6209,-0.1247,0.2186
7139,0.0043,-0.0963,9.6653,0.4419,-0.3552,-1.0256,29.2491,-8.4349,40.2091,-0.3195,0.8136,-0.1795,-1.8618,1.1289,1.0011
7149,0.079,-0.0489,9.7658,0.2136,0.2119,0.0582,29.4527,-10.2496,39.5321,0.5252,0.3219,-0.3516,-0.6892,1.0878,-1.1147
7160,0.1284,-0.0275,9.7783,0.4258,0.0782,-0.004,30.7185,-10.859,39.8405,1.3051,0.0767,1.2579,0.1845,1.2818,-1.1167
7170,-0.0328,0.062,9.7745,1.1105,0.0086,0.3181,32.6141,-10.3048,39.5961,-1.1616,0.073,-0.8187,-0.4627,1.218,-1.045
7180,0.0765,0.1289,9.7941,-0.7276,-1.2684,-0.3885,28.7204,-9.721,41.3035,0.3154,-0.7828,0.7138,1.8438,-1.7586,0.7801
7193,-0.0033,0.0068,9.8725,-0.456,0.3014,0.4338,28.5898,-10.9581,38.9636,1.0713,0.1126,-1.992,-2.2591,0.9909,-0.7384
7206,-0.159,0.0204,9.8168,0.2859,0.4708,0.0848,29.0491,-10.3155,40.2111,-1.3032,-0.981,-0.3198,-0.5754,1.9167,1.9487
7217,-0.0038,-0.0364,9.8426,1.2053,-0.0003,-0.4831,30.2939,-11.1731,41.0495,-1.0427,-0.7643,1.6231,-0.2124,0.6934,-0.9608
7229,0.0725,0.0137,9.7463,0.3468,-0.1957,0.0951,29.8364,-9.7052,39.0422,-0.2731,-0.6067,-1.1326,0.8222,-1.3651,0.3182
7240,0.1483,-0.1764,9.7348,-0.4294,-0.6919,0.1793,29.7517,-11.5865,39.8409,0.4975,-1.6027,-0.2874,0.0824,-0.394,-2.2868
7252,-0.0177,0.1204,9.7632,-0.106,0.7976,-0.153,28.7305,-9.6487,40.0947,0.1054,1.2394,0.8391,-3.0146,2.6844,-0.5503
7262,0.1559,-0.1684,9.7687,-0.2154,0.1213,-0.1059,29.6834,-9.6557,39.6082,1.1266,-1.3479,0.9025,-0.2861,-1.6954,-1.0088
7274,0.0225,0.0858,9.774,0.2224,0.5703,-0.1079,29.5819,-11.1246,38.6756,-0.8298,0.8653,-0.9032,-0.0729,-0.8525,-0.9687
7285,-0.0616,-0.1698,9.6917,0.4263,0.4056,-0.9387,30.784,-9.1475,39.1116,-0.5109,0.8491,-1.8323,1.1509,-0.3448,-0.5245
7296,0.1,0.0406,9.7843,0.2444,0.2625,-0.828,27.6065,-10.2545,37.7498,-0.6219,-0.5898,-0.9534,-0.0741,1.2934,-0.1511
7306,0.0852,0.0856,9.8395,-0.2281,0.5037,0.0575,30.0514,-9.724,40.5859,-0.1793,1.7778,-1.0733,-1.3959,0.3497,-0.6628
7316,0.0907,0.0193,9.8079,0.4998,0.4377,-0.7679,28.6892,-9.4904,40.0023,0.1321,0.6305,-1.8196,-0.4394,0.0771,-0.5054
7327,-0.0559,-0.1302,9.7938,-0.0087,0.2218,-0.5551,29.859,-10.2813,39.8201,0.3634,1.0711,-0.2309,-1.0311,0.5483,1.3645
7339,-0.1755,-0.1966,9.7498,0.3015,-0.2487,-0.5829,30.9797,-10.2945,40.4648,-0.9823,1.4157,-0.4014,0.2766,-0.0109,1.4024
7350,-0.0378,-0.0043,9.9261,0.2537,0.135,-0.0629,29.3705,-8.7802,38.9537,-0.7852,-0.5504,0.5469,1.6653,0.6483,0.1136
7361,0.0666,-0.0879,9.7803,0.249,-0.2294,-0.2692,29.4016,-9.8277,40.0275,1.6648,-1.2172,0.7952,-0.3956,-0.7898,0.4997
7372,0.0885,0.1301,9.8527,-0.361,0.9655,0.2246,31.0802,-8.1361,40.0748,-0.1467,0.9684,0.7511,-0.6394,1.205,-0.6275
7382,0.1022,0.0151,9.7458,-0.4125,-0.6389,-0.0692,29.3557,-10.3502,40.722,-0.0726,-0.5081,1.4512,-2.2453,-1.1752,0.617
7392,-0.1876,0.1345,9.774,-0.3612,-1.1376,0.0335,30.1886,-9.0027,41.5117,-0.9832,-0.493,-0.1629,0.2476,-0.7164,0.2773
7404,0.2133,-0.0043,9.8895,0.015,-0.0768,-0.5139,32.2936,-11.845,39.719,1.0813,-0.5339,-0.8478,0.8366,-0.6643,1.2718
7415,-0.1773,0.07,9.8218,-0.5148,-0.3171,-0.4379,29.585,-9.7949,40.037,0.2267,0.8377,0.4428,0.504,0.2562,-0.6755
7427,-0.0029,0.0807,9.7617,-0.4415,-0.8611,-0.1874,30.8177,-10.6074,39.6651,-0.5445,0.8013,0.4117,0.1305,-1.1541,0.9432
7437,0.0803,-0.1422,9.6739,-0.52,-0.4034,0.4904,30.8586,-9.9162,39.9282,1.3124,-0.1762,0.7061,-1.0196,-0.702,-0.2172
7448,-0.0307,0.0851,9.8426,0.7533,-0.0951,-0.3845,30.368,-11.2827,40.0699,-0.0321,-0.7961,0.9704,0.2318,0.3978,0.9812
7458,-0.162,-0.1264,9.768,-0.1256,-0.1245,-0.3778,29.5683,-10.822,39.8161,0.767,-0.3072,0.8014,-1.5016,0.9572,-0.1097
7469,0.1182,-0.0417,9.8366,-0.0937,0.2088,0.7573,30.4217,-11.6188,39.9017,-0.0185,-0.736,-0.9835,-0.6422,0.0753,0.9372
7482,-0.0384,0.0065,9.7962,-0.5684,0.5329,0.637,30.2409,-10.6487,37.6522,-1.4052,0.8612,-2.2082,0.3946,-0.0077,-0.4769
7494,-0.1784,0.1098,9.844,-0.2317,0.3451,0.5358,31.2539,-11.5748,39.8004,1.161,0.6431,-0.3682,0.2429,0.0889,-1.1011
7504,0.095,-0.0024,9.8385,-0.762,-0.1007,0.0423,30.7656,-10.176,41.1623,0.0501,-0.8669,0.082,0.3495,-0.6178,-0.4714
7520,-0.0353,0.063,9.8662,-0.8829,-0.2654,0.155,30.62,-10.1704,38.3416,-1.1897,-2.1534,-1.768,0.1174,0.0519,0.6107
7534,0.0266,-0.1726,9.6968,1.0899,0.8546,-0.2385,29.2962,-9.83,39.9313,-2.3039,-1.1859,-1.2182,-0.5987,0.7022,0.5859
7550,-0.2649,-0.0441,9.8107,0.1528,0.0283,0.5438,31.7951,-9.1887,41.5174,0.0319,-0.5165,1.6378,-0.5568,-0.8495,0.0478
7566,0.2064,-0.0822,9.7966,-0.9173,-0.0219,-0.2812,29.0724,-8.3752,40.26,-0.9539,2.585,2.3833,-0.6602,0.0698,0.9774
7577,-0.1024,-0.0374,9.7953,0.6236,-0.1522,0.6938,30.2241,-9.4369,41.5475,0.273,1.9128,0.8825,0.853,-0.7443,0.2049
7587,0.1081,0.0524,9.7842,-0.3241,0.4949,0.0366,30.8759,-10.5018,40.6639,0.111,-2.2263,0.4712,-2.0092,-0.371,-0.1846
7597,-0.0366,-0.0206,9.8517,-0.195,-0.8812,0.1873,29.27,-9.0838,41.0382,-0.1635,-0.3203,0.3632,1.073,1.478,-2.2301
7608,0.0471,0.0476,9.9017,0.205,-0.1876,-0.0864,30.1812,-7.8381,40.3121,-0.8415,0.3366,-0.624,1.9766,-0.5437,0.3492
7618,0.1244,-0.0874,9.822,-0.3174,-0.4651,0.2916,28.9848,-11.4155,41.6614,-0.7236,-0.048,-1.5096,-1.3366,0.1448,-0.765
7629,0.0188,-0.0205,9.8087,1.2161,-0.789,0.0807,30.3793,-11.2912,39.5489,0.1672,-0.197,-0.239,-1.0478,-0.0594,-0.2186
7640,0.1554,-0.06,9.8387,-0.1,0.3677,0.2879,29.74,-10.1246,38.9798,1.3173,1.169,-2.1627,-1.0252,-0.0002,0.573
7651,0.0327,0.0082,9.831,0.3193,0.9577,-0.5804,29.2563,-9.4278,40.3169,0.3135,-0.6128,0.563,-0.3278,-0.8777,1.4692
7662,-0.0516,0.0677,9.721,-0.0755,0.9371,0.0252,29.8473,-7.7446,40.2736,0.6243,1.3383,-0.0361,-2.2121,-1.1236,-1.2204
7678,-0.0346,-0.0632,9.8986,-0.5878,0.045,-1.4212,29.2544,-10.7091,40.2096,0.2075,1.0836,1.3373,1.1162,1.0122,1.4568
7694,0.0116,-0.0402,9.8643,-1.2508,0.0409,-0.5116,29.9912,-9.8899,40.5411,-1.3452,-0.1181,2.1487,0.8064,-0.5353,0.4928
7710,-0.0741,-0.0104,9.7522,-0.5688,0.4631,0.8228,30.9918,-10.596,41.4356,1.0906,-0.3951,0.5575,0.0622,0.1454,0.6639
7721,-0.0724,-0.0364,9.8113,-1.1166,-0.0907,0.2568,30.9922,-12.0652,39.9514,-0.8369,0.2418,0.3186,0.3375,0.3171,-0.2687
7732,0.0135,0.0062,9.812,0.2624,0.1825,0.477,29.8467,-8.0071,40.4016,0.9442,-2.8666,0.3023,-2.4426,1.4642,0.7545
7742,0.1087,0.1746,9.7341,-0.2301,0.3353,-0.4732,29.7956,-9.3194,40.2565,-1.0405,-0.1729,2.2638,-0.4052,-0.8798,0.1089
7753,0.1682,-0.1769,9.8369,-0.0281,0.4904,-0.3821,30.1186,-11.3624,40.083,0.3176,-1.1276,0.0323,0.8145,-0.0314,-0.1283
7767,0.0537,0.1126,9.7376,0.6991,0.2245,0.193,30.1101,-10.8113,40.1627,1.6756,-0.0702,-0.0667,2.7218,-1.1538,1.4821
7777,-0.1775,0.2107,9.6986,0.6019,0.126,-0.1467,30.3078,-9.7702,38.926,0.7895,-1.5531,-0.068,1.3928,1.0466,1.6751
7788,-0.0196,0.1349,9.785,0.1783,-0.1386,-0.4559,30.4365,-12.1485,39.9325,-1.0704,-1.594,-0.7013,0.1853,-0.7741,0.5372
7799,0.0882,-0.0406,9.7577,0.0581,1.2812,-0.0933,28.5198,-10.4591,40.224,-0.0846,0.036,-0.2844,1.0428,1.9947,1.8631
7811,0.1698,-0.0734,9.7721,0.4671,-0.3624,-0.6496,29.356,-9.8481,39.6478,-0.2676,-1.9147,-0.5059,-0.0914,-0.8089,1.3773
7821,0.0598,-0.0249,9.8342,-0.2559,0.4723,0.1981,28.828,-8.628,39.1378,0.1928,-0.6856,0.3622,0.3266,-1.3237,0.2841
7837,0.0648,-0.0062,9.8277,0.17,-0.0261,0.1219,28.9593,-8.4116,38.4106,0.2383,-0.4238,-1.1354,-0.7954,0.8232,0.5555
7848,-0.1041,0.0954,9.7281,0.0612,-0.1356,-0.09,28.4123,-9.4434,39.3279,-2.0332,-0.0104,0.0758,-0.0683,-0.5324,-0.0831
7860,0.217,-0.066,9.8521,-0.4403,0.5246,0.1194,31.4115,-10.662,40.4102,-1.4919,-0.0407,-0.299,0.01,-0.9658,-0.341
7871,-0.1143,-0.2109,9.7565,-0.0104,-0.0534,0.1482,27.7818,-10.7407,40.2635,-0.2426,0.0497,1.5709,0.8348,1.4602,-0.6499
7882,0.0452,0.1319,9.7808,-0.2171,-0.1124,0.7356,30.3634,-9.2282,39.7809,-1.2338,-0.2601,0.4648,-0.5504,0.2315,0.0329
7892,0.0215,0.1,9.8835,-0.3631,0.9573,-0.064,29.2671,-10.4943,39.4317,1.0085,0.8881,-0.4776,0.4812,-1.5333,-0.5485
7903,0.0818,-0.2182,9.6962,-0.1501,-0.1324,-0.1656,30.599,-11.7814,41.1214,-0.8185,-0.4432,-0.9985,-0.0864,0.2722,0.6528
7919,0.2039,-0.0193,9.749,0.0393,-0.0722,-0.2744,30.4681,-11.3027,39.7861,-1.3754,0.0193,0.6429,1.3977,0.5849,0.6694
7931,0.0667,0.1405,9.7543,-0.4413,0.8218,0.2965,28.995,-9.2355,41.6057,-0.1117,-1.0588,0.2925,-0.2485,0.0745,0.2594
7943,-0.0231,-0.0667,9.8534,-0.3719,0.4861,-0.0159,31.3253,-8.095,40.6491,-0.391,0.4866,-0.5024,-0.1562,-0.3235,1.5277
7953,0.1245,0.1001,9.7738,-0.3697,0.0526,-1.0291,28.7556,-10.2434,39.6269,0.4282,-0.6207,0.236,1.9379,1.4315,0.8061
7965,0.0856,-0.063,9.7905,0.5267,0.3895,-0.3325,31.0773,-10.1201,38.4816,-1.4093,1.8243,0.0559,-0.4768,2.0838,1.1848
7978,0.022,-0.0114,9.764,0.0365,0.4784,0.6493,31.0155,-8.7584,40.2127,-0.9663,0.6717,-1.0365,-1.1313,-0.1067,-0.623
7993,-0.0547,0.0861,9.7745,0.238,-0.3829,0.9284,30.5352,-10.4256,40.2937,0.4146,0.4149,0.0137,1.6611,-0.7997,-1.6212
8007,0.1039,-0.0048,9.7297,-0.678,0.6498,-0.1031,28.9696,-9.6245,38.8392,0.2766,1.2938,-0.3051,2.417,0.5112,0.8489
8017,0.0596,0.0899,9.8088,0.1342,-0.4486,-0.1545,26.0868,-10.0094,40.8954,0.3375,-1.4221,-0.81,-0.8153,1.2481,-0.9209
8028,-0.0174,-0.1307,9.84,0.0373,1.2034,-0.9112,30.9377,-9.188,39.3078,0.5871,-0.0108,0.6975,0.1222,-1.116,-0.7917
8038,0.1086,0.1033,9.8136,0.4414,-0.3866,0.7948,32.0215,-9.8847,38.3945,1.9485,-0.683,0.9207,0.4808,-0.2355,-0.1137
8050,0.0373,-0.0133,9.7563,-0.7765,-0.4833,0.0791,28.9616,-10.0858,39.7241,-0.8601,-1.5286,-0.0718,0.3495,0.6568,-0.5637
8061,-0.114,-0.1509,9.8338,0.4432,-0.6382,0.8432,31.3559,-10.1617,39.9892,-1.6071,-0.3953,2.3312,0.705,-0.1703,0.5356
8073,-0.0372,0.1253,9.8317,0.3158,-0.3566,0.3099,30.5946,-8.9114,40.6906,-1.9321,2.3148,0.8697,-1.4685,-0.8593,0.3047
8085,-0.0292,-0.0091,9.8058,0.0284,0.4278,0.3589,30.4156,-9.4389,39.1089,0.7359,-0.5692,0.4635,-1.7881,0.0613,0.627
8096,-0.1891,-0.0194,9.8632,-0.4629,-1.154,-0.7216,28.2243,-10.2066,42.0283,1.8482,0.2985,-1.1488,0.063,-1.3722,0.7453
8106,-0.1818,0.018,9.8317,-0.6782,0.1102,-0.0152,29.9805,-9.9997,38.8617,-0.6723,0.8032,1.8168,0.3219,-1.1562,-1.1103
8118,-0.0803,0.1258,9.7776,0.2991,-0.2406,0.4162,31.1353,-9.4896,41.5871,-0.164,-2.0058,-0.6281,-0.2115,-1.7142,0.9152
8132,-0.1699,0.0571,9.7806,-0.339,0.3296,0.5653,30.5631,-8.5214,40.0998,0.2133,2.2809,-0.6904,-0.2599,-0.2959,0.735
8143,0.0167,-0.0677,9.786,-0.0933,-0.2848,0.1228,30.2632,-9.8696,38.7058,1.4025,-2.7077,1.3279,1.43,0.8805,0.1983
8153,0.0999,-0.0831,9.8765,0.8561,0.6789,-0.1335,30.1216,-9.1326,41.5232,-0.4129,0.8318,1.1312,-0.1443,-1.3891,-0.4449
8163,-0.1215,0.0325,9.8147,-0.2621,0.4086,-0.3335,28.9012,-8.7883,41.0598,1.0671,-0.8861,0.6865,1.4733,-0.7813,-0.9494
8174,0.0931,0.0168,9.7085,0.9325,0.0859,0.776,29.6115,-10.208,39.1956,-0.2395,0.4104,0.1093,-0.9847,-1.2063,1.5506
8188,-0.0261,0.1421,9.8274,-1.428,0.7671,0.3761,29.8324,-11.2255,38.1843,0.3882,-0.7301,0.2203,-1.5059,-1.2135,-1.1087
8199,-0.1777,0.0799,9.8061,-0.1714,-0.2242,0.1577,29.5851,-9.658,39.8353,1.8591,0.1325,0.9983,2.3334,-0.5144,-0.5214
8213,0.1297,-0.0553,9.7822,-0.2884,-0.8462,0.0175,29.992,-10.0698,38.0009,0.8589,0.1716,1.357,1.0806,0.8881,1.1403
8226,-0.147,0.1771,9.7995,-0.0438,0.3354,0.6252,29.9223,-8.8433,40.113,0.0149,-0.4237,-0.6358,-0.5564,1.0574,-0.3668
8239,-0.1437,0.1948,9.7121,0.5046,-0.2608,-0.7517,29.4684,-9.6556,40.3115,-0.1232,0.7671,1.2392,2.1819,0.4945,0.9127
8249,-0.1679,0.2626,9.742,-1.1006,-1.0404,-0.3371,30.1164,-8.5858,38.4166,0.3033,-0.3612,0.2204,-0.7535,-0.0449,-0.7788
8260,0.0342,0.0898,9.7758,-0.4568,1.1267,-0.2576,28.92,-8.1851,39.6101,0.6759,1.7662,0.717,-1.3415,-0.582,-0.3981
8275,-0.0671,-0.0174,9.7719,-0.9953,-0.0833,0.6986,30.4671,-10.7985,41.0943,0.3874,-0.1311,-0.0138,-0.6469,-0.8464,0.3548
8287,0.0293,0.0691,9.7493,0.6771,-0.2477,0.0424,30.6798,-8.409,41.4056,0.2937,-0.1022,-1.1889,0.4496,-1.5429,-0.2307
8297,-0.0367,0.0775,9.6772,-0.9895,0.6619,0.0699,30.991,-9.4219,39.8447,-0.6481,0.7984,0.3886,0.8985,-0.9687,-0.2162
8307,-0.0165,-0.0609,9.7514,-0.3042,-0.1445,0.3858,30.2505,-9.461,40.5306,1.1773,0.8515,0.2236,0.603,0.2091,-0.2673
8318,-0.0311,-0.1347,9.8824,-1.0618,-0.7033,-0.5016,29.3891,-10.9445,41.4927,-0.617,-0.8736,-0.5448,-0.1875,1.3842,-0.4779
8330,-0.1539,-0.0724,9.7392,-0.0865,-0.9491,-0.2554,29.1398,-10.1748,42.1942,1.0356,-0.2668,-0.1732,-0.2737,1.7178,-0.9292
8341,0.0621,0.0762,9.7675,-0.2952,0.6833,0.2927,29.9092,-9.8487,39.6226,-1.7605,0.9245,1.0446,0.8213,-1.1059,-1.8117
8352,0.0752,-0.0191,9.741,0.0542,-0.6415,0.0752,29.3436,-10.1421,39.0709,0.1775,0.8019,0.2731,-0.9548,-2.9351,1.0505
8364,-0.0462,0.0365,9.7941,-0.6559,0.0718,-0.661,29.5485,-9.1613,41.6217,0.4794,1.0652,2.8628,-0.6075,0.0422,-1.3708
8376,-0.0478,-0.048,9.8211,0.8051,1.0978,0.0077,31.3967,-10.1799,38.2617,-0.0328,-0.5908,-1.0741,1.8034,1.9649,1.2415
8388,0.0573,0.0143,9.8002,0.0043,-0.9053,-0.4914,30.6879,-9.8274,38.4033,-0.3708,0.3106,-0.8948,-0.2638,0.1236,0.5052
8398,0.0461,0.146,9.7554,-0.0069,-0.1867,0.5222,31.655,-9.4168,41.1148,-1.8729,-1.7139,0.4732,-1.4905,0.9281,-0.9174
8409,-0.0336,0.1916,9.7555,-0.1691,-0.2094,0.6441,29.3998,-11.0861,38.2444,-0.7805,0.228,0.0011,1.2168,0.2775,-0.0315
8419,-0.0455,0.1514,9.8482,0.3732,0.5421,-0.2184,30.3318,-9.7797,40.1601,1.2802,1.525,1.0075,1.2548,1.0919,0.1686
8430,0.1833,-0.0425,9.8163,-0.5243,0.8668,-0.3326,28.2155,-8.618,40.8547,-1.3197,-0.1296,-0.7254,-1.396,1.306,-0.9154
8440,-0.1101,0.1229,9.8069,-0.2324,0.649,-0.1973,28.5247,-9.7153,39.1434,0.2045,-0.6289,1.0575,-1.162,-0.3169,-0.848
8451,-0.0244,0.085,9.8534,-0.8497,0.0992,-0.074,29.7137,-11.6084,40.1364,-0.0389,-0.9386,-0.1055,0.8839,-0.6545,0.6346
8464,-0.0269,-0.1083,9.8284,0.1027,-0.5368,-0.2971,30.4477,-11.1332,40.6208,-1.2304,-0.9284,0.2096,0.7596,-1.6399,0.6724
8475,-0.1102,-0.0614,9.7926,-0.2917,0.3598,0.5311,30.0291,-7.9607,39.0369,-0.2245,1.5717,-0.2389,-0.4391,-1.856,0.5237
8486,-0.1563,0.0726,9.7866,0.5141,0.4674,1.1355,29.0965,-10.772,40.8695,-0.1764,0.3226,-0.9005,-0.1018,0.764,0.6625
8497,0.1189,-0.0866,9.737,-0.4036,-0.5936,0.0549,31.6449,-11.9896,41.1018,1.0656,0.5526,0.8475,2.1084,0.0256,-0.1991
8508,0.0014,0.1569,9.8694,-0.6732,-0.9602,-0.1852,28.878,-10.6798,40.4496,-0.0096,1.3005,0.1253,-1.054,-0.6338,1.2214
8520,0.0785,-0.0388,9.7719,-0.0458,-0.1113,0.2038,28.524,-11.8374,38.598,-1.1797,0.4028,-0.9243,0.0138,-0.5743,-0.8994
8530,0.0984,0.1565,9.8969,0.6268,0.1638,0.0725,30.6534,-9.9496,40.9542,-1.2633,1.1997,-0.1898,-0.614,-0.1704,-0.6782
8541,-0.0642,-0.1085,9.8308,-0.6253,-0.1523,0.1702,30.4002,-9.0649,39.3883,-1.984,-1.4022,1.0005,0.5824,-0.2482,0.1836
8551,-0.055,0.1889,9.8276,-0.2249,0.2738,-0.3346,31.2694,-8.5816,41.2863,0.2487,0.5525,0.9036,0.5612,-1.5226,-1.1624
8563,0.0224,-0.055,9.7766,0.0494,-0.4021,0.6316,27.7989,-8.8204,39.9539,1.3675,-0.3472,0.2426,1.2322,-0.2397,0.8096
8581,0.0509,0.2386,9.7364,0.4958,0.2541,-0.4631,30.4503,-9.3164,40.4228,1.0262,-0.8956,-0.2451,1.0335,0.2422,0.7255
8595,0.0674,0.057,9.7628,0.3954,1.587,-0.6132,28.345,-11.5681,39.2543,0.1717,-0.2378,-0.1627,-0.503,-0.2127,-0.7558
8606,-0.0037,-0.0837,9.8409,-0.494,-0.3313,0.1327,27.7857,-10.099,39.62,-0.6864,0.4057,0.0838,1.02,1.4603,-0.4559
8616,-0.0218,-0.1958,9.8515,-0.0032,0.2881,0.0014,29.8351,-9.2762,39.9458,-0.5117,-1.5332,-1.4104,-0.9228,-0.128,-0.6343
8627,-0.0256,0.1594,9.8187,0.4784,0.716,0.5809,30.3556,-10.3963,39.6424,-0.097,-0.7096,-1.2865,-0.1725,1.0438,-0.6084
8640,0.1761,-0.123,9.7597,0.1613,0.6421,0.4501,29.6294,-10.8623,37.9841,-0.0368,-0.0756,-0.6413,-0.2898,0.7384,-0.1766
8654,0.0275,0.1925,9.7695,-0.4325,-0.0788,0.4835,29.6886,-9.0586,40.4752,-0.3528,0.6993,0.2876,-1.1768,-1.0893,1.3166
8664,0.0364,0.0537,9.7527,-0.5821,-0.5613,-0.7886,30.0627,-9.9352,38.2794,-1.1791,0.0189,0.6073,2.4296,-1.2612,-0.4859
8674,0.063,-0.0721,9.853,-0.6984,0.3787,-0.6634,31.3599,-8.6441,38.3358,-2.0043,-1.1832,-0.3705,0.4221,0.0098,0.3008
8685,0.0107,-0.0677,9.8435,0.2779,0.3333,-0.5431,30.399,-10.798,40.7268,-0.4755,-0.1886,-0.3106,-0.1936,0.7783,1.7444
8702,-0.1059,-0.1859,9.8249,-0.7557,-0.5595,0.5417,30.9567,-11.0777,40.6784,2.0761,0.3037,0.5004,0.3511,0.6442,0.6104
8715,0.0144,0.0325,9.6926,0.3802,-0.0774,-0.383,30.1181,-9.5501,39.603,1.4219,1.7507,-0.6415,0.56,-0.5395,-0.8901
8726,-0.0786,-0.048,9.8452,-0.3385,-0.4688,-0.051,29.3525,-9.8801,38.4852,-0.1648,0.2056,0.441,-1.6753,-0.2717,1.3414
8737,0.1477,0.1,9.733,0.566,-0.0368,0.368,30.2482,-8.7436,40.9735,0.1079,1.6413,-0.7777,0.3104,0.0702,0.4
8748,-0.1662,0.1273,9.6975,-0.0534,-0.0427,0.1717,30.4394,-9.4531,38.7667,0.1052,0.4603,1.416,0.1257,0.7514,1.9356
8758,-0.0118,0.0653,9.7235,-0.3452,-0.7253,-0.9055,30.4778,-9.2849,40.479,-0.312,0.3606,-1.5848,0.6396,-1.3899,0.6404
8772,0.184,0.1203,9.7958,0.4068,0.3852,-0.2545,29.8765,-9.3841,39.1813,0.7392,0.4537,1.9578,-0.7071,1.352,0.5774
8782,-0.0331,-0.0441,9.8547,0.5987,0.3394,-0.1048,29.7382,-10.369,40.0439,-2.3429,1.2913,0.0962,-0.7588,0.4588,-0.931
8793,0.1266,-0.0196,9.8448,0.4798,0.3016,-0.9373,29.7252,-9.7006,41.894,1.3235,2.6109,0.0291,-0.299,-0.8726,-0.8713
8803,-0.0145,-0.111,9.7727,0.7002,-0.1938,-0.0265,30.9228,-9.8965,40.852,-1.4596,-0.2278,-0.7789,1.3168,0.8507,-0.6981
8813,0.1305,0.1157,9.8556,0.6927,0.0361,0.2839,29.9762,-10.8343,37.6806,-0.2029,-0.0778,0.52,-0.7388,0.0717,-0.5971
8825,-0.1104,0.0764,9.7755,0.4148,0.0361,1.4162,30.6208,-10.0256,39.1989,0.2671,1.313,-1.5766,0.1897,-0.1351,2.0148
8839,-0.0405,0.1311,9.7221,0.2941,0.4034,0.4991,30.1981,-11.2123,39.1266,-1.064,0.1576,-0.2422,2.9969,-0.2264,0.3214
8850,-0.0314,-0.0501,9.7889,0.1787,0.3551,0.1779,30.4938,-8.8979,39.306,-1.7977,-0.6416,0.7115,-0.7576,-0.437,-0.4125
8862,0.0796,0.125,9.7672,0.8037,0.2169,-0.5738,29.5479,-10.1698,40.4441,-0.1543,-0.8334,2.7509,-0.6852,0.7492,-1.7265
8873,-0.0354,0.0906,9.8632,-0.6569,-0.0162,0.1914,28.3692,-10.4317,39.8984,0.0468,0.2015,1.044,1.2824,1.118,1.0752
8884,0.0581,0.0427,9.8102,-0.5387,0.2753,0.1982,30.1505,-10.3328,42.5319,-0.6966,0.9242,2.7722,1.0043,-0.8186,-0.0401
8895,0.0212,-0.1201,9.8029,0.2805,0.1578,-0.7373,29.1929,-11.2967,40.5747,2.0982,-1.1052,-0.4475,1.218,1.0289,1.6703
8906,0.0262,0.1394,9.7569,-0.1676,-0.1993,-0.1434,29.8555,-9.8455,41.4686,-1.1587,-1.012,2.086,-0.994,-0.5482,-0.5004
8916,0.0207,-0.1212,9.7988,-0.5194,-0.116,0.6006,30.7925,-11.1552,39.4514,-0.6259,0.5871,1.5858,0.8786,1.5838,-0.1958
8927,-0.207,0.0462,9.7537,-0.4317,0.2939,-0.0677,30.2253,-9.0838,39.1473,1.661,-0.0356,-0.8649,0.6292,1.0824,1.8197
8938,-0.0407,0.0846,9.7982,0.0115,-0.6667,-0.353,31.9839,-9.8707,41.9515,1.0684,-1.557,-0.1483,0.0891,2.9414,0.6705
8953,-0.2249,0.1901,9.6861,-0.1894,-0.1782,-0.8765,29.6872,-10.9068,39.9207,2.3262,-1.021,-0.4358,0.9448,0.2264,0.1359
8964,-0.0218,-0.3162,9.7442,-0.5187,0.1064,-0.2989,29.6592,-9.1862,40.5885,0.86,-0.1661,-1.9815,-0.7606,-0.7283,0.3121
8976,-0.0574,0.1519,9.8096,0.1907,-0.3381,-0.2191,32.284,-9.5009,40.4604,-0.957,-0.1881,-0.1174,-0.2231,-0.6285,0.7235
8986,0.0046,0.0968,9.8269,0.6826,-0.1656,-0.4498,29.1369,-8.8078,40.1406,0.22,-0.6127,0.8818,0.0341,0.1103,-1.5902
9001,-0.0267,0.0724,9.835,-0.0326,0.0018,0.7591,30.7834,-12.0689,38.7712,0.483,-0.2954,0.7147,-0.3046,1.0442,-0.526
9017,-0.0167,-0.1221,9.7825,0.6429,-0.4942,0.4655,30.6179,-10.6631,39.7159,1.0225,0.2748,-1.5222,0.2284,-0.0119,-1.1543
9034,-0.0096,-0.1146,9.9004,-0.2413,-0.5961,0.3736,29.8305,-9.0531,41.1598,-0.2474,0.6267,-0.8956,1.4766,0.2953,-0.391
9045,-0.0641,0.0401,9.8165,0.5289,-0.0623,0.6068,29.6313,-10.178,40.6986,0.9535,0.4463,0.0473,-1.7232,-0.3875,-1.3536
9056,0.1047,0.0355,9.7127,-0.2454,-0.8981,-0.0982,30.9431,-10.8812,40.7996,-0.5145,0.1614,2.0537,-1.5854,1.2526,-0.1002
9066,0.127,0.1358,9.724,0.0195,-0.0722,-0.5445,29.5383,-10.3979,40.6173,0.1842,-0.1553,-0.3369,0.0856,-1.0341,-0.5041
9077,-0.0193,-0.0817,9.7362,-0.0729,-0.6878,0.2094,29.6828,-9.3336,40.1465,1.158,-0.3693,0.4524,-0.3975,0.6094,-0.5368
9090,-0.056,0.0033,9.8503,-0.4832,0.1019,0.6308,29.7941,-10.2193,40.1993,0.0178,1.2376,-0.2837,-0.3009,-0.3312,0.8228
9101,-0.0102,0.034,9.8024,0.3691,0.1117,-0.0431,30.5053,-10.6876,39.9741,0.2448,0.0772,0.758,-0.1074,1.0637,0.2694
9114,-0.0074,0.3038,9.7972,0.8194,0.2961,0.6739,30.7758,-11.2329,38.8833,0.2368,0.7122,1.9178,-0.3184,0.6932,-0.3404
9124,-0.1598,0.0448,9.8468,-0.807,0.0436,-0.2381,31.0765,-9.6679,39.9837,0.2098,0.0839,0.8082,0.1514,-0.4214,-1.8661
9136,0.0216,-0.1429,9.7589,-0.2043,-0.4256,-0.1947,29.8456,-9.8973,39.2121,-0.6558,1.0231,1.1765,-1.1934,2.6985,0.0888
9147,0.1095,0.0434,9.8056,0.3054,0.815,-0.538,28.3689,-10.8632,38.9781,-1.2441,0.1445,-0.0228,1.0188,0.2382,-1.3532
9159,0.0172,-0.2604,9.839,-0.0561,-1.0477,-0.0924,29.4741,-10.0523,41.9909,-0.2964,-0.2153,-0.4008,-1.0141,1.0316,1.6145
9173,-0.1567,-0.1403,9.817,0.1627,0.1512,0.3819,31.3961,-10.5782,39.019,0.491,0.1658,2.4926,-0.8763,0.6256,-0.6019
9184,-0.0649,-0.0343,9.808,-0.3845,0.8783,0.3888,28.4877,-11.8016,40.582,-0.363,-1.6988,0.9745,0.4674,1.4673,2.2159
9194,0.0792,-0.1313,9.7448,-0.6212,-0.4556,0.3289,29.6542,-10.2175,39.1438,-0.1646,0.2351,0.7006,-0.0013,0.6407,1.5852
9205,-0.0815,-0.121,9.9227,-0.5123,-0.2268,0.235,30.2583,-10.3579,39.9573,-1.2802,0.0387,1.2398,-0.4544,-0.9916,2.3097
9215,-0.1221,0.0047,9.7516,-0.5375,-0.6486,-0.8424,29.2415,-9.7219,41.674,-0.8408,-1.1381,-1.4349,-0.5242,-1.0726,-0.6886
9226,0.0328,0.0151,9.8232,0.5634,0.1731,-0.5793,30.1916,-9.7017,39.775,0.4062,-0.5383,1.4016,0.8977,0.3751,-0.0681
9238,-0.0903,0.097,9.7995,-0.0373,0.28,-0.3223,31.3432,-10.7002,39.0245,-1.1892,-0.2742,0.5582,-1.0815,1.0061,-0.56
9248,-0.1326,0.0443,9.8249,-0.1329,0.4546,0.0384,27.8594,-10.3244,40.5824,-1.3859,-0.5785,0.083,-1.1491,0.5062,-1.1092
9260,-0.0163,0.0745,9.8254,0.2024,0.087,0.4439,30.587,-11.252,39.7254,0.7554,1.4587,0.3554,-0.0224,-1.5382,-0.1755
9271,-0.0918,0.1915,9.8824,0.0495,0.3023,-0.8253,30.6346,-9.4984,40.4435,0.1464,-0.2242,-0.2471,0.5037,-0.2386,-1.5196
9283,0.171,-0.0157,9.8239,-0.321,-0.7859,0.3171,29.6156,-10.2474,38.9123,0.2325,1.276,0.9528,0.6614,0.9879,0.1349
9298,-0.1825,-0.127,9.9168,-0.0413,1.1935,0.3469,29.5551,-10.136,40.1522,-1.1215,-0.3946,-1.0633,1.0987,0.7184,-0.1049
9309,-0.0088,0.1131,9.8437,-0.5459,-0.1681,0.6153,30.5388,-9.3947,39.2083,-0.1721,0.026,1.125,0.5823,0.6525,0.7381
9320,0.0029,0.1407,9.7905,-0.2227,-0.3922,0.2787,29.1056,-9.8348,40.214,-0.0612,0.7315,-0.2756,-1.3441,-1.1071,0.9014
9330,-0.0115,0.0931,9.7002,-0.299,-0.2958,0.2927,29.7082,-10.7185,38.7204,0.1135,0.8898,-1.7836,1.2365,1.2678,-0.4949
9341,-0.0811,-0.1091,9.7519,0.1557,-0.1127,0.0993,30.9866,-10.7193,41.9447,-0.2559,1.5318,0.9991,1.5989,-0.9296,-1.4844
9354,0.1043,0.1048,9.7996,0.6745,-0.0764,-1.2721,31.4353,-11.4722,41.0543,0.6147,-0.8573,1.4038,-1.0407,-0.9163,0.3484
9364,0.124,0.1372,9.7701,-0.3337,-0.6444,-0.4013,30.6653,-9.979,40.4604,-1.2385,-0.7144,-0.5005,1.1731,0.3157,0.0631
9377,0.1869,-0.2149,9.7607,0.4524,0.0044,0.169,30.2284,-11.0668,39.4746,0.8714,0.696,0.5366,-0.1895,-0.3773,-0.2844
9387,-0.0376,0.0448,9.8147,0.0076,-0.5414,-0.0624,29.7497,-11.2088,39.6082,1.2403,-0.0143,0.2867,0.31,1.3413,-1.4661
9398,0.0109,0.0933,9.821,-0.1254,0.6255,-0.0334,30.6827,-13.0376,41.3638,-1.0747,0.1566,-0.4918,-0.8673,0.9898,0.0966
9408,-0.0225,-0.0075,9.747,0.1307,-0.1812,-0.8347,29.1472,-7.6353,39.2415,-0.2388,-1.4614,-1.0798,-0.6567,0.2634,-1.1963
9419,0.0743,-0.0783,9.7494,0.3159,0.1593,-0.157,29.5676,-9.7327,40.7991,1.9695,0.9029,-0.2163,0.9343,1.1783,0.7798
9429,-0.0501,0.2487,9.8173,-0.2663,0.3402,-0.1105,32.0488,-11.0202,39.4335,-0.2328,-0.2933,-0.2482,-0.1768,-1.9851,-1.5505
9439,0.2109,-0.1224,9.7716,0.4289,0.9167,-0.8497,28.2441,-10.0125,41.3836,-0.6053,-0.3227,0.8922,2.2505,0.2498,0.5607
9450,0.0242,0.1244,9.7839,0.1279,-0.657,-0.0857,30.7735,-9.422,39.7824,-0.0733,-0.7349,0.203,-2.3277,0.0495,1.3777
9461,-0.0198,-0.1173,9.7888,-0.6039,-0.4895,0.4784,31.9245,-8.6258,40.6039,-0.7943,-0.147,0.1291,-1.7045,-1.9215,0.0324
9472,-0.0581,-0.0821,9.7225,0.1079,0.1427,0.0475,29.2544,-9.8837,39.4073,-1.4982,-0.4716,1.4048,-0.5592,0.1239,0.1944
9486,0.0465,-0.0661,9.7447,0.3465,-0.3312,-0.3482,31.2087,-8.846,41.8421,0.375,0.0157,0.1692,0.0368,-1.5956,-0.525
9496,-0.1181,-0.0132,9.7992,0.2643,0.2431,-0.5618,30.5297,-9.7819,41.7136,-1.8828,-0.9746,-0.6719,-0.0299,-1.1936,-0.6463
9508,-0.0953,0.1851,9.7872,-0.7488,-1.2328,-0.1475,30.9727,-9.5797,39.9191,0.0194,-0.908,0.5619,-0.5421,-0.1295,1.174
9520,0.0053,-0.0087,9.812,-0.1211,-0.9136,0.1132,30.935,-13.1357,40.9769,1.1593,0.1552,1.1607,-1.3367,0.1675,-0.4114
9533,-0.124,0.0868,9.7938,-0.6218,0.194,-0.3845,30.5975,-9.767,39.6943,0.6468,-0.5028,-0.4168,0.9396,-1.7243,-0.7031
9544,-0.1035,-0.0221,9.7672,0.3449,0.2662,-0.5599,30.6627,-9.3694,40.0213,-0.1749,1.0021,-0.0948,-0.8778,-0.7063,0.008
9554,-0.0295,0.0967,9.8238,-0.1168,-1.4792,0.6677,29.4008,-9.0711,40.8841,-0.5231,0.9917,2.2959,-0.5652,0.0007,-0.7919
9567,0.0686,-0.1389,9.831,-0.069,-0.0578,1.1431,29.9442,-10.5269,41.8062,-1.2631,-1.9122,1.1641,-0.072,-0.8003,-0.4898
9577,0.0573,0.16,9.8406,-0.1969,0.6563,-0.1876,30.949,-11.8697,39.6179,0.6778,-1.5438,-0.1183,0.1657,0.0093,0.5684
9588,-0.2052,0.1409,9.8382,0.0887,-0.5371,0.5832,29.549,-11.1342,41.3133,-1.4251,-0.2915,-2.4424,-0.1889,-0.9176,-0.0276
9598,-0.0437,-0.0027,9.8169,-0.0355,0.1346,0.3128,30.3385,-11.27,41.7887,-0.5161,-0.0636,-0.7725,0.4617,0.3306,0.3267
9609,-0.0103,0.1181,9.7104,-0.5698,-0.3231,0.4187,29.5306,-10.6848,39.7279,0.6455,0.2256,1.0213,-0.2683,0.4765,0.7922
9620,-0.0351,0.2067,9.8522,-0.8369,0.4167,-0.5161,30.2917,-11.384,39.9679,-0.4016,-0.065,-1.1188,1.0197,-1.2828,0.9994
9632,0.0472,0.0219,9.7718,0.3506,0.467,0.192,28.7025,-8.7943,40.6004,-0.8268,2.1236,-1.6339,1.1759,-0.29,1.3467
9643,0.1424,-0.044,9.8476,-0.8323,1.153,-0.5202,29.5781,-9.9117,41.012,2.1709,0.7442,-0.5112,0.8523,-0.0628,-0.1869
9656,0.0088,0.0125,9.7942,0.1675,0.7056,-0.3295,30.3273,-10.8058,40.7156,1.6595,0.56,-2.5716,-1.5771,-0.8525,0.3494
9668,0.061,0.0658,9.818,0.0716,-0.2317,-0.2244,30.2577,-9.1525,40.7675,1.7174,0.5943,0.5067,1.9104,-0.4144,-0.032
9683,0.0604,-0.1446,9.8229,0.7747,-0.0083,0.4742,29.099,-9.2375,39.6231,-1.1854,-1.0269,-0.8466,0.6885,0.0916,-1.2542
9695,-0.1015,0.0393,9.7902,0.0183,0.3416,-0.1786,31.9625,-10.6302,39.011,0.1019,-0.068,-0.7124,0.6489,-0.2716,-0.0946
9707,-0.0016,0.083,9.7296,0.2035,-0.0828,0.3594,30.3781,-9.1784,40.8926,-1.0047,-0.6528,0.2831,-0.1305,-0.7293,-1.1839
9717,0.0789,-0.0608,9.8343,0.4824,-0.3069,0.0038,28.7732,-10.1813,41.1602,1.1302,-1.4679,-0.4686,-0.2295,-0.1677,1.477
9728,-0.031,-0.0779,9.8136,-0.5017,-0.0103,0.0149,30.8975,-9.6044,37.9019,0.0902,-1.1914,-0.8806,0.0569,0.4902,-0.1052
9738,0.0273,0.0346,9.7567,-0.5676,0.1961,-0.3919,29.5963,-10.4213,41.6751,-1.9196,-1.2449,1.3264,0.7377,-0.2322,0.3138
9748,-0.0523,-0.1161,9.769,-0.2065,-0.2207,-0.0702,31.5999,-10.3886,39.8057,-1.5818,-0.5825,-0.6325,-0.6299,-0.9491,0.3855
9760,0.1017,-0.137,9.7152,-0.7873,0.0167,-0.0314,29.3838,-7.3684,41.0072,-1.8019,-0.0794,-0.9559,-2.3179,-1.2147,-1.0132
9772,0.1609,0.0711,9.7344,-0.2516,0.4307,0.184,30.4754,-10.7157,41.0976,0.6137,-1.8953,0.3983,0.7071,-1.0381,-1.2793
9785,0.0122,-0.1349,9.7776,0.4226,-0.1448,0.0064,29.9897,-9.8626,40.499,0.5068,-1.7377,-1.2724,1.3441,0.1191,0.0724
9796,-0.0627,0.0262,9.825,0.0389,0.2947,0.4518,29.9836,-8.7435,40.2125,-0.2908,-0.6894,1.4075,0.6804,-0.4271,-1.7507
9806,0.0641,-0.0199,9.8582,0.2692,0.7121,0.5848,27.809,-10.9299,39.3544,2.0326,-0.4506,0.049,-0.0451,0.788,0.0838
9818,0.0753,-0.0509,9.8311,-0.6601,-0.202,-0.356,31.8815,-9.1417,40.5866,0.4435,-1.9559,0.1321,-0.1356,0.1482,-1.1988
9829,0.1658,-0.0085,9.8231,0.5609,-0.1437,-0.0125,31.2746,-9.0792,39.2743,1.1954,-0.6931,0.0327,-0.1002,0.6457,-0.0803
9840,-0.1149,-0.0814,9.7739,0.1279,-0.6644,-1.0678,30.9197,-9.896,38.9364,0.2885,0.0281,-1.1519,-0.0043,0.7654,1.8238
9850,0.3451,0.1647,9.8394,0.1917,0.6437,-0.274,28.5163,-10.5125,41.7112,-0.1141,-2.1721,1.4856,0.5941,-0.2733,2.4784
9861,0.0409,-0.0028,9.7132,0.2107,-0.2077,0.8191,29.4287,-11.3306,38.8871,0.2297,0.3467,0.1374,1.0747,-0.7853,0.5724
9871,-0.0823,-0.0676,9.8326,-0.0615,-0.3595,0.9961,29.8249,-8.6084,40.82,-0.1105,1.4818,1.2135,-0.5784,2.3471,-0.1004
9882,-0.0369,0.0191,9.8342,-0.0246,-0.4035,-0.2969,31.1666,-11.5292,39.656,-0.7473,0.2903,0.3491,-1.6952,0.909,-0.24
9892,0.056,-0.0518,9.744,0.6906,-0.6566,0.4471,30.8695,-10.336,39.6093,0.3918,-0.9154,-0.964,0.0937,0.3971,0.2544
9905,-0.0025,0.0507,9.8051,-0.0139,-0.5248,0.1342,29.5702,-9.264,41.6343,-0.9794,0.04,-0.1732,0.6953,-1.6345,1.34
9915,-0.0327,-0.0406,9.7941,-0.068,-0.1739,0.0812,29.6711,-11.3355,40.1363,1.2384,-0.0434,-1.4019,1.6592,-0.6499,-0.2522
9928,0.0257,0.0322,9.8103,-0.6041,0.8733,-0.2149,30.449,-10.7366,39.269,-0.1895,-1.8406,-0.6102,2.7211,1.1482,0.0
9939,-0.0199,-0.0419,9.7488,-0.1048,0.0097,0.6227,28.6619,-7.9897,40.2724,-0.2812,0.026,-1.6764,0.4571,0.643,-1.1879
9952,-0.1162,-0.0521,9.7211,0.0753,0.3046,0.1479,30.1201,-10.4988,39.9519,0.1351,1.0252,-0.0022,1.4622,0.1374,-0.5294
9968,-0.1148,0.0103,9.7992,-0.3559,0.9146,0.3324,29.5546,-10.4508,40.4841,-0.653,-0.1106,-1.8286,-0.0645,0.1673,-1.5323
9980,-0.1228,0.1389,9.8059,-0.821,0.4848,-0.4392,30.8984,-10.0377,40.3213,-0.8169,0.7236,-0.0629,-0.4573,-0.2726,-0.4264
9990,0.1282,-0.1056,9.8683,0.7013,0.3626,0.3688,29.3529,-10.9628,39.3381,1.4182,0.0122,1.8671,0.2877,-1.4883,-0.3126
10001,-0.022,0.1046,9.7603,0.346,-0.2093,0.6254,30.1768,-11.3857,39.7352,1.1272,-0.2448,0.7721,-0.1846,-0.3278,0.2079
10011,0.0524,-0.0515,9.8065,0.3033,0.0516,-0.2011,28.8907,-10.4071,40.4258,-0.2743,-0.4579,0.1156,-0.2094,0.3165,-0.799
10025,-0.1474,0.1064,9.8094,-0.6764,0.6979,-0.3172,29.6847,-10.5429,39.3286,-0.6608,-0.9418,0.4557,0.3778,2.064,0.7482
10035,-0.0865,0.0067,9.8151,-0.6549,0.2166,-0.1327,30.9299,-8.7016,38.8278,-0.254,0.7008,-0.1252,0.9834,-0.52,-0.4267
10048,-0.0501,-0.1286,9.8338,-0.5208,-0.3991,-0.0062,30.2762,-9.9322,39.6515,-0.274,-0.3622,2.7387,-1.931,-0.2859,0.3971
10059,0.0349,0.0007,9.8443,-0.0117,0.1543,-0.2021,30.4604,-10.1664,41.0623,1.0096,1.278,-0.9883,-0.5067,0.6629,-0.5348
10071,-0.1027,0.0823,9.7978,0.2632,0.7495,0.4335,28.9159,-11.2769,42.3448,-1.8943,-0.7753,1.2634,1.8536,1.1903,0.4939
10086,0.0107,0.0991,9.8292,-0.0106,0.4565,-0.078,30.8195,-9.3517,39.1627,-1.2457,-0.3239,0.7794,-1.0679,-0.542,0.619
10100,-0.0102,-0.1078,9.8908,-0.5476,0.2741,-0.1641,30.9634,-9.7363,40.7951,0.0981,-0.6843,-0.6314,0.9845,0.3038,-1.1528
10111,-0.0339,-0.04,9.7811,-0.9678,-0.3537,-0.2006,29.9639,-8.9194,41.954,-1.013,1.9635,1.0054,-2.2198,0.6289,-0.8001
10121,-0.016,-0.0434,9.8326,0.2288,0.3859,-0.3281,31.374,-9.9639,40.2335,1.275,-1.9201,0.7713,-0.84,0.5711,-1.701
10132,0.1721,0.1314,9.7532,1.0115,-0.2362,0.4337,29.8597,-9.2956,40.4905,-1.6933,1.3698,-0.2417,1.2127,0.1015,0.9931
10150,0.1557,-0.05,9.7872,0.3835,-0.1278,-0.7851,29.1105,-11.7214,40.7739,0.334,-1.3047,-0.349,-0.1616,0.5664,-0.5486
10161,-0.06,-0.0742,9.768,-0.4,-0.1873,0.5736,28.8145,-8.694,39.7825,0.3594,2.1674,0.392,-1.0751,0.0091,2.0525
10173,0.0863,0.1091,9.7757,-0.5655,0.6038,-0.0524,27.9049,-10.0574,38.504,1.5205,0.4345,-0.0561,-1.4106,-0.2418,-0.6546
10184,-0.1371,0.1008,9.8054,0.3074,-0.5736,-0.8963,29.4297,-9.641,40.0508,0.3423,-0.4033,-0.7994,0.1919,-0.9053,-0.3073
10195,-0.0513,0.1246,9.8527,-0.4048,-0.2785,0.4219,30.4452,-9.2826,38.2132,-1.0037,-1.257,-1.4003,-2.2093,1.5055,-1.6587
10209,0.0454,-0.1779,9.8108,-0.2392,-0.7274,0.3169,29.551,-10.7579,39.3108,0.2137,-0.4262,-0.605,0.6424,-1.0485,-0.0801
10225,-0.0477,0.0577,9.8281,-1.1588,-0.4732,-1.0737,31.1809,-9.0938,41.4465,-1.2289,0.7212,0.7484,-0.2677,-0.9713,1.7097
10236,0.0665,0.0461,9.6781,0.7513,0.194,0.3399,31.1063,-9.3154,39.9727,-0.6312,-0.4749,2.0853,0.7288,0.3119,-0.076
10246,-0.2398,-0.1209,9.694,0.0501,-0.3749,-0.4955,30.9842,-9.9126,39.3749,2.2142,0.9181,0.0409,1.0572,1.6672,0.0081
10257,-0.0355,0.0281,9.9008,0.892,-0.3302,0.6046,29.8165,-8.9111,41.2799,0.41,0.6061,0.4345,0.7612,-1.2385,-0.3445
10268,-0.0739,-0.0045,9.7684,-0.2579,0.4205,-0.1938,30.0132,-10.3276,40.7644,0.5627,0.5256,1.9843,-0.2913,-0.1431,0.7239
10278,-0.0131,-0.079,9.7198,0.2035,0.6557,-0.4781,29.2138,-8.0323,39.4865,1.1301,-0.5904,-0.1832,0.7223,0.405,-0.0985
10289,0.1323,-0.0174,9.8138,0.2755,0.3694,0.4782,29.5952,-10.7138,38.4314,-0.1574,0.6316,-0.2012,-0.8497,-1.0224,0.2332
10299,-0.0911,0.0787,9.8293,0.0322,0.4847,-0.2336,30.5214,-11.1095,42.3559,1.5442,1.0718,-1.1478,0.0015,0.4586,0.2274
10316,0.1525,0.0349,9.7975,0.3115,-0.0621,-0.3036,31.9337,-10.1034,40.1994,-0.1355,1.2975,0.7186,0.2146,-0.5298,-0.0038
10329,-0.0075,0.0995,9.7535,0.7767,0.0656,0.2634,30.5349,-10.0604,39.5066,-0.7239,0.8172,0.0895,-1.1123,2.3506,1.6516
10343,-0.0336,0.0521,9.9049,-0.9954,0.376,0.7054,30.7152,-11.7156,39.221,1.4494,1.0355,-0.9121,-0.222,0.1214,-0.4924
10353,0.0574,-0.1538,9.8314,0.2411,-0.0601,0.2817,30.2968,-8.8896,39.0447,-0.0394,2.0534,-1.3794,-0.3708,-0.466,-0.7716
10364,-0.0283,-0.0603,9.7317,-0.2097,0.1206,-0.2863,32.2065,-7.5844,38.7718,0.3803,-0.443,0.5786,-0.2496,-0.0067,-0.9659
10374,0.0814,0.1013,9.8499,0.1103,-0.1043,-0.0845,32.4758,-7.7913,41.3859,-1.5538,0.1454,-0.8652,-0.2281,-1.195,-0.6056
10388,-0.1022,0.1598,9.7385,0.0474,-0.2975,-0.3706,29.1853,-8.664,40.0739,0.8015,-0.2262,1.3097,0.9435,0.4777,0.9617
10400,0.114,-0.0596,9.8034,-0.4944,-0.0685,0.3589,30.1404,-10.4479,39.0562,0.8976,2.4902,0.3697,-0.2384,-0.6997,0.8105
10412,0.1408,-0.2018,9.874,-0.0252,-0.1812,-0.4681,30.3646,-9.0994,41.0122,-0.4203,-1.9611,-1.3423,2.1399,-0.8041,0.0976
10423,0.2327,0.078,9.7351,-1.0793,0.5513,-0.3668,29.851,-11.6629,39.5656,0.0206,-1.4738,-0.1411,-1.1698,-0.9693,-0.6576
10434,0.1675,0.0635,9.7786,-0.5319,0.092,0.5879,29.5495,-10.8586,40.5127,0.6771,0.0253,-0.9874,-0.6392,0.4456,-0.9435
10447,-0.1664,0.065,9.681,0.3575,0.3848,0.1969,30.6334,-10.2617,40.299,0.6195,-1.7431,-0.7141,0.3534,0.4839,-0.889
10460,-0.0683,0.0925,9.7462,-0.2366,0.0968,0.8178,30.7995,-10.4274,39.9539,-1.032,-0.303,1.084,-0.4088,2.86,-0.6454
10471,-0.0586,-0.1356,9.7726,-0.9691,-0.0866,-0.6635,31.077,-10.4482,41.5744,0.3264,-0.4128,0.5055,0.8986,-0.9649,0.0907
10481,-0.1286,-0.0311,9.7432,-0.35,0.0846,0.1569,29.4893,-10.5655,40.5143,-0.0132,-0.0707,0.3781,1.5994,-2.0837,0.7347
10492,-0.2161,0.0194,9.771,0.5898,-0.1865,0.5795,28.4781,-9.109,40.4793,-0.7304,-0.4527,-0.0878,0.1993,1.6426,-0.243
10503,-0.0606,0.0257,9.8485,0.9691,0.1153,0.0213,30.5575,-11.3565,39.4425,-0.0409,1.2337,-0.1202,-0.6538,0.194,0.7422
10515,-0.0809,0.0751,9.6542,-0.7861,-0.5618,-0.581,30.301,-7.9721,39.5303,-1.1674,1.3108,-0.1535,-0.4872,-0.6959,-0.357
10526,-0.0033,-0.0732,9.8256,0.1959,0.5857,0.3479,30.6339,-9.6563,39.982,0.2119,-1.1753,-0.4686,1.4155,-0.2771,-0.6275
10542,0.0671,-0.0809,9.8037,-0.5645,0.8291,0.6431,30.7658,-9.3706,39.3509,-1.3909,1.0884,0.7345,-0.7075,-1.2356,-0.0766
10554,0.0251,-0.1262,9.7188,0.3241,0.5293,0.0637,30.0317,-8.1878,40.4134,-0.6078,1.0986,0.6133,-1.3605,-1.0657,-1.2249
10570,-0.1023,-0.0759,9.8583,-0.1366,0.0744,0.2119,30.5105,-10.0688,40.3471,1.1854,-2.3489,1.4817,-1.1555,0.6037,-0.4847
10584,0.2706,0.0131,9.8446,0.0504,-0.3887,-0.0998,29.7654,-9.0932,39.0389,-1.4038,-0.4345,1.1613,0.8514,0.2443,-0.2707
10595,-0.0538,-0.0881,9.7694,-0.3056,-0.5072,-0.465,30.8859,-10.3536,41.0465,0.2513,-0.2053,0.025,-0.6556,0.9956,-0.2412
10605,-0.0217,0.0961,9.8289,-0.4091,0.6896,0.3705,28.2158,-10.6783,41.1761,0.8843,-1.0955,-0.5837,-0.7827,1.4792,-0.7023
10616,0.0993,-0.0264,9.8078,0.3123,0.5907,0.6622,27.321,-11.3159,40.3861,0.9008,0.6057,-0.514,-0.43,0.7257,0.0099
10629,0.1344,-0.1231,9.7982,-0.0169,-1.0957,-0.5207,30.9983,-11.8457,40.0802,0.3266,0.5742,0.1347,0.6387,-0.1682,-0.2406
10641,-0.0548,0.0151,9.7986,0.5957,0.2698,-0.2228,30.4757,-8.4493,42.3082,0.5214,1.071,0.9343,-0.5044,1.6678,-1.1792
10652,-0.0454,-0.0225,9.8103,-0.0595,-0.31,-0.7876,29.647,-9.1014,38.9537,0.1087,-0.9059,-1.0161,-0.1261,0.6388,0.6767
10665,0.1552,0.0607,9.9145,-0.2003,0.7684,0.2061,28.7591,-10.8911,39.4614,0.8147,-1.8711,-0.01,-1.4324,-0.5198,-0.1986
10677,0.0225,-0.1425,9.8041,0.3337,0.1111,-0.4547,30.1599,-8.9293,39.2065,-0.436,0.7252,0.5392,-0.3293,1.8652,-0.7707
10693,-0.0147,-0.2309,9.8537,0.708,-0.6964,0.5138,30.8802,-10.868,39.3126,-1.9408,-0.2806,-0.3064,1.1234,0.8205,0.0586
10706,-0.0765,0.0182,9.7961,-0.0805,0.1308,-1.0743,31.9203,-8.6852,39.1145,0.1586,-0.1195,0.3994,0.0095,-0.3835,-0.5284
10717,0.1264,-0.1856,9.8443,-0.3244,0.2256,0.1465,29.9075,-10.4964,39.6235,0.2391,-1.8163,-0.9348,-0.8155,1.3498,0.0263
10727,0.1205,-0.0219,9.8019,-0.099,-0.0546,-0.1538,30.2707,-9.2828,39.3193,0.4018,0.9934,-0.6061,-0.7244,-0.8936,-1.8621
10738,-0.0041,0.01,9.7461,-0.4155,0.2506,-0.1146,30.4323,-10.0733,39.2629,1.225,0.4318,0.9865,-0.8854,1.9249,1.3031
10756,-0.0953,-0.0996,9.8478,-0.5145,0.1738,-0.0826,29.4468,-9.5445,41.3222,0.5244,-0.2764,1.3812,0.8715,-0.1095,0.0177
10769,-0.0581,0.0431,9.8455,0.3001,0.492,0.0536,30.6524,-8.9331,40.8942,-0.867,-2.6641,0.9268,0.0862,-0.7988,-0.742
10780,-0.0427,-0.0047,9.8571,-0.5151,-0.2416,-0.2811,30.1769,-12.9716,40.2586,1.78,-1.7646,-0.3019,-0.7685,-0.1605,0.6186
10791,-0.0376,-0.0863,9.7878,0.0912,0.0232,-0.6185,28.5579,-9.7268,41.0206,0.662,0.6905,0.2571,-0.4667,-1.0172,1.7883
10804,0.1017,-0.0478,9.8101,-0.3585,-0.2756,-0.2682,28.88,-12.3072,41.4702,0.2929,0.0594,-0.9484,0.2358,1.1558,0.2024
10814,-0.141,-0.0625,9.7887,-0.0487,0.1652,0.796,29.4548,-9.7258,39.1782,-0.0415,1.4182,1.7902,-0.2856,-0.5495,-0.2453
10825,0.0219,0.1636,9.8703,-0.5104,0.1497,-0.5195,29.628,-11.1133,39.3095,-1.4416,0.1025,0.461,0.1887,-0.402,-1.1257
10835,-0.006,0.1312,9.8192,-0.8523,0.2955,-0.0183,30.6523,-10.7518,40.0528,0.0172,0.5874,0.7279,-0.3309,-1.9576,-1.8269
10845,0.0209,0.0078,9.7964,0.29,-0.2855,0.7269,30.2972,-10.6338,41.6071,0.557,-0.2936,0.0914,0.5219,-0.7694,2.7116
10857,0.1722,-0.0871,9.8216,-0.1804,-0.9931,0.1034,29.2957,-9.8519,41.3718,-0.2018,-0.7467,-0.355,0.8052,-1.2416,-1.5244
10869,-0.132,-0.0833,9.8153,-0.9381,-0.8208,0.2676,30.5787,-9.9877,40.0911,0.8632,1.1894,0.6462,0.1779,-0.7814,0.5448
10881,-0.0652,-0.0377,9.8184,0.765,-0.5749,-0.6386,30.0434,-10.5621,38.0331,-0.9748,2.0363,-1.0088,-1.6706,0.178,0.8166
10891,0.0016,0.2619,9.8501,0.5378,0.5025,0.2954,31.4005,-10.3984,38.5602,0.5448,-0.9018,-0.3344,0.2817,0.5223,-0.7756
10906,-0.1944,0.0673,9.8182,-0.3306,0.1586,-0.078,31.0661,-10.561,40.6592,0.1685,-0.6891,0.4018,-0.1467,0.1971,1.0039
10919,-0.1992,0.0217,9.8234,0.7036,-0.6264,0.2385,31.978,-10.7234,41.4914,-0.7799,-2.1293,-1.63,1.3046,1.706,-0.8969
10931,0.0325,0.0431,9.8526,0.2228,-0.2904,0.6786,29.5641,-10.5436,41.4028,0.4479,-0.4632,-0.208,0.3221,-0.63,1.2363
10947,0.0651,-0.1225,9.8411,-0.4959,-0.4483,-0.1184,31.6947,-10.0643,40.4336,-1.3192,1.176,0.9962,0.5354,-0.5103,0.2083
10958,-0.1239,-0.0726,9.7812,-0.5652,-0.2517,1.0127,29.3882,-9.5784,39.5319,-0.4396,-0.9613,0.9735,0.4275,-0.7405,1.0172
10968,-0.0618,-0.0884,9.8468,0.6455,0.3534,-0.5412,29.2555,-8.0125,41.3911,1.0356,-0.0275,-1.3204,1.156,0.6456,1.4641
10979,0.1446,0.0155,9.8526,-0.1181,0.6351,-0.1195,29.6341,-9.2165,41.2271,0.1866,1.0991,-0.9236,0.3244,-0.5225,0.4714
10990,0.1691,-0.0005,9.8363,-0.0565,-0.2238,-0.0793,30.6143,-9.4884,39.7908,2.1611,-1.9276,-0.4557,0.5452,1.7861,0.435
11000,0.0565,0.2217,9.7921,0.4803,0.2576,-0.3159,31.5521,-10.1485,39.3358,0.4351,-3.1657,-0.2948,-3.375,1.5682,0.4462
11015,-0.0662,-0.0373,9.7288,-0.0773,-0.7998,-0.6056,29.9386,-9.8942,40.648,-0.0323,0.1652,-0.4364,-1.0763,0.3296,-0.3746
11025,0.0637,-0.0936,9.7568,-0.7792,-0.2547,-0.3094,29.1781,-10.2714,41.5543,2.4495,-1.3481,0.2726,0.5614,-2.8013,-0.4362
11036,-0.1387,0.045,9.8021,0.1259,-0.6872,-0.2646,29.4964,-10.8823,40.3495,1.0509,-0.4432,0.549,0.3791,1.912,0.4606
11047,-0.095,-0.0543,9.7457,0.28,0.9445,-0.3084,30.0289,-10.5601,39.398,1.7941,-0.0156,0.1929,-2.6159,0.5584,-0.3703
11059,-0.0667,-0.1617,9.8167,-0.0897,0.0205,-0.0945,29.0491,-10.4215,40.5422,1.4861,-1.4478,0.7978,1.8418,-1.3462,0.8587
11072,0.1449,-0.0614,9.8087,-0.5207,0.5514,0.5694,28.662,-9.8529,41.0163,0.5054,1.1361,0.4567,0.1401,0.0121,-1.1252
11083,0.1961,-0.017,9.8096,-0.661,-0.4051,-0.0229,30.6748,-11.4127,40.0465,0.8719,-2.6777,0.4198,0.1949,0.6914,0.2136
11093,-0.0448,0.0798,9.7452,1.8227,0.2242,0.4888,30.476,-10.0235,39.2132,0.1261,-1.0513,0.5467,1.9237,-0.3816,-0.1224
11104,0.0161,0.0778,9.8112,-0.5417,-1.0369,-0.8228,29.4237,-11.1051,38.8112,-0.35,-0.4695,0.3437,0.3475,-0.8862,-0.127
11115,-0.0231,0.1086,9.793,0.956,0.2242,0.2614,30.6727,-9.3658,38.5639,-0.1043,0.2823,1.0359,-0.6916,-1.5738,-1.5244
11126,-0.0436,-0.0382,9.7723,0.7925,-0.8434,0.5103,29.0384,-9.9118,41.1477,-1.1924,2.2698,0.0004,2.0054,0.3801,1.676
11138,0.1193,-0.0916,9.8063,0.5519,-0.2718,-0.342,29.2388,-10.7922,39.7583,-1.2841,-1.0348,1.8313,-0.8358,-0.189,-0.357
11151,-0.071,-0.1556,9.8495,-0.4481,0.1548,-0.8028,30.2877,-9.7482,38.2738,-0.7321,0.1046,-0.3639,0.9772,0.4553,-1.3863
11164,-0.1674,-0.0435,9.7345,0.2171,-0.0195,0.8421,29.4409,-9.5464,39.3794,-1.3937,-0.342,0.6993,-0.5258,-0.6312,2.2657
11178,0.0906,0.139,9.8004,-0.4492,-0.4002,0.4163,28.2241,-10.6697,40.8941,0.4405,0.1676,-0.6566,-0.0232,-1.1776,0.7786
11188,0.0261,0.1204,9.8045,-0.7693,0.2076,0.1848,29.9841,-9.4472,39.2607,0.7634,-1.2198,0.6945,-1.5951,0.2558,1.8749
11199,0.1086,0.0634,9.734,-0.5462,-0.4705,-0.7281,28.0044,-10.2674,39.8483,0.0848,0.7837,-1.157,1.0741,-0.4138,1.6977
11210,0.0557,-0.0474,9.8058,0.0204,0.0448,0.4628,29.903,-9.2328,39.0927,-1.1166,-1.7891,-0.0825,-1.7007,-0.4765,-2.0265
11220,0.1073,-0.0521,9.8524,0.1873,0.5569,0.8587,30.9732,-9.25,40.8967,-0.4185,-0.6713,-1.4069,-0.1394,-1.0182,0.2957
11231,-0.0451,0.0193,9.7527,0.0378,1.1731,-0.5986,30.5653,-8.4617,39.7407,0.7508,-0.2127,-0.7249,-1.1865,-0.8077,-0.3245
11245,0.0942,-0.1162,9.7979,-0.6847,0.3096,0.5093,27.0276,-10.213,39.155,-2.4187,0.8345,-1.0169,0.3925,-1.1699,0.6358
11255,0.0519,-0.0565,9.7971,-0.3806,-0.2874,0.3983,30.8109,-10.6912,39.4294,0.0649,-0.7113,1.1649,1.0393,-0.9256,-0.0106
11267,-0.098,-0.2382,9.8154,-0.2563,0.2307,-0.5219,29.6668,-10.2116,39.1195,0.7546,-0.019,0.0215,0.495,0.9325,0.0111
11277,0.1452,0.0261,9.8449,0.0504,-0.179,-0.2196,29.4281,-10.1194,39.7463,-0.4349,1.128,-0.7814,0.3252,-1.3753,-1.4141
11290,-0.1074,-0.0682,9.7748,-0.7464,1.1443,0.5821,28.8653,-11.5371,40.0582,0.3232,-2.2939,-1.5028,0.3709,-0.4559,-0.4125
11303,0.0451,0.0086,9.8109,-0.3212,-0.2395,0.3058,29.7485,-9.136,41.8777,2.3923,-0.9292,-0.1232,1.1268,-0.3567,-0.9989
11317,0.0867,0.0277,9.7666,-0.266,0.524,0.5455,30.9457,-10.1386,39.2322,0.7598,0.242,-0.6726,-0.2352,-0.1291,-0.8277
11328,-0.0197,0.0519,9.8685,0.129,-0.0088,-0.1455,31.2106,-11.2292,39.1525,-0.3843,-1.1883,0.2559,0.3048,0.1263,0.2558
11339,-0.1249,-0.0255,9.8073,0.7474,-0.1265,0.4029,29.8616,-10.7578,39.768,-0.3043,1.1754,-0.7754,0.0977,0.0544,0.3659
11350,0.0386,0.0302,9.8815,0.3373,-0.0682,-0.3708,31.6257,-10.1171,40.999,-0.4346,1.8628,-0.3979,0.136,-0.6278,-0.3119
11361,0.0537,-0.05,9.9598,0.8895,-0.2148,0.4459,29.7261,-10.3326,41.2199,-1.4573,1.0226,-0.1801,0.1692,-0.2166,-0.7545
11371,-0.0744,0.1458,9.7822,0.4818,0.1203,0.0676,31.0124,-10.3995,40.3871,0.9632,0.5195,-1.0053,0.7923,0.0473,1.1147
11382,0.0742,0.121,9.8327,-0.4396,-0.2365,-0.4811,29.2889,-9.1534,40.3808,-0.6837,-0.2972,0.4639,0.9698,0.161,0.4034
11392,0.1416,-0.1541,9.8005,0.9504,0.2912,-0.1897,29.3704,-9.5226,39.6557,1.2747,0.7482,-0.5888,-0.2001,-0.6811,0.8576
