seq,time_us,ax,ay,az,gx,gy,gz,mx,my,mz,drop_flag
0,10,0.002555637154728174,-0.008261959999799728,-1.0006288290023804,-0.8258518576622009,0.24866493046283722,-0.0889926627278328,29.38849639892578,-10.751047134399414,40.694087982177734,0
1,10111,0.11357071250677109,-0.004372612573206425,-1.00181245803833,1.1547530889511108,0.38880059123039246,1.1206258535385132,29.8223934173584,-10.709567070007324,41.47154235839844,0
2,20030,0.04285852238535881,-0.0023186192847788334,-0.971893846988678,-0.2584105134010315,0.4984346330165863,-0.6579539179801941,29.470855712890625,-10.84601879119873,39.93400573730469,0
3,29909,0.015108518302440643,-0.022239353507757187,-0.9902847409248352,-0.7134709358215332,-0.7029779553413391,-0.3863072693347931,29.69802474975586,-10.64291000366211,38.329341888427734,0
4,40071,0.02870289236307144,0.060542646795511246,-0.9996488690376282,-0.10247055441141129,-0.37949806451797485,-0.3718763589859009,30.876155853271484,-11.592004776000977,39.82319641113281,0
5,50011,-0.02619253844022751,-0.029097774997353554,-1.0001519918441772,-0.1412191092967987,-0.5511734485626221,-0.6829084753990173,31.972148895263672,-8.95555591583252,40.987937927246094,0
6,60179,-0.12255483120679855,0.05400354415178299,-1.0499975681304932,0.26329469680786133,-0.4598061740398407,0.03967583552002907,28.703887939453125,-10.594683647155762,40.05922317504883,0
7,69853,-0.026318717747926712,-0.016728606075048447,-0.9933666586875916,-0.4894185960292816,-0.13443997502326965,-0.7225692868232727,30.87994956970215,-9.836918830871582,39.278656005859375,0
8,79902,-0.004498236812651157,-0.005687452852725983,-0.9761192202568054,-0.047202400863170624,-0.7140892744064331,-0.20488189160823822,29.455873489379883,-9.071198463439941,39.50717544555664,0
9,89664,0.019670233130455017,0.05810714513063431,-1.0047186613082886,-1.3921089172363281,1.0942864418029785,-0.17356014251708984,29.37255859375,-8.769336700439453,39.04502868652344,0
10,100023,-0.015792230144143105,0.018108529970049858,-0.9881402850151062,0.056114163249731064,0.5975619554519653,-0.10179746150970459,31.00845718383789,-9.340052604675293,40.997589111328125,0
11,110009,0.0024059396237134933,0.0039879195392131805,-0.99311363697052,0.790865957736969,-0.3068012297153473,0.00034698654781095684,28.722572326660156,-10.103567123413086,40.017581939697266,0
12,120210,0.04317060112953186,-0.04087028279900551,-0.9865657687187195,-0.33283549547195435,-0.2339283525943756,0.09126665443181992,31.482587814331055,-8.1655855178833,40.202125549316406,0
13,129950,-0.025556817650794983,-0.010303569957613945,-1.010111927986145,-0.39512041211128235,-0.015842536464333534,1.057545781135559,31.61257553100586,-11.772263526916504,39.44527053833008,0
14,139880,-0.06566403061151505,0.0701044425368309,-1.0032395124435425,-0.23591205477714539,-0.6226736307144165,0.23197965323925018,29.44017219543457,-9.544846534729004,40.296382904052734,0
15,149795,-0.016611648723483086,-0.022531623020768166,-1.0055322647094727,0.2507069706916809,-0.5142804980278015,0.70510333776474,30.71219253540039,-9.179925918579102,38.95336151123047,0
16,159678,-0.07901132106781006,-0.13144634664058685,-0.9776275157928467,-0.057878561317920685,0.3935486674308777,0.46279725432395935,30.379175186157227,-11.428107261657715,39.834083557128906,0
17,170027,-0.028085721656680107,-0.0746859684586525,-0.982496440410614,-0.6016085743904114,-1.0979722738265991,-0.7155609726905823,28.701597213745117,-9.678889274597168,40.63766860961914,0
18,180016,0.084548220038414,0.009272008202970028,-1.012238621711731,0.9387213587760925,0.7840218544006348,-0.4904564321041107,31.30861473083496,-11.938705444335938,39.52129364013672,0
19,190080,0.0018558015581220388,0.020257864147424698,-0.9809495806694031,-1.0234246253967285,0.10601278394460678,-0.2843616008758545,29.72589111328125,-10.99148178100586,38.97311782836914,0
20,200111,0.09262789040803909,-0.016171272844076157,-1.0016870498657227,0.3700200915336609,-0.01596357300877571,0.8815087080001831,29.835493087768555,-9.96615982055664,39.41302490234375,0
21,209955,-0.004646059591323137,0.028864450752735138,-0.987352728843689,0.10940821468830109,-0.3860515356063843,0.45461633801460266,30.31389617919922,-9.697882652282715,40.109458923339844,0
22,219927,0.056241877377033234,-0.07765008509159088,-0.9852715730667114,0.26485034823417664,0.5983509421348572,0.44111672043800354,30.654876708984375,-7.291833877563477,39.71554183959961,0
23,230135,-0.02939317189157009,-0.0283124390989542,-0.9868396520614624,-0.5532867908477783,0.314700722694397,-0.24596881866455078,30.209829330444336,-9.188827514648438,38.81524658203125,0
24,240152,0.0005269746761769056,0.10352744907140732,-0.976613461971283,-0.7259283065795898,-0.62684166431427,0.2301379293203354,31.858219146728516,-10.360678672790527,40.59354782104492,0
25,249768,0.16651666164398193,-0.030873123556375504,-0.9915567636489868,-0.5942584872245789,-0.6342218518257141,0.2237231731414795,29.56548309326172,-9.856818199157715,39.02028274536133,0
26,260165,-0.0906171202659607,-0.015059304423630238,-1.009706974029541,0.5896813869476318,0.03817395120859146,-0.45120424032211304,29.294252395629883,-10.966346740722656,39.71409606933594,0
27,270045,-0.060334499925374985,-0.012716678902506828,-1.007926106452942,0.4827648401260376,-0.9679443836212158,-0.2935158312320709,30.47224235534668,-11.500345230102539,40.670204162597656,0
28,279939,-0.01905849762260914,-0.10964495688676834,-1.0409749746322632,0.401228129863739,0.4811953008174896,0.22636066377162933,30.465171813964844,-8.917854309082031,39.102813720703125,0
29,290114,-0.04501679167151451,-0.0174630768597126,-0.9940276741981506,0.7179558277130127,0.5910016894340515,0.7024423480033875,29.59331703186035,-9.645502090454102,40.98201370239258,0
30,300017,0.012526899576187134,-0.10474532097578049,-0.9700779318809509,-0.27160876989364624,-0.5313576459884644,0.23799748718738556,29.95198631286621,-9.662086486816406,39.68352127075195,0
31,310334,-0.11221220344305038,-0.024068349972367287,-1.0014859437942505,-0.09288617223501205,0.4845225512981415,0.4368385970592499,29.308216094970703,-10.041329383850098,39.49327087402344,0
32,319949,0.05040161311626434,0.006409117486327887,-0.9748888611793518,0.2801752984523773,-0.3245610296726227,0.3312839865684509,29.18558692932129,-9.721092224121094,41.41102981567383,0
33,330151,0.010298926383256912,-0.004505231976509094,-0.981174111366272,-0.8095077872276306,0.7231232523918152,0.31140297651290894,28.313364028930664,-10.904309272766113,40.258155822753906,0
34,340010,0.012423333711922169,0.0232230294495821,-1.0019816160202026,-0.47683537006378174,0.80086350440979,0.25499236583709717,30.321012496948242,-10.116890907287598,40.00206756591797,0
35,349990,-0.026435233652591705,-0.09911750257015228,-0.9903876185417175,-0.22264130413532257,-0.9434470534324646,-0.9229246973991394,29.59819221496582,-12.156399726867676,39.2193489074707,0
36,359785,-0.049766361713409424,0.030700625851750374,-1.0045132637023926,1.001725435256958,0.999918520450592,0.3975766897201538,28.324138641357422,-10.90192699432373,39.76984786987305,0
37,370189,-0.020313052460551262,-0.01973944529891014,-1.0083973407745361,-0.32014551758766174,-0.14849188923835754,0.09388820081949234,30.13527488708496,-12.883403778076172,39.25200271606445,0
38,380016,-0.03515610471367836,0.014112529344856739,-1.0143791437149048,-0.05792230740189552,-0.1519659459590912,-0.7581737637519836,29.86984634399414,-10.444124221801758,41.01663589477539,0
39,390019,-0.06072887405753136,0.0016365075716748834,-1.0008316040039062,-0.24750730395317078,0.26049095392227173,-0.37644726037979126,30.838212966918945,-7.29527473449707,38.19612503051758,0
40,400276,-0.013805368915200233,-0.04428397864103317,-0.967980146408081,-0.26606523990631104,0.11172769218683243,-0.1211095005273819,32.08173751831055,-9.422789573669434,40.04982376098633,0
41,409964,-0.0795239508152008,0.047389641404151917,-0.9932693839073181,0.11759354174137115,-0.11272907257080078,-0.11713770776987076,30.824071884155273,-9.663171768188477,40.22539138793945,0
42,420031,-0.004379493184387684,0.014169691130518913,-1.0071369409561157,0.22055110335350037,0.18883952498435974,-0.0979759618639946,29.17573356628418,-10.680399894714355,38.37153244018555,0
43,430005,0.06499041616916656,-0.0903279259800911,-1.023823618888855,-0.009467578493058681,-0.8385146856307983,0.1912005990743637,31.339488983154297,-9.89006519317627,39.23317337036133,0
44,440224,0.006122149992734194,0.010513251647353172,-1.000886082649231,0.11503220349550247,0.2291014939546585,0.34411078691482544,29.60944175720215,-9.824047088623047,41.007022857666016,0
45,449680,-0.05908995494246483,0.019744297489523888,-1.0148372650146484,1.664513111114502,-0.4952321946620941,0.5546303391456604,27.722719192504883,-9.364178657531738,38.801780700683594,0
46,459967,0.031881701201200485,-0.03260094299912453,-0.9973955750465393,-0.3976113796234131,-0.6710803508758545,-0.2585079073905945,30.35394859313965,-7.996678352355957,41.09313201904297,0
47,470153,-0.03355766087770462,-0.060263652354478836,-0.952250063419342,-0.14494651556015015,-0.6599862575531006,0.0647631362080574,29.223936080932617,-9.444613456726074,40.43708801269531,0
48,479850,-0.10429640859365463,0.0018578814342617989,-1.026898741722107,0.7208291292190552,0.3108673095703125,0.8803529143333435,30.802549362182617,-9.941756248474121,41.864776611328125,0
49,489824,0.0426485538482666,0.05421943962574005,-0.9905619621276855,0.30648383498191833,-0.05668434873223305,-0.20096340775489807,28.40207290649414,-9.775821685791016,40.013916015625,0
50,500013,-0.06656523793935776,0.021769577637314796,-0.9870713353157043,1.2368252277374268,0.46566781401634216,-0.19411620497703552,30.338518142700195,-10.266802787780762,39.45491027832031,0
51,509991,-0.12122635543346405,-0.07055357843637466,-0.9942087531089783,0.031039757654070854,-0.2490307241678238,0.4195221960544586,28.2940673828125,-12.312029838562012,40.92586898803711,0
52,519839,0.00320367026142776,-0.03669040650129318,-1.0150114297866821,0.42741379141807556,-0.8537538051605225,0.05084886774420738,28.90816879272461,-9.930490493774414,39.25228500366211,0
53,530280,-0.019757278263568878,-0.07685621827840805,-1.001269817352295,-0.2826295793056488,-0.24347659945487976,0.6291628479957581,29.685840606689453,-10.823644638061523,37.985260009765625,0
54,540026,-0.07649438828229904,-0.046851810067892075,-0.9743323922157288,0.3500339090824127,-0.48055872321128845,-0.7965343594551086,30.92818260192871,-10.419026374816895,40.454586029052734,0
55,549945,-0.008674834854900837,-0.0639759749174118,-0.9779341816902161,0.31490951776504517,0.5812758207321167,-0.8386571407318115,29.889232635498047,-9.500959396362305,40.0526123046875,0
56,560116,-0.022802390158176422,-0.06424780189990997,-0.9813276529312134,-0.269497275352478,-0.20398344099521637,-0.19836601614952087,29.040760040283203,-9.357843399047852,40.49711608886719,0
57,570013,-0.002429504878818989,-0.03238742798566818,-0.9731177091598511,-0.075698621571064,-0.4593508839607239,-0.23391397297382355,31.569013595581055,-9.093541145324707,38.76802062988281,0
58,579910,-0.021653881296515465,0.05569331720471382,-0.9773852825164795,-0.13196104764938354,-0.07928349822759628,0.9277216792106628,29.99782943725586,-11.75300407409668,40.02305603027344,0
59,589937,0.10339130461215973,0.0002158235729439184,-1.024025321006775,0.22528806328773499,-1.2681230306625366,-0.916590690612793,31.77241325378418,-10.144769668579102,39.80537414550781,0
60,599849,-0.03160819411277771,0.03788083419203758,-1.0092825889587402,-0.14902552962303162,-0.018046151846647263,-0.03375702351331711,29.00174903869629,-10.089790344238281,39.66037368774414,0
61,609971,0.06186113879084587,0.049346018582582474,-1.012768268585205,0.9439002871513367,0.12583394348621368,0.578477680683136,28.213134765625,-10.806161880493164,41.134185791015625,0
62,620059,0.03993677720427513,0.07789944857358932,-1.0377254486083984,0.7434564232826233,-0.3366398215293884,-0.25717276334762573,32.14290237426758,-8.307377815246582,40.633445739746094,0
63,629689,-0.08544693142175674,-0.006096994038671255,-0.9531951546669006,-0.25258970260620117,0.8398663997650146,-0.25225791335105896,29.005704879760742,-9.421557426452637,38.64633560180664,0
64,639891,-0.029420258477330208,0.0095992935821414,-0.9548481106758118,-0.18032436072826385,-0.051126133650541306,-0.2556230425834656,29.11651611328125,-7.937488555908203,39.60712432861328,0
65,649739,-0.030972151085734367,0.02042500302195549,-1.0056215524673462,-0.38780707120895386,-1.0717568397521973,-0.9638416171073914,30.409446716308594,-11.326545715332031,40.319358825683594,0
66,659754,0.013654550537467003,0.06517841666936874,-0.9919518828392029,0.25578969717025757,-0.18861018121242523,-0.24027127027511597,30.024658203125,-9.690085411071777,40.21118927001953,0
67,669942,0.022642632946372032,-0.08631300926208496,-1.016461968421936,-0.5190728306770325,-0.0608198344707489,0.44704702496528625,29.00484275817871,-10.242119789123535,41.00663375854492,0
68,680079,0.0184358861297369,0.04768165946006775,-0.9979267716407776,-0.4213482439517975,0.6985059976577759,-0.2369021624326706,29.36187744140625,-10.686426162719727,40.086273193359375,0
69,690063,-0.11884017288684845,-0.05680139735341072,-1.0017402172088623,-0.24523691833019257,-0.8203845620155334,0.08450008183717728,28.40202522277832,-10.894119262695312,39.26040267944336,0
70,699997,-0.057425063103437424,-0.0758989229798317,-0.9992090463638306,-0.019847214221954346,-0.05433569848537445,0.7970977425575256,31.038572311401367,-9.927613258361816,37.92103958129883,0
71,709902,-0.01609589345753193,-0.005184680689126253,-0.9684783220291138,0.26357996463775635,-0.3826485574245453,-0.35505595803260803,29.326536178588867,-10.091434478759766,40.605140686035156,0
72,720065,-0.025006243959069252,-0.007544335443526506,-1.0259370803833008,0.4442647695541382,0.28443241119384766,-0.10126113146543503,30.017335891723633,-10.312767028808594,40.82693099975586,0
73,730004,-0.06738672405481339,-0.006708558648824692,-1.0227394104003906,-0.3850477337837219,0.7969062328338623,0.5498578548431396,27.539030075073242,-10.492806434631348,39.72517776489258,0
74,740046,0.056684769690036774,0.007599276956170797,-0.9841545224189758,-0.8968034982681274,0.40497827529907227,-0.51964271068573,30.78499984741211,-9.639754295349121,38.73717498779297,0
75,749771,-0.037109021097421646,-0.04357621446251869,-1.0079472064971924,0.6394969820976257,-0.6587652564048767,-0.27949509024620056,28.92576026916504,-10.864237785339355,39.79304122924805,0
76,759805,0.16336576640605927,0.09195543825626373,-0.9996112585067749,1.0933433771133423,-0.3386176824569702,-0.0760713592171669,30.519140243530273,-10.09191608428955,39.1085090637207,0
77,770051,-0.011216233484447002,0.02969464287161827,-1.0193158388137817,0.7044084668159485,0.6100745797157288,-1.2879111766815186,31.729902267456055,-9.49966049194336,39.86458969116211,0
78,779891,-0.017631804570555687,-0.07387419044971466,-1.028800129890442,-0.0827041044831276,0.04671362414956093,0.20511457324028015,28.860742568969727,-10.579442024230957,39.73633575439453,0
79,790031,-0.024583835154771805,0.05911587178707123,-1.026707649230957,0.838005006313324,0.17101125419139862,0.3568074107170105,31.25572395324707,-8.825798988342285,39.2611198425293,0
80,800042,-0.06251873821020126,-0.04657880216836929,-1.0098234415054321,0.519818902015686,-0.18750253319740295,0.1112939789891243,30.382549285888672,-9.864319801330566,40.538230895996094,0
81,810060,0.02016596868634224,0.04097098857164383,-0.9691711068153381,0.8876681327819824,-0.4173973798751831,-0.618690550327301,29.967405319213867,-9.346970558166504,41.12294006347656,0
82,819717,-0.010339727625250816,-0.07968154549598694,-1.024857759475708,0.05693148076534271,0.8959302306175232,0.27546849846839905,31.060190200805664,-9.679250717163086,39.826629638671875,0
83,830144,0.07829605787992477,-0.041728124022483826,-0.9942850470542908,0.08142916858196259,0.14444662630558014,-0.09514147788286209,30.211801528930664,-9.708330154418945,41.94334411621094,0
84,839770,0.04935324937105179,-0.00048377839266322553,-0.989996075630188,-0.46624529361724854,-0.4022791385650635,-0.800123393535614,31.471881866455078,-10.449210166931152,39.53418731689453,0
85,850040,-0.0200896468013525,0.009530922397971153,-0.9759739637374878,-0.03180025890469551,-0.1464616358280182,-0.20157909393310547,27.77644157409668,-11.451866149902344,39.82792663574219,0
86,860160,-0.019180018454790115,0.030106643214821815,-1.0102311372756958,0.25788915157318115,0.6441910862922668,0.443276971578598,30.177526473999023,-10.215091705322266,40.36722946166992,0
87,869933,-0.025557061657309532,-0.017656592652201653,-1.001718521118164,-0.966257631778717,0.4333730936050415,1.1044983863830566,31.133800506591797,-9.957014083862305,39.53616714477539,0
88,879811,-0.00033989589428529143,-0.13149243593215942,-0.9861229658126831,0.47825101017951965,-0.15447111427783966,-0.06902379542589188,31.075769424438477,-11.260860443115234,39.00416564941406,0
89,890191,-0.022129647433757782,-0.04998212307691574,-0.9888574481010437,0.6574808359146118,0.6743098497390747,0.2756243646144867,29.902414321899414,-9.59369945526123,41.54844284057617,0
90,899860,0.03763788938522339,-0.06436002254486084,-1.0189061164855957,0.3125162720680237,0.01308872364461422,0.2071668952703476,30.35138702392578,-10.347896575927734,38.09077453613281,0
91,909799,-0.010042820125818253,0.007130785379558802,-0.9588963985443115,0.38296300172805786,-0.20730827748775482,-0.09574815630912781,30.724689483642578,-12.193521499633789,39.34779357910156,0
92,919804,0.0127948597073555,-0.059676382690668106,-0.9883579611778259,0.5913193225860596,0.07348472625017166,0.2042970359325409,30.5580997467041,-9.972477912902832,38.97810745239258,0
93,929948,0.03622457757592201,0.08211670815944672,-1.0095343589782715,-0.3876025974750519,0.24608777463436127,0.2648391127586365,32.00594711303711,-10.247994422912598,40.38698196411133,0
94,939914,0.05527468025684357,0.06032636761665344,-1.0394845008850098,-0.00016594992484897375,-0.0316421203315258,-0.10099154710769653,29.149028778076172,-9.456297874450684,40.514259338378906,0
95,950192,0.029146211221814156,0.06306106597185135,-0.9923521280288696,0.36889201402664185,0.19614991545677185,0.499777227640152,30.112834930419922,-9.674215316772461,39.58894729614258,0
96,959916,0.04679945856332779,-0.008190133608877659,-1.0185850858688354,-0.148640975356102,-0.5268187522888184,0.43179064989089966,30.749210357666016,-9.136404991149902,39.63079071044922,0
97,970055,0.03930839151144028,-0.0039858147501945496,-1.0205262899398804,-0.5194033980369568,0.29772377014160156,0.22334137558937073,31.144861221313477,-8.882499694824219,39.20398712158203,0
98,980245,0.06045190617442131,0.026581663638353348,-1.0091472864151,0.21275320649147034,-0.33722683787345886,-0.19008603692054749,30.50278091430664,-8.382852554321289,40.79365158081055,0
99,990008,0.044671881943941116,-0.0006799817783758044,-1.0043768882751465,-0.35913756489753723,-0.023900188505649567,0.14842869341373444,31.58014678955078,-12.173452377319336,39.05221939086914,0
100,999979,0.04570451378822327,0.048339348286390305,-0.9857481122016907,-0.057274509221315384,0.5995374321937561,0.4034879207611084,30.16560935974121,-9.140863418579102,37.29119110107422,0
101,1010084,-0.027820978313684464,-0.022878924384713173,-0.9721620678901672,0.29129263758659363,-1.5100525617599487,-0.5351885557174683,29.747243881225586,-9.950227737426758,41.41455078125,0
102,1019913,-0.03374835103750229,-0.005441479850560427,-0.9973419904708862,-0.6665493845939636,-0.19040660560131073,-0.38566818833351135,29.756332397460938,-10.223857879638672,39.60900115966797,0
103,1030053,-0.06954040378332138,-0.018624359741806984,-1.013846516609192,-0.5478519201278687,1.0820118188858032,-0.53653484582901,28.38936996459961,-10.623169898986816,39.762149810791016,0
104,1040013,-0.04375717416405678,0.08642024546861649,-1.0083726644515991,-0.43443989753723145,0.08037907630205154,0.8726064562797546,29.317001342773438,-10.329473495483398,39.765316009521484,0
105,1049927,0.04414220154285431,-0.003223133971914649,-0.9973781108856201,0.549472451210022,0.3548490107059479,0.030831703916192055,30.231651306152344,-9.605607986450195,39.79055404663086,0
106,1060107,0.051709119230508804,-0.054383233189582825,-1.0018830299377441,0.77215176820755,-0.2467271238565445,-0.1744346171617508,32.297298431396484,-8.453766822814941,38.322486877441406,0
107,1070265,0.08018241822719574,-0.03507044538855553,-1.018508791923523,0.5761322975158691,-0.04184851422905922,0.3098622262477875,28.564897537231445,-10.0181884765625,42.99281311035156,0
108,1079963,0.05149173364043236,-0.004999135620892048,-1.0043208599090576,0.45665767788887024,-0.677616536617279,0.297312468290329,30.587472915649414,-9.905325889587402,40.49732971191406,0
109,1090167,0.054615817964076996,-0.034824300557374954,-1.005008339881897,-0.43111711740493774,0.5432305932044983,-0.10170600563287735,29.06906509399414,-8.8229398727417,39.719642639160156,0
110,1100143,-0.008693933486938477,0.11413736641407013,-0.9688836932182312,0.441621333360672,0.04562310874462128,0.5737233757972717,29.97041893005371,-9.922216415405273,41.19389343261719,0
111,1109994,-0.03184432536363602,0.03240469843149185,-0.9944825768470764,-0.15200866758823395,0.010812841355800629,0.05180734768509865,30.46444320678711,-10.929574966430664,38.60111618041992,0
112,1119982,0.035625435411930084,0.06236882507801056,-0.9968811273574829,-0.5324051380157471,0.16800373792648315,0.4005533456802368,29.01922035217285,-9.400474548339844,39.313350677490234,0
113,1130007,0.022574976086616516,-0.03248995915055275,-0.9944311380386353,0.5172851085662842,-0.07028011232614517,0.198441743850708,28.754812240600586,-10.745359420776367,40.9337043762207,0
114,1140022,0.09060145169496536,-0.048406921327114105,-0.9967139363288879,-0.05734093487262726,-0.32087352871894836,0.9241576194763184,28.89356231689453,-9.281600952148438,39.831024169921875,0
115,1150080,-0.0708618313074112,-0.10432350635528564,-1.0146600008010864,0.03294357657432556,-0.5372778177261353,0.2585584223270416,31.05842399597168,-9.387779235839844,38.78144454956055,0
116,1159762,-0.04406806081533432,0.07627511769533157,-0.9913304448127747,0.3159014582633972,0.8699921369552612,0.2685520052909851,29.8023624420166,-10.282500267028809,39.88666915893555,0
117,1169944,0.09603628516197205,-0.0020175427198410034,-1.015583872795105,1.1235911846160889,-0.02595626749098301,-0.01950220763683319,31.088924407958984,-11.671719551086426,40.477272033691406,0
118,1180036,-0.06286916881799698,-0.012692137621343136,-0.966626763343811,0.23553216457366943,-0.9333673715591431,0.8428378105163574,31.285417556762695,-9.884639739990234,39.83408737182617,0
119,1190096,0.07601099461317062,0.11026269197463989,-0.9789549112319946,0.20011115074157715,0.5150285363197327,0.3492230474948883,30.216537475585938,-10.558491706848145,38.60724639892578,0
120,1199848,-0.04660530015826225,0.05189257860183716,-0.9843312501907349,-0.748956024646759,-0.2487572282552719,-0.6132755279541016,29.41729164123535,-11.674957275390625,38.45144271850586,0
121,1210114,0.011090868152678013,0.08090374618768692,-0.9555870294570923,-0.8198138475418091,0.9432189464569092,-0.7345183491706848,31.874601364135742,-11.023119926452637,39.759830474853516,0
122,1220049,0.02475445717573166,-0.0270161721855402,-1.0228649377822876,0.6952512860298157,-0.19627085328102112,0.23747630417346954,30.75191879272461,-9.654146194458008,40.14480972290039,0
123,1230131,0.060273561626672745,-0.01015380583703518,-0.9875109791755676,-0.3100973963737488,0.8019760847091675,-0.16188658773899078,29.37523651123047,-8.58156967163086,38.95413589477539,0
124,1240003,-0.013762050308287144,0.03760592266917229,-0.9879170656204224,-0.5124358534812927,-0.4358290135860443,0.29195311665534973,28.206829071044922,-9.364200592041016,38.904579162597656,0
125,1250246,0.036866627633571625,0.01822061836719513,-0.9927650094032288,0.2585771679878235,-0.12379518151283264,-0.17135870456695557,29.85196876525879,-9.988475799560547,39.96856689453125,0
126,1260008,-0.020534737035632133,0.003347028512507677,-0.9747841358184814,-0.5493855476379395,0.019647974520921707,0.61627596616745,30.7691593170166,-10.993583679199219,39.73859786987305,0
127,1269858,-0.01458958350121975,0.05065229907631874,-0.9896921515464783,-0.3600165545940399,0.8229976296424866,0.2546951174736023,29.18956184387207,-9.207237243652344,39.54200744628906,0
128,1280195,-0.056652504950761795,-0.09417647123336792,-1.0196577310562134,0.6520071625709534,-0.2540697455406189,0.39555197954177856,29.401418685913086,-10.89902400970459,39.92329788208008,0
129,1290291,-0.029328150674700737,0.05975513905286789,-0.994041919708252,0.0790860652923584,-0.2034584879875183,-1.0852054357528687,30.6608829498291,-8.970821380615234,38.94036102294922,0
130,1299949,-0.01524494867771864,-0.03169453144073486,-1.0163668394088745,0.4112398028373718,-0.7694501876831055,0.2668571174144745,30.5550537109375,-8.323573112487793,41.90205383300781,0
131,1310052,-0.018619975075125694,-0.03522355854511261,-1.0088262557983398,0.06527827680110931,0.5463972091674805,-0.49381378293037415,30.431791305541992,-10.61681842803955,40.11870193481445,0
132,1319928,-0.007135240826755762,-0.04851565137505531,-1.0239708423614502,0.6116464138031006,-0.9585607051849365,0.3180480897426605,31.777210235595703,-11.910659790039062,39.10238265991211,0
133,1330154,-0.06773429363965988,0.06288661807775497,-0.9741226434707642,-0.3514796793460846,-0.36106088757514954,-0.02041057124733925,28.97800636291504,-10.690574645996094,41.012001037597656,0
134,1339986,-0.037636756896972656,-0.029670508578419685,-0.9997116923332214,0.3764971196651459,0.29850611090660095,0.18074549734592438,30.19915771484375,-10.745306015014648,40.409828186035156,0
135,1349999,-0.04901597276329994,0.011130512692034245,-1.0023908615112305,-0.30008408427238464,-0.011752051301300526,-0.08418294042348862,30.412839889526367,-9.67306137084961,39.28209686279297,0
136,1359945,-0.025598758831620216,0.008864267729222775,-1.0058473348617554,-0.4373219907283783,-0.19183407723903656,0.45942386984825134,29.28123664855957,-8.532840728759766,39.68539810180664,0
137,1370041,0.030409157276153564,-0.03640342131257057,-1.0229649543762207,0.23558446764945984,-0.11820128560066223,-0.018391842022538185,31.346942901611328,-10.811932563781738,39.261680603027344,0
138,1379875,-0.0966058000922203,-0.04897752404212952,-1.025667428970337,-0.4401290714740753,1.3198360204696655,0.24519453942775726,28.687273025512695,-9.823681831359863,41.664031982421875,0
139,1390102,0.03585299476981163,-0.018737541511654854,-0.9758822917938232,0.1426427662372589,0.9004190564155579,-0.8976461291313171,30.38090705871582,-9.417372703552246,40.764686584472656,0
140,1399990,0.046385232359170914,-0.003496654098853469,-0.9987486600875854,-0.1256731003522873,0.4049532115459442,0.932222843170166,29.12139892578125,-8.981983184814453,39.87419509887695,0
141,1410023,0.020394159480929375,0.06354587525129318,-0.9895454049110413,0.2686406075954437,-0.5068026185035706,-0.24252712726593018,31.441139221191406,-9.941095352172852,41.11478805541992,0
142,1419989,0.04770701006054878,0.04627784341573715,-0.9699073433876038,-0.30868470668792725,-0.10455270856618881,0.5119307637214661,29.516260147094727,-9.25063705444336,39.70883560180664,0
143,1430208,0.012026462703943253,-0.07585763186216354,-0.9808840155601501,0.13556116819381714,0.08419076353311539,0.281948983669281,29.0892391204834,-10.483881950378418,39.73568344116211,0
144,1440100,0.11220051348209381,-0.01341457199305296,-1.0139069557189941,1.0732369422912598,-0.7176663875579834,0.5255568027496338,29.507057189941406,-9.496532440185547,38.38876724243164,0
145,1449832,0.020335180684924126,-0.007904542610049248,-1.0474153757095337,0.3907144069671631,-0.32706066966056824,0.6202225685119629,28.622880935668945,-7.953071117401123,41.987300872802734,0
146,1459957,-0.015469950623810291,0.025952475145459175,-1.006180763244629,1.0059623718261719,-0.09515055269002914,-0.6574631929397583,31.162649154663086,-9.683982849121094,40.58236312866211,0
147,1470064,-0.12329068779945374,-0.09283679723739624,-0.9901571273803711,-0.2401457279920578,-0.17893531918525696,0.5286027193069458,29.966598510742188,-8.9197359085083,41.90088653564453,0
148,1480200,-0.015782587230205536,0.02752790041267872,-0.9729810357093811,0.3934829533100128,0.7463214993476868,0.24966305494308472,30.6735782623291,-7.706040859222412,38.34028244018555,0
149,1490021,0.0006530602695420384,0.029232937842607498,-0.9965999722480774,0.5461748838424683,-0.7206223607063293,0.14600017666816711,31.96044921875,-11.027788162231445,38.99077224731445,0
150,1499972,0.0054687680676579475,0.004068426787853241,-1.0254096984863281,0.41022345423698425,-0.07000071555376053,-0.4062170088291168,29.142051696777344,-11.516463279724121,39.47050476074219,0
151,1509824,-0.0007821166655048728,-0.08165224641561508,-0.972643256187439,0.6611942052841187,-0.33193913102149963,-0.06704586744308472,30.755754470825195,-11.77694320678711,39.666847229003906,0
152,1520027,-0.012397706508636475,0.04570162668824196,-0.9810886979103088,-0.508394718170166,0.27876704931259155,-0.07023925334215164,29.837909698486328,-8.535158157348633,38.44763946533203,0
153,1530109,0.10296866297721863,0.0458269864320755,-0.990502655506134,0.08482471853494644,-0.005007893778383732,-0.19157186150550842,30.64190673828125,-11.928825378417969,39.742164611816406,0
154,1539826,-0.08863534033298492,0.0014568642945960164,-0.980728030204773,0.0015658038901165128,0.006611472461372614,-0.4827480614185333,31.09391975402832,-10.650202751159668,39.51850891113281,0
155,1550313,0.09605149924755096,0.0253823921084404,-1.0008666515350342,-0.48078441619873047,-0.975400447845459,-0.41427281498908997,28.648767471313477,-9.40050983428955,41.07366943359375,0
156,1560005,0.038111813366413116,-0.030360866338014603,-0.9845886826515198,0.2461509108543396,0.24023309350013733,-0.196748748421669,30.732580184936523,-10.294794082641602,39.78205871582031,0
157,1570001,0.0014722738415002823,0.04112431779503822,-1.0369867086410522,-0.5366549491882324,-0.49601903557777405,-0.3888392746448517,30.483638763427734,-11.365930557250977,40.408416748046875,0
158,1580054,0.00957630667835474,0.03133711963891983,-1.0193877220153809,0.5218349099159241,0.8985032439231873,-0.16538096964359283,30.572721481323242,-10.051265716552734,38.70063781738281,0
159,1589963,-0.05699304863810539,0.08715295791625977,-0.9944380521774292,-0.48071858286857605,0.11504322290420532,-1.0034514665603638,30.50994110107422,-9.3317289352417,39.843040466308594,0
160,1599918,0.03322254493832588,0.06303579360246658,-1.025831699371338,0.430970162153244,-0.6244130730628967,-0.30671900510787964,29.6533203125,-10.203804969787598,40.608604431152344,0
161,1609967,0.09444200992584229,0.038044705986976624,-1.0078883171081543,0.9052901864051819,0.5346697568893433,0.24776999652385712,30.048416137695312,-11.410571098327637,40.292198181152344,0
162,1620165,-0.06203344464302063,0.03243592381477356,-0.9963833689689636,-0.08947272598743439,0.3764558732509613,-0.17982971668243408,31.707767486572266,-9.741726875305176,38.461814880371094,0
163,1630082,-0.017286380752921104,0.015457572415471077,-1.0102648735046387,-0.1035669669508934,-0.06309423595666885,-0.6785957217216492,30.132726669311523,-9.494831085205078,39.18855285644531,0
164,1639997,-0.027165737003087997,-0.08826993405818939,-1.0109350681304932,0.02232668362557888,0.009796041995286942,0.43547654151916504,29.493606567382812,-9.250031471252441,41.50346755981445,0
165,1649699,9.44518978940323e-05,0.029831692576408386,-0.9696459770202637,-0.7637261748313904,-0.14551463723182678,0.24163436889648438,29.542240142822266,-9.085087776184082,38.36671447753906,0
166,1660102,0.058402515947818756,0.03507772833108902,-0.9744933247566223,0.20194536447525024,0.3216239809989929,0.050878506153821945,29.167131423950195,-11.897400856018066,38.10622787475586,0
167,1669976,-0.038899555802345276,0.0156698115170002,-0.9980530142784119,-0.22463569045066833,0.09631963819265366,0.12060138583183289,29.821121215820312,-10.599589347839355,39.2516975402832,0
168,1679707,0.023206591606140137,0.02416878566145897,-0.9884573817253113,-0.156087726354599,-0.6034013628959656,-0.9103686809539795,30.78925132751465,-11.244402885437012,38.04405975341797,0
169,1689805,0.004367267247289419,-0.05403439700603485,-1.0206429958343506,-0.8666068911552429,-0.3575443923473358,0.21815718710422516,32.12648391723633,-9.020988464355469,41.774898529052734,0
170,1700274,-0.011582107283174992,0.05053044483065605,-0.9954090714454651,0.6339015364646912,0.09067152440547943,-0.9676448106765747,30.682064056396484,-9.879557609558105,38.98184585571289,0
171,1710035,-0.0297720804810524,0.03741716593503952,-1.0205641984939575,0.5534086227416992,-0.1286388486623764,0.7752612829208374,29.513044357299805,-9.763290405273438,39.507225036621094,0
172,1719800,0.016884734854102135,0.0032739785965532064,-1.0048675537109375,0.5008875131607056,0.3132132291793823,-0.2158062905073166,30.453170776367188,-9.509474754333496,40.42509841918945,0
173,1729811,0.048879481852054596,-0.05705617740750313,-0.993174135684967,0.4678446650505066,0.11586688458919525,-0.2967246174812317,28.865020751953125,-10.649063110351562,41.05363845825195,0
174,1739797,0.07370554655790329,0.051629237830638885,-1.0238566398620605,-0.47765201330184937,-0.0696304589509964,-0.5888762474060059,29.470476150512695,-9.072507858276367,38.803104400634766,0
175,1749830,0.06846562772989273,-0.07615134865045547,-0.9987350106239319,-0.2499929815530777,0.30188843607902527,0.3160710036754608,30.961135864257812,-9.67370319366455,41.468299865722656,0
176,1760004,-0.019605297595262527,-0.02113962732255459,-0.9943212866783142,-0.19983302056789398,0.7131037712097168,0.6763839721679688,28.615652084350586,-12.02701187133789,40.5004768371582,0
177,1770133,-0.07509788125753403,0.03791066259145737,-0.985378086566925,0.17068764567375183,0.12152256071567535,-0.4753755033016205,27.92583465576172,-10.887002944946289,39.74729919433594,0
178,1780002,0.03286389261484146,0.039865151047706604,-1.0128780603408813,0.05749541521072388,0.28416213393211365,-0.4771232306957245,29.806396484375,-9.209006309509277,40.75167465209961,0
179,1789827,-0.09750531613826752,-0.027928555384278297,-1.0007195472717285,-0.0696273073554039,0.12829910218715668,-0.6771897077560425,29.823278427124023,-8.883573532104492,39.67075729370117,0
180,1800250,0.05888142064213753,0.015903277322649956,-1.0117655992507935,-0.849419355392456,-0.20052576065063477,-0.22171169519424438,29.788633346557617,-8.545501708984375,39.16504669189453,0
181,1810013,-0.05089125037193298,-0.06760389357805252,-1.0094325542449951,1.1615815162658691,-0.4541062116622925,-0.2777094841003418,29.561969757080078,-9.421826362609863,38.356971740722656,0
182,1820213,-0.06823375076055527,0.061279430985450745,-1.002492904663086,-0.10181207209825516,1.861198902130127,0.16172096133232117,30.175085067749023,-8.138823509216309,39.285396575927734,0
183,1830073,-0.020637737587094307,0.05898859351873398,-1.0209403038024902,0.740807056427002,0.6245648860931396,0.6228788495063782,30.364118576049805,-10.193860054016113,40.94028854370117,0
184,1839992,0.06182866916060448,0.06457280367612839,-0.9913095235824585,0.5374189615249634,0.0009857567492872477,-0.6334372162818909,32.04112243652344,-10.616813659667969,40.72221755981445,0
185,1850076,-0.11027970165014267,0.029864463955163956,-1.0095717906951904,0.1027955412864685,-0.7182684540748596,-0.06987890601158142,32.20156478881836,-10.051016807556152,38.266998291015625,0
186,1859778,0.0010845968499779701,0.024550100788474083,-1.0138579607009888,-0.32859620451927185,-0.5211755633354187,0.2435159683227539,27.0634765625,-10.982089042663574,38.83745193481445,0
187,1869882,0.020070739090442657,-0.03954559192061424,-1.0254913568496704,-0.2952079474925995,-0.03196416422724724,-0.44531798362731934,30.2031307220459,-10.64566707611084,39.326969146728516,0
188,1879940,-0.02144976146519184,0.034687358886003494,-1.0036771297454834,-0.30194711685180664,-0.6288583278656006,-0.2567480504512787,30.568687438964844,-10.528127670288086,39.13669204711914,0
189,1890149,-0.05232337862253189,-0.06618233025074005,-0.9846834540367126,0.7496347427368164,-0.32899442315101624,-0.5787497162818909,30.230085372924805,-10.503754615783691,40.021217346191406,0
190,1900012,0.0127034280449152,-0.03128347918391228,-0.9805174469947815,0.10832446068525314,0.057797353714704514,0.1926628202199936,29.943212509155273,-11.371500015258789,39.777530670166016,0
191,1909865,-0.015484417788684368,0.021885082125663757,-1.0167640447616577,-0.6936624050140381,-1.0475125312805176,-0.34876886010169983,30.83066749572754,-9.72593879699707,39.49354553222656,0
192,1920083,0.010245244018733501,0.03261515125632286,-0.9775320291519165,-0.2562546133995056,0.21439114212989807,-0.3396696448326111,28.96591567993164,-10.307317733764648,40.13516616821289,0
193,1929881,-0.0009877713164314628,0.0701281875371933,-1.0170934200286865,-0.2293766885995865,0.07059324532747269,-0.38568371534347534,30.198631286621094,-10.136280059814453,38.30318832397461,0
194,1939951,0.02073698118329048,-0.022237086668610573,-1.0162431001663208,0.313709020614624,0.015134800225496292,1.2142592668533325,30.110031127929688,-11.250303268432617,41.490692138671875,0
195,1949954,0.04244956001639366,-0.012481385841965675,-0.9878395199775696,-0.47496217489242554,-0.38608235120773315,-0.33238086104393005,32.40482711791992,-9.739239692687988,40.258968353271484,0
196,1960046,0.05681576207280159,0.08356575667858124,-0.9881060123443604,-0.6255084872245789,0.26809731125831604,0.04428746551275253,30.347997665405273,-8.738884925842285,40.4666748046875,0
197,1969955,0.04621046409010887,0.07281763106584549,-0.9767507910728455,-0.8379806280136108,0.1909104436635971,0.36802589893341064,31.149139404296875,-9.714067459106445,40.77588653564453,0
198,1979831,0.03477539122104645,-0.05025867745280266,-0.9891009330749512,0.8404868841171265,0.2204669564962387,0.41650575399398804,29.58548927307129,-10.138924598693848,40.21328353881836,0
199,1989928,0.04833928495645523,-0.03971593454480171,-0.9971334934234619,-0.4697556793689728,0.3459955155849457,0.0920281931757927,30.885013580322266,-10.859004974365234,39.630985260009766,0
200,1999837,0.04850110411643982,-0.06160788983106613,-0.9946171641349792,0.21675357222557068,-0.10265898704528809,0.8486301302909851,29.268024444580078,-9.345381736755371,41.47063446044922,0
201,2010060,-0.07616453617811203,0.07211999595165253,-0.9762696623802185,-0.38419049978256226,0.36879217624664307,-0.16646869480609894,29.765396118164062,-9.193641662597656,40.469337463378906,0
202,2019699,-0.02992670238018036,0.042223457247018814,-1.0016049146652222,-0.024961695075035095,-0.1695311814546585,0.24578453600406647,29.987548828125,-11.242033958435059,39.48020935058594,0
203,2030276,0.03981447592377663,-0.019228165969252586,-0.9889501333236694,-0.20880205929279327,0.1891922950744629,-0.14956969022750854,30.293352127075195,-10.897381782531738,39.98876953125,0
204,2040315,0.10556645691394806,0.041105374693870544,-1.027559518814087,-0.0696299597620964,-0.24752312898635864,-0.6868804693222046,29.57816505432129,-10.029961585998535,38.17579650878906,0
205,2050093,-0.03655754029750824,0.016050714999437332,-1.0182178020477295,-0.14640100300312042,-0.357778400182724,0.6004440188407898,28.342824935913086,-8.728544235229492,40.2092170715332,0
206,2060188,0.028810055926442146,0.03239080309867859,-1.0174604654312134,0.7356783747673035,0.1424666941165924,-0.24396498501300812,30.536197662353516,-10.79556655883789,39.51190185546875,0
207,2070000,-0.06843987107276917,-0.013153241947293282,-1.0142650604248047,0.3749909996986389,1.3044254779815674,-0.6991068720817566,31.250137329101562,-11.074504852294922,42.60202407836914,0
208,2080158,0.03043658286333084,0.010015444830060005,-1.0270915031433105,0.5097902417182922,-0.31164100766181946,0.3621498644351959,29.16258430480957,-11.036606788635254,40.646339416503906,0
209,2089867,-0.1077052429318428,0.07088727504014969,-0.994868278503418,-0.5568284392356873,0.3171735107898712,0.18519261479377747,29.608518600463867,-9.402356147766113,39.827003479003906,0
210,2100001,0.06424800306558609,-0.0022990822326391935,-1.0030055046081543,0.48044005036354065,0.0114266537129879,-0.6945550441741943,29.874252319335938,-10.563995361328125,39.067481994628906,0
211,2110092,0.025540538132190704,0.01604859158396721,-0.9777500033378601,-0.36308684945106506,0.052422646433115005,-0.05877866968512535,32.373905181884766,-8.613028526306152,39.6339225769043,0
212,2120169,0.023593446239829063,-0.012762300670146942,-0.986529529094696,-0.8664029240608215,0.08381638675928116,0.5492547750473022,29.752531051635742,-8.714776992797852,39.760982513427734,0
213,2130123,0.02781468816101551,0.025404127314686775,-0.9733788967132568,-0.7906715273857117,0.5525063872337341,-0.7717819213867188,31.597261428833008,-10.875662803649902,39.164154052734375,0
214,2139911,0.04556167870759964,0.032620564103126526,-0.988243043422699,0.5173187851905823,-0.027890492230653763,0.03449436277151108,30.23706817626953,-9.931136131286621,39.62065124511719,0
215,2150238,-0.027640357613563538,0.06416112929582596,-1.0064812898635864,0.26112067699432373,0.004359027836471796,0.628502368927002,30.128700256347656,-10.238192558288574,38.31050109863281,0
216,2159949,0.015946686267852783,-0.07707963138818741,-1.0166531801223755,-0.9579458236694336,-0.324955016374588,0.3010657727718353,29.966596603393555,-10.866400718688965,41.731319427490234,0
217,2170167,-0.02370383031666279,0.013237640261650085,-1.0378659963607788,0.5673808455467224,-0.3949342370033264,-0.4267526865005493,30.73365592956543,-9.489057540893555,39.240570068359375,0
218,2180057,0.005340596195310354,-0.06374890357255936,-0.9858084917068481,0.3164019286632538,-0.3378159701824188,0.7337090969085693,30.65825843811035,-10.835284233093262,39.80199432373047,0
219,2190133,0.08215557783842087,-0.05047415569424629,-1.0077847242355347,-0.5740693211555481,0.08747503906488419,0.15514221787452698,30.562402725219727,-10.297240257263184,43.17066192626953,0
220,2200056,0.07069166004657745,-0.0021720160730183125,-0.9612036943435669,0.4374610185623169,-0.6426817774772644,0.5293900966644287,31.45059585571289,-9.457043647766113,38.94819259643555,0
221,2210042,-0.0816948264837265,0.06140074506402016,-0.9916977882385254,-0.31341084837913513,0.17717953026294708,0.2113083004951477,30.61161231994629,-9.33170223236084,41.71521759033203,0
222,2219799,0.07117906212806702,0.041262876242399216,-0.9800034165382385,-0.6835901737213135,0.0621708407998085,-1.0486479997634888,29.76389503479004,-9.15986442565918,40.340091705322266,0
223,2230059,0.10961347073316574,-0.0151541568338871,-1.017046332359314,0.5500898361206055,0.16904960572719574,-0.3374858796596527,28.804292678833008,-9.927781105041504,40.03968048095703,0
224,2240131,0.08662593364715576,-0.07797800749540329,-1.025760531425476,-0.21277128159999847,-0.09249869734048843,0.2366200089454651,31.125213623046875,-8.564160346984863,39.11119079589844,0
225,2249980,0.01924636773765087,0.021229585632681847,-0.9775953888893127,-0.6253403425216675,-0.46357864141464233,-0.4224812388420105,30.57335090637207,-8.861499786376953,39.83915328979492,0
226,2259976,-0.017117943614721298,-0.027030404657125473,-1.0403043031692505,0.038867298513650894,-1.090775728225708,0.31812235713005066,30.63410758972168,-7.9620280265808105,39.76059341430664,0
227,2269736,-0.038046322762966156,-0.06537053734064102,-0.9625709652900696,-0.174571231007576,0.08692139387130737,0.3425547480583191,30.753149032592773,-10.006667137145996,39.164249420166016,0
228,2279884,-0.002189137740060687,-0.016038572415709496,-0.99433434009552,0.7324530482292175,-0.8263302445411682,0.44638028740882874,30.200721740722656,-10.170770645141602,38.610713958740234,0
229,2289939,0.05973390117287636,0.004266245290637016,-1.0293021202087402,0.28159409761428833,0.28799116611480713,0.12650345265865326,30.0084285736084,-10.748697280883789,40.71875,0
230,2300084,0.05716237053275108,0.006402714177966118,-0.9924618601799011,-0.6461752653121948,0.07989290356636047,-0.31122270226478577,28.728443145751953,-11.357072830200195,41.48881912231445,0
231,2309925,0.02796337753534317,-0.00018961129535455257,-0.9947407841682434,0.22167134284973145,0.7742271423339844,-0.1670379936695099,30.156917572021484,-9.954986572265625,40.394859313964844,0
232,2319836,-0.057218287140131,0.005684893112629652,-1.019579291343689,0.33456405997276306,0.7211715579032898,0.9953534603118896,29.065505981445312,-10.747368812561035,40.75052261352539,0
233,2329743,-0.05574140325188637,0.011261575855314732,-0.9869688153266907,0.13533537089824677,-0.49882441759109497,0.45144030451774597,28.063270568847656,-9.69260311126709,39.74092483520508,0
234,2340007,0.06326427310705185,0.01237424649298191,-1.0160268545150757,0.03054777905344963,0.1726035326719284,-0.061797164380550385,29.314769744873047,-8.392606735229492,40.018795013427734,0
235,2350010,-0.04572582244873047,0.00935343187302351,-0.9938610196113586,0.11763644963502884,0.24773447215557098,0.16651517152786255,31.039844512939453,-11.37743854522705,38.86757278442383,0
236,2359915,-0.11289149522781372,0.041591156274080276,-1.0028293132781982,-0.30185091495513916,0.3342210054397583,-0.05681615322828293,30.596799850463867,-10.886200904846191,40.94102096557617,0
237,2370006,-0.05202922970056534,0.022088779136538506,-1.0346606969833374,-0.6010468602180481,0.0803072601556778,0.3693358302116394,30.488365173339844,-9.132501602172852,38.28571701049805,0
238,2379909,-0.03680194169282913,-0.02412399835884571,-0.9805101752281189,0.6343479752540588,-0.7624731063842773,-0.4488951861858368,31.138904571533203,-10.451927185058594,39.38207244873047,0
239,2390106,-0.006637267768383026,0.014093977399170399,-0.9937342405319214,-0.377390056848526,0.05038469657301903,0.6585311889648438,30.417999267578125,-9.847959518432617,40.3374137878418,0
240,2400080,0.006909869145601988,0.020941730588674545,-0.9926537275314331,0.16887199878692627,0.13524316251277924,-0.03825923055410385,30.522581100463867,-8.12796688079834,39.4421272277832,0
241,2410064,-0.1191493570804596,0.015721840783953667,-0.9932370781898499,-0.867311418056488,-0.44476979970932007,-0.6079347729682922,31.31119155883789,-8.798490524291992,40.18848419189453,0
242,2420017,0.06361331045627594,-0.05806051194667816,-0.9852285981178284,-0.8253593444824219,-0.4308378994464874,-0.33021220564842224,29.335243225097656,-9.808247566223145,38.65168762207031,0
243,2429892,0.046236637979745865,0.002981508383527398,-1.02785062789917,0.568361222743988,-0.9037851095199585,0.7948663234710693,30.994611740112305,-9.572532653808594,38.82632064819336,0
244,2439846,0.07843922078609467,-0.017161523923277855,-1.0057348012924194,0.5704287886619568,-0.21659868955612183,0.40983977913856506,29.03821563720703,-10.048444747924805,38.479957580566406,0
245,2450036,0.035705938935279846,-0.034008514136075974,-0.977989673614502,-0.6910211443901062,-0.43435201048851013,-0.027758440002799034,28.74472427368164,-10.538052558898926,39.658382415771484,0
246,2460143,-0.08201339840888977,-0.05119266360998154,-0.9877914786338806,-0.06739801168441772,-0.016483062878251076,-0.012226060032844543,30.423341751098633,-9.569904327392578,39.2216682434082,0
247,2470005,0.010667813010513783,0.014766030944883823,-0.9489411115646362,0.09265312552452087,-1.06680166721344,-0.7243029475212097,30.392358779907227,-10.418010711669922,38.96391296386719,0
248,2480097,0.11348669975996017,0.0006553017883561552,-1.0197805166244507,-0.5465467572212219,-0.44742172956466675,-0.0753072053194046,30.52721405029297,-10.243887901306152,39.96052551269531,0
249,2489993,0.0018456961261108518,0.02163666859269142,-1.001599907875061,-0.09436716139316559,-0.6252138018608093,-0.03571983054280281,31.35133934020996,-10.193113327026367,41.801719665527344,0
250,2499717,-0.0518127903342247,-0.041928958147764206,-1.0391883850097656,0.1514512002468109,-0.3179181218147278,0.25186461210250854,30.670475006103516,-9.419624328613281,41.140235900878906,0
251,2510042,-0.04528824985027313,0.0114151481539011,-1.045683741569519,4.870598786510527e-05,0.5888780355453491,-0.13014113903045654,29.641963958740234,-8.838642120361328,40.47280502319336,0
252,2520041,-0.0535973496735096,0.07520714402198792,-0.9606857895851135,0.06419073045253754,0.3695439398288727,0.5655726790428162,31.521461486816406,-11.470417022705078,40.76914596557617,0
253,2529801,0.04217751324176788,0.00885955523699522,-1.0135681629180908,0.6050593256950378,-0.4028279185295105,-0.5257584452629089,29.328868865966797,-11.007511138916016,41.320377349853516,0
254,2540027,-0.014214545488357544,0.10458320379257202,-0.9792500734329224,-0.04181789234280586,-0.452219158411026,-0.5196086764335632,31.32966423034668,-11.447988510131836,40.95347213745117,0
255,2550197,0.09418012946844101,-0.014452125877141953,-1.034958004951477,0.48381713032722473,-0.544475257396698,-0.4153495728969574,30.4351749420166,-9.63178825378418,38.452239990234375,0
256,2559810,0.012339053675532341,0.015047074295580387,-0.9735128283500671,0.10850168764591217,-0.7019627690315247,-0.17716529965400696,30.019088745117188,-10.895474433898926,40.51152420043945,0
257,2569975,0.044131577014923096,0.0007431216654367745,-1.0124486684799194,-0.057031892240047455,0.1818603128194809,-0.027921847999095917,30.902240753173828,-10.252161026000977,40.76682662963867,0
258,2579828,0.01864882931113243,0.00914943590760231,-0.9811136722564697,-0.4819723963737488,0.490262508392334,0.300000935792923,29.010133743286133,-8.718134880065918,39.53000259399414,0
259,2589668,0.07815384864807129,0.021715523675084114,-0.9972766637802124,0.13903038203716278,0.6611572504043579,0.5537740588188171,29.641021728515625,-9.618473052978516,41.07157897949219,0
260,2599830,0.08506866544485092,-0.030434133484959602,-1.0148521661758423,-0.05442202091217041,0.05864425003528595,-0.11777021735906601,29.283781051635742,-10.247512817382812,40.37627410888672,0
261,2609888,-0.07118389755487442,-0.04815872758626938,-0.9980847239494324,0.05695974826812744,0.055028825998306274,-0.4224175214767456,30.029003143310547,-8.89256763458252,40.87855911254883,0
262,2620162,0.018248600885272026,0.04083205386996269,-1.0349668264389038,0.30995383858680725,1.1449611186981201,0.3950987160205841,29.795738220214844,-10.235772132873535,40.060150146484375,0
263,2629894,0.060351643711328506,-0.03056127391755581,-1.012182354927063,-0.5090458393096924,0.47492849826812744,-0.061248600482940674,28.502660751342773,-9.480863571166992,39.724056243896484,0
264,2640205,0.012088930234313011,0.10745253413915634,-1.0113160610198975,-0.32220929861068726,-0.2609967589378357,0.720805823802948,30.450206756591797,-9.021224021911621,39.74143981933594,0
265,2650193,0.06997782737016678,0.04787811264395714,-1.0028091669082642,-0.4736226201057434,-0.38326969742774963,0.1655644327402115,28.149349212646484,-7.887668609619141,41.16459655761719,0
266,2659994,-0.03447207808494568,-0.014612124301493168,-0.9786064028739929,0.21477475762367249,-0.34168118238449097,0.752647876739502,32.5242919921875,-9.275390625,39.74531173706055,0
267,2669926,0.0024311887100338936,-0.051567792892456055,-0.9889459609985352,-0.4902104139328003,-0.7443354725837708,0.07469639927148819,29.216815948486328,-9.300552368164062,39.60551834106445,0
268,2679906,0.07288600504398346,0.10853858292102814,-0.9772366285324097,0.39414137601852417,-0.4021094739437103,0.2138381451368332,29.653867721557617,-9.886598587036133,40.74649429321289,0
269,2690136,-0.06535505503416061,0.1225903257727623,-0.9827161431312561,-0.008546635508537292,-0.25104543566703796,0.17278501391410828,30.538766860961914,-9.507122039794922,40.70640563964844,0
270,2699897,-0.005016321316361427,0.012433103285729885,-0.9893635511398315,0.003897624323144555,-0.05255746468901634,-0.38333001732826233,26.97906494140625,-9.77003288269043,40.80790328979492,0
271,2710103,0.009680241346359253,-0.05363168194890022,-0.9975110292434692,0.6257646679878235,0.015607740730047226,-0.24673113226890564,29.695497512817383,-12.687215805053711,40.813201904296875,0
272,2720035,-0.027462974190711975,0.03886324539780617,-1.012729287147522,1.092609167098999,0.8320114016532898,0.5630415081977844,29.89385223388672,-8.698205947875977,42.56234359741211,0
273,2730169,0.034882090985774994,0.012129544280469418,-1.019830346107483,0.8081307411193848,0.3971879482269287,-0.17032712697982788,30.692710876464844,-8.502521514892578,39.503421783447266,0
274,2739829,-0.03896985203027725,-0.026437412947416306,-0.9967174530029297,0.8221622705459595,0.05322335660457611,0.10089625418186188,30.655719757080078,-11.031307220458984,40.8288688659668,0
275,2750188,-0.07165465503931046,-0.0519823357462883,-0.9873999357223511,0.35791367292404175,0.25198623538017273,0.8297445774078369,29.011669158935547,-10.488452911376953,40.801055908203125,0
276,2760176,0.016896113753318787,-0.04950464516878128,-0.9917629957199097,-0.3298826813697815,0.5485436916351318,0.4321310222148895,28.471046447753906,-10.175703048706055,41.114585876464844,0
277,2770144,0.015697356313467026,0.0476197823882103,-0.9947351813316345,0.22072754800319672,-0.24612724781036377,0.5117946267127991,30.559814453125,-8.777613639831543,40.7162971496582,0
278,2780049,0.005686132702976465,-0.0010558241046965122,-0.9896602034568787,-0.38763952255249023,-0.008484691381454468,0.5745111107826233,28.776649475097656,-7.022932529449463,41.594879150390625,0
279,2790299,0.010922569781541824,0.03363516926765442,-1.0010883808135986,-0.38053855299949646,0.20517820119857788,-0.5126670598983765,29.380046844482422,-10.147921562194824,38.70654296875,0
280,2799886,0.03050025925040245,-0.019959410652518272,-1.0260182619094849,0.12708473205566406,0.0580868124961853,-0.20474810898303986,31.584218978881836,-8.474279403686523,39.783267974853516,0
281,2809812,-0.07246354222297668,0.07333901524543762,-1.0193166732788086,0.282654345035553,-1.5401170253753662,0.06686282902956009,28.495302200317383,-10.4548978805542,39.86711502075195,0
282,2819894,0.0226097721606493,-0.00858343206346035,-1.0075373649597168,-0.09079064428806305,-0.9180128574371338,-0.1545090526342392,28.16326904296875,-10.214542388916016,38.46942138671875,0
283,2830321,-0.11731784790754318,-0.050842221826314926,-0.9940428733825684,-0.25363820791244507,-0.587626576423645,0.2210768163204193,31.744462966918945,-11.509910583496094,41.58040237426758,0
284,2840070,0.039909347891807556,-0.010965381748974323,-1.0093493461608887,-0.789020299911499,0.28353622555732727,0.7062902450561523,30.88564109802246,-9.875166893005371,40.731258392333984,0
285,2849915,0.004816024098545313,-0.04056018963456154,-1.0116208791732788,1.1260212659835815,-0.462269127368927,-0.4396972060203552,30.741289138793945,-10.501628875732422,39.2338752746582,0
286,2859814,-0.014355538412928581,0.015728138387203217,-1.0044918060302734,0.668143093585968,0.9592689275741577,0.8788815140724182,31.201133728027344,-9.509451866149902,40.225135803222656,0
287,2869704,-0.03559757396578789,0.039025209844112396,-1.016107439994812,-0.26275375485420227,0.12797731161117554,-0.41144201159477234,31.017715454101562,-9.412453651428223,39.599796295166016,0
288,2879985,0.01038084551692009,0.09962981194257736,-1.0018306970596313,-0.09206844866275787,-0.8263925313949585,0.13353313505649567,30.91578483581543,-10.124972343444824,40.65797805786133,0
289,2889898,-0.01974574103951454,-0.08680039644241333,-1.025475025177002,0.5400946140289307,-0.18160203099250793,0.6708676815032959,29.43510627746582,-10.061826705932617,39.16505813598633,0
290,2900016,-0.008032315410673618,0.010279904119670391,-0.9754217863082886,-0.4005320370197296,0.13263358175754547,-0.3595346510410309,29.825681686401367,-8.87136173248291,39.34592056274414,0
291,2910198,-0.06491037458181381,-0.0206453837454319,-0.9873217940330505,-0.19038508832454681,0.810451865196228,0.7991673350334167,29.425949096679688,-10.862564086914062,40.18031311035156,0
292,2919967,-0.04089896380901337,0.013497790321707726,-0.9923451542854309,0.4027537405490875,-0.6012948155403137,0.018109031021595,30.879758834838867,-10.451884269714355,39.99245071411133,0
293,2929946,-0.004914580378681421,-0.028143730014562607,-0.9647642970085144,-0.22904817759990692,-0.0375940315425396,0.1173153892159462,31.516826629638672,-9.711629867553711,40.769287109375,0
294,2940038,0.018111756071448326,-0.043973784893751144,-1.0029540061950684,-0.1290491670370102,-0.4467214345932007,1.4403266906738281,30.7664794921875,-11.307193756103516,38.53157043457031,0
295,2949950,-0.008436506614089012,0.05527976155281067,-1.0040192604064941,0.18699201941490173,0.9246491193771362,0.00047213330981321633,30.210107803344727,-11.643621444702148,40.32465362548828,0
296,2960120,0.02255920320749283,-0.03060762956738472,-1.0022706985473633,0.1388508826494217,0.18458646535873413,0.22363270819187164,29.308347702026367,-9.391498565673828,39.689151763916016,0
297,2970143,0.05729931220412254,0.004228181205689907,-0.9765452742576599,-0.34734416007995605,-0.15056972205638885,-0.13338841497898102,29.152267456054688,-9.769875526428223,39.59467697143555,0
298,2979964,-0.0014595036627724767,-0.08583813905715942,-0.9825058579444885,0.053236741572618484,-0.5438393950462341,0.1727861762046814,30.714693069458008,-9.34089469909668,41.412681579589844,0
299,2990072,-0.02021682634949684,-0.049573466181755066,-0.9729561805725098,-0.3496520519256592,-0.36017680168151855,0.44566914439201355,31.963106155395508,-10.637439727783203,39.161869049072266,0
300,2999926,0.0024579656310379505,-0.026277896016836166,-1.0499992370605469,0.391264408826828,-0.5270776748657227,-1.050502896308899,30.618762969970703,-11.26560115814209,40.98959732055664,0
301,3010174,0.02179798111319542,-0.03835124522447586,-1.0029945373535156,-0.15382108092308044,0.7225307822227478,-0.613100528717041,31.51172637939453,-7.909825801849365,39.520973205566406,0
302,3020139,0.043032217770814896,0.08810518682003021,-1.0240132808685303,0.16158752143383026,0.06881729513406754,0.2717476189136505,31.892839431762695,-7.363347053527832,39.33934783935547,0
303,3030075,-0.0757971853017807,0.030484257265925407,-1.011615514755249,0.2262144237756729,0.195912167429924,-0.25301918387413025,29.78670883178711,-11.217801094055176,39.16386795043945,0
304,3040167,-0.03875702619552612,0.03303160518407822,-1.0193042755126953,0.3036467730998993,0.5849078297615051,-0.291332870721817,30.971660614013672,-9.990439414978027,38.63220977783203,0
305,3050187,-0.05687784031033516,0.012617221102118492,-1.0036972761154175,0.03901969641447067,0.34034085273742676,0.07868857681751251,29.782562255859375,-12.029241561889648,38.1126823425293,0
306,3060041,0.03819284588098526,0.07923435419797897,-1.018992304801941,-0.06975022703409195,-0.36471620202064514,-0.14383234083652496,29.76344871520996,-9.652520179748535,40.16093063354492,0
307,3070121,-0.04912222549319267,0.007958060130476952,-1.0102012157440186,-0.048787541687488556,-0.15460900962352753,-0.8401476740837097,30.06201934814453,-10.123080253601074,41.040645599365234,0
308,3080059,-0.05285234376788139,-0.019399050623178482,-0.9967316389083862,0.22087472677230835,1.1568644046783447,-0.6296783089637756,30.321632385253906,-11.24844741821289,39.96100616455078,0
309,3090055,-0.03868907317519188,-0.03705228492617607,-1.0450875759124756,0.13435135781764984,0.4828794300556183,0.12136783450841904,30.563871383666992,-10.346872329711914,41.44231033325195,0
310,3099851,-0.05045902356505394,0.015313390642404556,-0.9826256632804871,0.11466385424137115,0.8306930661201477,0.8435544371604919,30.09371566772461,-11.903010368347168,39.347599029541016,0
311,3109940,0.003231110516935587,0.030891161412000656,-1.0058220624923706,0.4928933382034302,0.2852749526500702,0.25634336471557617,31.924043655395508,-9.40251636505127,40.2987060546875,0
312,3120063,-0.11876977235078812,-0.08811520785093307,-1.0237606763839722,-1.4609241485595703,-0.19688236713409424,0.696660578250885,29.00255584716797,-8.830503463745117,41.22610092163086,0
313,3129955,0.061438173055648804,-0.09789134562015533,-0.9694130420684814,0.3750538229942322,-0.5570403933525085,0.4997084438800812,29.336687088012695,-8.85509204864502,38.39633560180664,0
314,3140118,0.014059754088521004,-0.1058562695980072,-1.013811707496643,0.052351780235767365,0.6694999933242798,0.05184349790215492,26.937108993530273,-9.68993854522705,39.9010124206543,0
315,3149935,0.018003564327955246,0.0028901819605380297,-1.003272533416748,-0.01776602864265442,-0.840807318687439,-0.1810617446899414,30.89527702331543,-9.63901424407959,40.00215148925781,0
316,3159812,-0.04907320812344551,0.010911872610449791,-1.019491195678711,-0.2758983373641968,0.6276003122329712,0.679924726486206,28.98199462890625,-11.438446044921875,38.172821044921875,0
317,3169801,0.043115805834531784,0.03877810388803482,-1.0405972003936768,-0.4183814227581024,0.20540903508663177,-0.5273825526237488,28.434057235717773,-11.401408195495605,39.39904022216797,0
318,3180196,0.07352162897586823,0.018545320257544518,-1.0160545110702515,-0.2907494306564331,0.048156097531318665,-0.6164113283157349,29.532495498657227,-9.405364036560059,41.79325485229492,0
319,3190079,-0.01683255285024643,-0.03892608359456062,-0.9694132208824158,-0.22251294553279877,-0.3191710114479065,0.061106692999601364,30.996646881103516,-9.476029396057129,38.84782028198242,0
320,3200219,-0.07158616185188293,0.04743010178208351,-1.0125888586044312,0.8861970901489258,-1.0467658042907715,-0.23694449663162231,31.584747314453125,-10.935851097106934,40.46425247192383,0
321,3209828,-0.02163579873740673,-0.04560471698641777,-1.035265564918518,0.7288951873779297,-0.30777859687805176,-0.054708804935216904,29.49502182006836,-12.027498245239258,39.42079162597656,0
322,3220212,-0.01959782838821411,-0.014628002420067787,-1.0042451620101929,0.48969483375549316,-0.0962512195110321,-0.7802712321281433,30.02957534790039,-9.5987548828125,38.66737365722656,0
323,3229776,0.013263150118291378,0.05032939836382866,-1.0106441974639893,-0.15849919617176056,0.6163429021835327,-0.20628862082958221,30.528715133666992,-9.037032127380371,40.81636047363281,0
324,3240128,-0.022500354796648026,0.06591243296861649,-1.0115957260131836,-0.5015766024589539,-0.008832246996462345,0.04638343304395676,30.29642105102539,-9.208587646484375,38.12207794189453,0
325,3249826,0.03271201625466347,-0.08954161405563354,-1.0014764070510864,-0.3272084891796112,-0.33104559779167175,0.42805832624435425,29.37168312072754,-10.964288711547852,40.65513229370117,0
326,3260002,-0.07209320366382599,-0.0421811006963253,-0.9741867780685425,-0.45380404591560364,-0.2867489159107208,-0.39017704129219055,30.917434692382812,-8.34990119934082,38.74517822265625,0
327,3269789,-0.0228604543954134,0.024288484826683998,-1.013631820678711,0.36192798614501953,0.37673839926719666,0.4842803478240967,30.62452507019043,-11.148948669433594,40.16083526611328,0
328,3279813,0.0019240076653659344,-0.03882116451859474,-0.9970747828483582,0.30573558807373047,-0.6025457978248596,0.964371383190155,30.09973907470703,-9.0396146774292,40.620540618896484,0
329,3290047,-0.04080066457390785,0.008194221183657646,-1.0339457988739014,-0.23854325711727142,0.033291369676589966,-0.37385648488998413,30.389245986938477,-12.808876991271973,39.562252044677734,0
330,3299972,0.08838987350463867,0.10187031328678131,-1.0208691358566284,0.13711321353912354,0.09456992894411087,-0.9888036847114563,30.711538314819336,-9.614313125610352,39.816612243652344,0
331,3309928,0.057646192610263824,-0.07329314947128296,-1.0111387968063354,0.38612455129623413,0.8313571214675903,-0.27164289355278015,29.800277709960938,-10.515976905822754,40.15180206298828,0
332,3319701,-0.0569823756814003,-0.04711933061480522,-1.0092500448226929,-0.22162088751792908,0.5829468369483948,1.144049048423767,29.29383087158203,-9.177755355834961,40.34140396118164,0
333,3330164,-0.003074169158935547,-0.049633219838142395,-0.971210241317749,0.08006938546895981,-0.8035011291503906,0.6537353992462158,30.10643768310547,-9.930646896362305,40.49571228027344,0
334,3340307,0.03751661255955696,-0.10727255791425705,-1.023167371749878,0.0008752295398153365,-0.38178274035453796,-0.3946475088596344,29.997209548950195,-10.312886238098145,39.53547668457031,0
335,3349969,-0.05829751864075661,-0.11534802615642548,-0.9912409782409668,-0.0012437080731615424,-0.07640231400728226,0.38654476404190063,29.049406051635742,-10.112367630004883,36.79511260986328,0
336,3359997,-0.028489192947745323,0.10566533356904984,-1.0140339136123657,0.33682897686958313,-0.47468021512031555,0.02461029216647148,30.03860855102539,-11.158023834228516,40.661773681640625,0
337,3369776,-0.003925572615116835,-0.10592036694288254,-0.9612317085266113,0.4866582453250885,-0.6186923384666443,0.04200614243745804,29.99737548828125,-11.316964149475098,40.726890563964844,0
338,3379909,0.08264575898647308,-0.019957417622208595,-1.012266755104065,-0.5775374174118042,0.6638959050178528,-0.08112043142318726,29.996063232421875,-9.9193754196167,40.92631912231445,0
339,3389934,0.0313657782971859,0.01480089034885168,-1.0182514190673828,-0.34098419547080994,-0.06101207807660103,-0.7486708164215088,27.81755828857422,-10.02991771697998,39.7861442565918,0
340,3400205,0.029473118484020233,0.01522757951170206,-0.9857715368270874,-0.42407819628715515,0.2961047291755676,0.2796231508255005,29.573890686035156,-10.663487434387207,38.595584869384766,0
341,3409936,0.05684693530201912,0.007032567169517279,-1.0068809986114502,-0.4045215845108032,-0.3056207001209259,-0.0705157220363617,30.021276473999023,-12.034989356994629,38.44196319580078,0
342,3419978,0.08243652433156967,0.020975183695554733,-0.9892573356628418,0.7113955616950989,0.48116618394851685,0.39289525151252747,28.8105525970459,-10.644209861755371,39.55345153808594,0
343,3429990,0.009442399255931377,-0.059800513088703156,-1.0217498540878296,0.5141649842262268,0.37809833884239197,-0.4190997779369354,29.024526596069336,-9.743921279907227,41.28759765625,0
344,3439840,-0.03540633246302605,-0.025958646088838577,-0.9849216341972351,0.22220379114151,-0.4036080837249756,-0.010735784657299519,28.852285385131836,-9.546932220458984,40.38096618652344,0
345,3450292,0.01064758189022541,-0.0676075890660286,-1.032590389251709,-0.13314451277256012,0.6452118158340454,-0.34096890687942505,32.412864685058594,-10.239391326904297,40.065528869628906,0
346,3460355,0.04224558547139168,0.11013123393058777,-0.9928114414215088,1.042772650718689,1.1513762474060059,0.4680676758289337,29.487998962402344,-10.309396743774414,39.8876953125,0
347,3470054,0.006620245054364204,-0.03597269207239151,-1.0205925703048706,0.6789298057556152,-0.5399227738380432,0.6237996816635132,29.72981834411621,-11.105953216552734,40.86178207397461,0
348,3480040,-0.05746597796678543,0.06408040970563889,-1.002892255783081,-0.44819173216819763,-0.3271842896938324,0.003782241605222225,30.78052520751953,-10.831950187683105,41.18256759643555,0
349,3490006,-0.058934085071086884,0.061055853962898254,-0.9796753525733948,0.7718199491500854,-0.36770880222320557,0.43089884519577026,30.060758590698242,-11.098283767700195,40.644989013671875,0
350,3499703,-0.02775348722934723,-0.011084316298365593,-0.9914211630821228,0.08870043605566025,-0.20794783532619476,-0.5544673800468445,29.878507614135742,-8.718709945678711,42.154319763183594,0
351,3510174,-0.047346968203783035,-0.006547300610691309,-0.9512516856193542,-0.05612129718065262,-0.14709848165512085,0.4405950605869293,30.855175018310547,-11.98072338104248,40.8167610168457,0
352,3520054,0.04897722229361534,0.011111358180642128,-0.9873505234718323,-0.3188667893409729,-0.9135943651199341,-0.2031315267086029,29.201826095581055,-13.017046928405762,40.20089340209961,0
353,3530071,0.03492143005132675,0.07232370972633362,-0.9975793361663818,0.4176000952720642,0.13889607787132263,0.49906763434410095,28.364736557006836,-9.806138038635254,38.96164321899414,0
354,3539986,-0.05939691513776779,-0.034222185611724854,-1.0166988372802734,-0.0353727750480175,0.16453686356544495,-0.26122769713401794,30.043018341064453,-9.0477933883667,40.619224548339844,0
355,3549951,-0.08731406927108765,0.011781604960560799,-1.0231778621673584,-0.30349525809288025,-0.3584180772304535,-0.09420488774776459,30.32923698425293,-11.725345611572266,40.71406173706055,0
356,3560154,-0.05401242524385452,0.0206682737916708,-1.0268553495407104,-0.29191848635673523,-0.30434349179267883,0.27714577317237854,31.27164649963379,-10.357562065124512,39.671775817871094,0
357,3570374,-0.00612253975123167,-0.034692633897066116,-0.9732339978218079,0.44568243622779846,0.04173309728503227,-0.54377681016922,31.584379196166992,-8.539826393127441,39.796302795410156,0
358,3580096,-0.09277369827032089,-0.002262888476252556,-1.013051152229309,0.2678452432155609,-0.02060328610241413,-0.27354031801223755,28.97679328918457,-9.48391056060791,40.30815887451172,0
359,3589770,0.04769623652100563,-0.022405656054615974,-1.0108264684677124,0.7925686240196228,0.39514899253845215,0.03172643855214119,29.077198028564453,-9.427350997924805,39.279117584228516,0
360,3600255,-0.033707037568092346,-0.03613082319498062,-0.9895882606506348,0.3274227976799011,-0.6335954666137695,-0.1734687238931656,28.768028259277344,-10.118226051330566,40.747806549072266,0
361,3610179,-0.017604226246476173,-0.08280491083860397,-1.0180411338806152,0.2087746411561966,0.2022576481103897,-0.6731311678886414,31.866662979125977,-12.60068416595459,39.501922607421875,0
362,3619717,0.15223555266857147,-0.07899034023284912,-0.9947946071624756,-0.55696702003479,-0.018715841695666313,-0.07631527632474899,30.43894386291504,-10.916217803955078,38.35843276977539,0
363,3630232,0.01860884390771389,0.002779989270493388,-0.9785116910934448,-0.37862926721572876,0.07004155218601227,-0.2285807579755783,30.256196975708008,-9.679248809814453,39.66416549682617,0
364,3640054,0.0023430963046848774,-0.03252081200480461,-0.9849202036857605,0.12145788967609406,0.5388840436935425,0.8669939041137695,28.719547271728516,-10.793059349060059,40.42800521850586,0
365,3650209,-0.10944009572267532,0.022814329713582993,-0.9942428469657898,0.01141508761793375,-0.8802388310432434,0.23519150912761688,31.758487701416016,-8.69862174987793,39.16321563720703,0
366,3659803,0.010392834432423115,0.044472016394138336,-1.015323281288147,-0.8350184559822083,-0.7068804502487183,0.4623892605304718,29.90532684326172,-10.094901084899902,40.960506439208984,0
367,3670139,0.03329254686832428,-0.015713859349489212,-1.03291654586792,-0.01513469684869051,0.09884387999773026,0.12935376167297363,30.993297576904297,-11.743060111999512,40.70842742919922,0
368,3680101,0.004944740794599056,-0.02621002309024334,-1.0000532865524292,0.03914596885442734,-1.0064451694488525,0.23233669996261597,30.452800750732422,-10.178939819335938,39.449913024902344,0
369,3690030,-0.06916528195142746,-0.024873174726963043,-0.9985859990119934,-0.11787763237953186,0.39424586296081543,0.43268251419067383,30.018482208251953,-9.106940269470215,41.24642562866211,0
370,3700005,-0.06348427385091782,0.009367713704705238,-1.0040539503097534,0.22523653507232666,0.2910970449447632,0.5553417205810547,28.515607833862305,-9.581043243408203,39.86849594116211,0
371,3710012,0.05081045627593994,-0.011558539234101772,-1.0336376428604126,0.3827775716781616,0.5935176014900208,0.42434051632881165,28.28969383239746,-12.228620529174805,39.464168548583984,0
372,3720102,0.013633297756314278,0.08805356174707413,-1.0160824060440063,0.32823818922042847,0.11316302418708801,0.4378245770931244,29.054716110229492,-10.18560791015625,40.12330627441406,0
373,3729983,-0.015041605569422245,-0.05594085901975632,-1.0029419660568237,0.15400487184524536,0.6040824055671692,-0.4912032186985016,28.34562110900879,-9.205025672912598,41.003143310546875,0
374,3740245,-0.06384726613759995,0.06398280709981918,-0.9876809120178223,0.33227813243865967,-0.16825880110263824,0.4179622530937195,31.932340621948242,-8.723380088806152,39.32628631591797,0
375,3749977,-0.014424613676965237,0.07937631756067276,-0.9725621342658997,-0.35491931438446045,-0.015867061913013458,-0.1337742805480957,28.908615112304688,-10.639009475708008,41.30096435546875,0
376,3760117,0.06461045891046524,0.05401038005948067,-0.9813358187675476,-0.14650563895702362,-0.2386329621076584,0.31621310114860535,30.00712013244629,-10.273794174194336,40.637603759765625,0
377,3770008,0.009294175542891026,-0.04422370716929436,-1.015794038772583,-0.622281551361084,0.4105745553970337,0.5230477452278137,29.121612548828125,-10.240714073181152,38.741085052490234,0
378,3779881,0.032507382333278656,-0.0065458486787974834,-0.9757539629936218,-0.7945496439933777,-0.2128039449453354,-0.3497943580150604,29.571325302124023,-12.606690406799316,42.45196533203125,0
379,3789947,0.03473074361681938,0.07924897223711014,-1.0061720609664917,0.045784011483192444,0.8449361324310303,-0.0716375932097435,30.491756439208984,-8.657882690429688,38.392677307128906,0
380,3800340,0.03549680486321449,0.007122740149497986,-1.0238022804260254,-0.13838820159435272,0.06572739034891129,-0.28052014112472534,31.679914474487305,-8.543973922729492,38.269012451171875,0
381,3810164,-0.06957586854696274,0.017928119748830795,-1.0167018175125122,-0.8430297374725342,-0.8923079371452332,-0.2651061713695526,29.375329971313477,-10.336654663085938,39.967472076416016,0
382,3819898,-0.102523073554039,0.008431417867541313,-1.0207520723342896,0.05737881734967232,-0.6105693578720093,-0.05642859637737274,28.414461135864258,-10.516477584838867,39.636268615722656,0
383,3829970,-0.022849097847938538,-0.008966091088950634,-1.0198874473571777,-0.5809102654457092,0.7830951809883118,-0.15360772609710693,31.275894165039062,-9.10693359375,40.027305603027344,0
384,3839954,0.02380812168121338,-0.05231139063835144,-0.9560691118240356,0.22288918495178223,-0.3818674385547638,-0.7523204684257507,30.65790367126465,-10.676316261291504,39.331146240234375,0
385,3850393,-0.02741522341966629,0.015191067941486835,-1.0108909606933594,0.47222867608070374,-0.12634746730327606,0.3265904486179352,29.349958419799805,-9.886486053466797,38.832862854003906,0
386,3859704,-0.05810493603348732,0.01584523357450962,-0.993472695350647,0.23389969766139984,-0.5472850203514099,0.25092920660972595,29.187358856201172,-9.029168128967285,39.223052978515625,0
387,3869853,0.0037540188059210777,0.014109402894973755,-0.9984912276268005,-0.5814083814620972,-0.48531574010849,-0.7565183639526367,30.650712966918945,-9.703970909118652,40.5117301940918,0
388,3880182,-0.057226866483688354,-0.011889470741152763,-1.004194974899292,0.18600265681743622,0.7063281536102295,0.26460137963294983,29.455055236816406,-9.506749153137207,40.12518310546875,0
389,3890006,0.021888572722673416,-0.018164269626140594,-0.9919130802154541,-0.2948814928531647,0.6206820011138916,-0.200368270277977,29.916454315185547,-9.95180892944336,41.763694763183594,0
390,3899911,-0.036600254476070404,0.09728596359491348,-1.0261316299438477,0.37440595030784607,0.46333083510398865,0.21177712082862854,30.180410385131836,-10.63138198852539,39.26360321044922,0
391,3910097,-0.007167564705014229,0.019316958263516426,-0.9945858120918274,0.7817132472991943,-0.04753929004073143,-0.15245147049427032,32.01700210571289,-12.69682502746582,40.97320556640625,0
392,3919949,-0.007210527081042528,-0.042852189391851425,-1.0146785974502563,0.30769407749176025,-0.18059661984443665,0.04065787047147751,30.4512996673584,-10.17456340789795,38.96462631225586,0
393,3930002,0.08582043647766113,-0.05460050329566002,-0.9940705895423889,0.8440794348716736,0.3519478142261505,0.29051169753074646,28.737321853637695,-9.939332962036133,40.40532302856445,0
394,3939819,-0.04127190262079239,-0.033067330718040466,-0.9915437698364258,-0.6116285920143127,0.4509998857975006,0.5480594038963318,29.940141677856445,-10.416168212890625,41.538047790527344,0
395,3950074,0.09024371206760406,-0.04285188764333725,-0.9870188236236572,0.21493522822856903,-0.24403367936611176,0.28115805983543396,28.831491470336914,-10.708975791931152,39.31195068359375,0
396,3960190,0.0033732536248862743,0.02474193274974823,-0.9924257397651672,-0.07639307528734207,0.4763282835483551,-0.877057671546936,31.342266082763672,-10.268263816833496,39.1679573059082,0
397,3970029,0.09380181133747101,-0.14452970027923584,-1.0267542600631714,0.32311660051345825,-0.12725107371807098,-0.6159121990203857,29.74667739868164,-10.651915550231934,38.58241653442383,0
398,3979981,0.03290601819753647,-0.04251835122704506,-1.009911298751831,-0.8103916645050049,-0.48063012957572937,0.7065490484237671,29.1091251373291,-9.430938720703125,40.684322357177734,0
399,3990093,0.02443588525056839,0.03693171218037605,-0.9983400106430054,-0.28584912419319153,0.8180820345878601,-0.3873874247074127,30.004472732543945,-9.10657787322998,38.009979248046875,0
400,3999893,-0.06335332244634628,0.1399482637643814,-1.0145654678344727,-0.9384043216705322,0.12118422240018845,0.1574811041355133,30.256868362426758,-9.853388786315918,39.66569137573242,0
401,4009971,-0.03415689244866371,-0.04579462856054306,-1.0068509578704834,0.018823716789484024,-1.2607643604278564,-0.026796292513608932,30.494647979736328,-10.782483100891113,41.171138763427734,0
402,4020251,-0.00013038492761552334,-0.05954727530479431,-1.0070782899856567,-0.0070425719022750854,-0.41550421714782715,-0.1021212637424469,30.21998405456543,-10.072391510009766,39.840370178222656,0
403,4030004,-0.026668837293982506,0.05267032980918884,-1.0028997659683228,0.5387774109840393,0.4857988953590393,-0.17848984897136688,29.373708724975586,-7.825564384460449,40.17000961303711,0
404,4040173,-0.043312277644872665,0.04354710504412651,-1.00228750705719,0.5817543268203735,0.6019599437713623,-0.30541127920150757,30.269651412963867,-10.05778694152832,40.33401107788086,0
405,4049914,-0.032647859305143356,0.019379256293177605,-1.0179715156555176,-0.2632025182247162,-0.17144875228405,0.1432504504919052,31.587430953979492,-9.672059059143066,38.884273529052734,0
406,4060292,0.038124240934848785,0.07698793709278107,-0.997257649898529,0.14596277475357056,0.014573492109775543,0.6025934219360352,29.246402740478516,-9.761859893798828,39.75375747680664,0
407,4070211,-0.019885191693902016,0.03809545189142227,-0.9848667979240417,-0.2782866358757019,0.6952316164970398,0.17919863760471344,28.523597717285156,-11.133949279785156,41.010868072509766,0
408,4079927,0.019241027534008026,0.020040981471538544,-0.9969757795333862,-0.12442799657583237,0.16000722348690033,0.4259239137172699,29.119569778442383,-10.511499404907227,40.68681335449219,0
409,4090036,0.07989673316478729,0.040915586054325104,-0.9699981808662415,-0.12988817691802979,-0.2907811999320984,0.3628343641757965,31.364147186279297,-10.800827980041504,40.35443115234375,0
410,4100109,0.05837253853678703,-0.013164740055799484,-1.0040382146835327,-0.15298059582710266,-0.08393465727567673,-0.573489785194397,29.240253448486328,-9.220328330993652,40.87715148925781,0
411,4109960,0.03087005764245987,0.0558900460600853,-0.9533650875091553,0.7434832453727722,0.518714189529419,-0.34612563252449036,31.740955352783203,-11.052884101867676,40.060665130615234,0
412,4120396,-0.05223947390913963,-0.030559659004211426,-1.0216959714889526,0.661077618598938,-0.1712765246629715,-0.3358018100261688,29.009490966796875,-9.205048561096191,41.62848663330078,0
413,4129673,-0.04884735494852066,-0.02631373144686222,-0.9647544622421265,0.099797822535038,0.960959255695343,0.803655207157135,29.48114776611328,-8.950401306152344,39.059288024902344,0
414,4140165,-0.09027416259050369,0.08424790948629379,-1.002040982246399,0.9687114953994751,-0.34154778718948364,0.4382564127445221,30.283063888549805,-8.809748649597168,39.04755401611328,0
415,4150163,-0.036317430436611176,-0.022492801770567894,-0.995039165019989,0.24661068618297577,-0.008765127509832382,-0.5778536796569824,29.28536605834961,-9.559592247009277,39.49383544921875,0
416,4159976,-0.08023049682378769,0.015275290235877037,-1.0085753202438354,-1.0090174674987793,-0.3741718530654907,1.296125888824463,30.563425064086914,-10.079789161682129,39.628273010253906,0
417,4169789,0.07239077240228653,-0.006934372708201408,-0.9952990412712097,-0.07926716655492783,-0.3855431377887726,0.1678185611963272,31.563417434692383,-8.795938491821289,40.859588623046875,0
418,4179837,0.003125673858448863,0.025530915707349777,-0.9907635450363159,-0.2705613374710083,-0.4299618899822235,0.8008628487586975,29.31128692626953,-10.750632286071777,39.45473861694336,0
419,4190157,-0.004955848678946495,-0.01829005964100361,-1.0111212730407715,0.12509317696094513,-0.1959933638572693,0.8739674091339111,30.111814498901367,-11.322747230529785,39.71303939819336,0
420,4199913,0.08485344052314758,0.000526535848621279,-1.0219683647155762,0.4231937527656555,0.06909202039241791,-1.1397756338119507,29.097171783447266,-8.369041442871094,40.63716125488281,0
421,4210024,0.033893901854753494,-0.02651195041835308,-1.0001839399337769,0.31939515471458435,0.6307057738304138,0.13127487897872925,29.596542358398438,-10.690255165100098,38.811492919921875,0
422,4219968,-0.07123568654060364,0.018571587279438972,-0.9760649800300598,-0.054959867149591446,0.5357047915458679,0.012632524594664574,28.587339401245117,-8.76620864868164,41.08770751953125,0
423,4229922,0.015902390703558922,-0.03665779531002045,-1.0100085735321045,-0.262643963098526,-0.9615983963012695,0.7029311656951904,29.076480865478516,-11.70610237121582,39.79548263549805,0
424,4240029,0.07267459481954575,-0.008960220962762833,-1.0213381052017212,-0.3835039436817169,-0.5815004110336304,-0.8384169340133667,29.546960830688477,-10.273476600646973,38.879146575927734,0
425,4249768,-0.06628391146659851,-0.050590880215168,-0.9902058839797974,-0.11822269856929779,0.1268463432788849,-0.046153150498867035,30.074073791503906,-9.309175491333008,40.206695556640625,0
426,4260110,0.0394270196557045,-0.04749014228582382,-1.0026638507843018,0.11073018610477448,0.3037409484386444,-0.5491418838500977,30.48823356628418,-11.27953052520752,41.24897003173828,0
427,4269686,-0.0389828234910965,-0.1056431457400322,-1.0012959241867065,0.32778841257095337,-0.015956459566950798,-0.21334171295166016,31.258819580078125,-10.905426979064941,41.625789642333984,0
428,4279853,-0.05933871120214462,-0.04977491497993469,-1.0083166360855103,-0.9477717876434326,-0.5708611011505127,1.118538737297058,30.661592483520508,-10.191598892211914,40.996604919433594,0
429,4290169,0.06455177813768387,0.17954353988170624,-1.0003639459609985,-0.22246962785720825,0.6515436768531799,0.5227934122085571,28.690261840820312,-9.323016166687012,38.90300750732422,0
430,4299933,-0.01266893558204174,0.043910637497901917,-1.0113556385040283,1.249440312385559,0.08171872049570084,-0.6203548908233643,29.81163787841797,-11.58674430847168,39.00566101074219,0
431,4309963,0.018755817785859108,-0.07564150542020798,-0.9927400946617126,0.1499539315700531,0.8667100667953491,-0.46348705887794495,31.236371994018555,-7.632661819458008,42.138771057128906,0
432,4319939,0.017816245555877686,0.027404237538576126,-0.9940078854560852,-0.8015232682228088,-0.2591594457626343,0.8865073919296265,31.255361557006836,-10.047324180603027,40.071678161621094,0
433,4330351,0.04219130799174309,-0.03681989014148712,-0.981346607208252,-0.10868406295776367,0.035767458379268646,-0.798361599445343,30.934385299682617,-10.784625053405762,40.59727478027344,0
434,4340121,0.05745678022503853,-0.07368417084217072,-1.014080286026001,-0.03354104608297348,0.5354639887809753,0.8071910738945007,30.366365432739258,-10.064203262329102,40.322418212890625,0
435,4350088,0.006972203962504864,0.02019965462386608,-1.019350290298462,0.15813972055912018,-0.8192692995071411,-0.33112284541130066,30.295574188232422,-9.876791954040527,40.570133209228516,0
436,4360008,-0.003803563304245472,0.0007191027980297804,-1.0088444948196411,0.036924947053194046,-0.022423453629016876,-0.31544744968414307,28.624618530273438,-9.151285171508789,41.603092193603516,0
437,4369865,0.0440215989947319,0.004239071160554886,-1.0063740015029907,-0.5521736145019531,-0.30373460054397583,0.3905932903289795,30.89065170288086,-9.647348403930664,38.42949676513672,0
438,4379935,-0.059794217348098755,0.0500527061522007,-0.9740973114967346,0.05339951068162918,-0.374706894159317,-0.8386849761009216,29.86020851135254,-10.818119049072266,39.49101638793945,0
439,4390210,0.021869422867894173,0.06051512062549591,-0.9977284073829651,-0.23782987892627716,-0.5513876080513,-0.4202011227607727,30.5137939453125,-9.501533508300781,40.768802642822266,0
440,4399986,-0.03811047226190567,-0.018110768869519234,-1.011699914932251,-0.33505889773368835,0.400674045085907,-0.35077744722366333,27.982797622680664,-9.635583877563477,39.63184356689453,0
441,4409915,-0.029624976217746735,0.01883762888610363,-0.9939428567886353,-0.1318465620279312,-0.47597360610961914,-0.1599244922399521,29.65117073059082,-10.617460250854492,39.88115692138672,0
442,4420111,0.032121442258358,0.0825188085436821,-0.981456995010376,1.2060368061065674,0.8201485872268677,0.19026346504688263,30.092287063598633,-10.516101837158203,41.47751235961914,0
443,4429851,0.011189364828169346,-0.048886384814977646,-1.0016511678695679,-0.1718338131904602,0.2103867530822754,0.0013767315540462732,30.014677047729492,-8.419524192810059,41.27632522583008,0
444,4440271,-0.057176850736141205,-0.06779903173446655,-0.9878347516059875,0.45779356360435486,-0.7275310754776001,-0.7181994318962097,29.030691146850586,-12.37525463104248,39.80997085571289,0
445,4450180,0.033349018543958664,0.08383320271968842,-1.0031951665878296,0.48135316371917725,-0.041807956993579865,-0.15869677066802979,29.921972274780273,-10.98847770690918,39.915828704833984,0
446,4460130,0.0592990405857563,0.12714499235153198,-1.0289915800094604,-0.17732642590999603,0.7854975461959839,-0.5151044726371765,30.080848693847656,-9.25003433227539,40.473331451416016,0
447,4470224,0.0008234272827394307,-0.05356627330183983,-1.0291320085525513,-0.5095952749252319,7.644294964848086e-05,-0.45488280057907104,29.00739288330078,-11.59744930267334,39.042842864990234,0
448,4480187,0.032318275421857834,-0.00594500545412302,-1.0356388092041016,0.2275870144367218,-0.3139200508594513,0.5777983069419861,29.461061477661133,-8.75822925567627,40.102783203125,0
449,4490071,0.04652987793087959,0.06543435901403427,-1.0007530450820923,0.8579537868499756,0.44722098112106323,0.33537188172340393,31.41320037841797,-10.318702697753906,40.21636962890625,0
450,4500316,0.023971855640411377,0.002030641306191683,-0.9746893048286438,-0.19922658801078796,0.9145911335945129,0.09359616041183472,28.96753692626953,-8.452275276184082,40.2076301574707,0
451,4509953,-0.04789632558822632,-0.01592445932328701,-1.0244935750961304,0.9581681489944458,-0.016902105882763863,-0.42253825068473816,30.89743423461914,-9.244460105895996,40.498958587646484,0
452,4520013,0.0018000833224505186,-0.06433048099279404,-0.9829450249671936,-0.38821059465408325,0.3554507791996002,-0.5387703776359558,29.232511520385742,-10.469978332519531,39.5638313293457,0
453,4530050,0.04768897593021393,-0.02709014341235161,-1.003458023071289,-0.712261438369751,0.722435712814331,0.6026915311813354,30.122570037841797,-12.453615188598633,39.49553680419922,0
454,4539874,0.02010723203420639,-0.03133953735232353,-1.02524733543396,-0.18972332775592804,0.14251303672790527,0.03496855869889259,30.276172637939453,-10.536367416381836,38.83487319946289,0
455,4549792,-0.02239159867167473,-0.030093500390648842,-1.0044676065444946,-0.35969793796539307,-0.23486745357513428,-0.04868410900235176,29.253957748413086,-8.389154434204102,39.676151275634766,0
456,4559956,-0.02070239558815956,-0.04125092551112175,-1.0025337934494019,0.6487085223197937,0.43461233377456665,0.22980865836143494,31.178258895874023,-10.41031551361084,40.502471923828125,0
457,4570103,0.0014101339038461447,-0.005638783797621727,-0.9836770296096802,0.09301458299160004,0.49053049087524414,0.3551252484321594,31.006263732910156,-8.644407272338867,39.9199333190918,0
458,4579775,-0.03792021796107292,0.022420337423682213,-0.9759470820426941,-0.1013350784778595,0.2652474641799927,-0.06796017289161682,31.75824737548828,-9.725554466247559,40.66457748413086,0
459,4590041,-0.01399912778288126,-0.12770728766918182,-1.0125446319580078,0.14960192143917084,0.04895492270588875,-0.9286350607872009,29.654376983642578,-7.569655895233154,38.704315185546875,0
460,4599867,-0.005001659505069256,-0.041812267154455185,-0.9919068217277527,0.5888336300849915,0.19967201352119446,-0.08718851953744888,31.341569900512695,-11.964159965515137,41.41086196899414,0
461,4609709,0.062417689710855484,0.04763767868280411,-1.0091310739517212,0.3314724564552307,-0.17219892144203186,-0.6046628952026367,30.53118133544922,-11.092968940734863,40.43608856201172,0
462,4619896,0.06772515922784805,-0.07111643254756927,-0.9918943643569946,-0.6727921962738037,-0.07570754736661911,-0.5320154428482056,28.21230125427246,-11.411340713500977,39.619590759277344,0
463,4629979,0.02262440137565136,-0.005198314320296049,-0.9991177320480347,-0.6301528811454773,0.8718862533569336,-0.41005414724349976,30.27998161315918,-10.34461784362793,40.349876403808594,0
464,4639876,-0.010594025254249573,0.03747393935918808,-1.0100518465042114,-0.2170192301273346,0.04650844633579254,-0.7423919439315796,28.747241973876953,-9.499475479125977,40.04975509643555,0
465,4650065,0.0542675219476223,-0.06299871951341629,-0.9824103116989136,-0.2581583857536316,0.026023531332612038,0.09336932003498077,30.461942672729492,-9.973427772521973,40.86132049560547,0
466,4659987,0.028003299608826637,-0.004699971526861191,-0.9660370349884033,0.31026798486709595,0.38211408257484436,-0.1492818295955658,31.375215530395508,-9.858918190002441,39.61711120605469,0
467,4670134,0.015249586664140224,-0.055164214223623276,-0.9923197031021118,0.311431884765625,0.02674543485045433,-0.3099419176578522,29.530168533325195,-10.19006633758545,39.84295654296875,0
468,4679692,-0.03508114069700241,0.013190113008022308,-0.9846112728118896,-0.6817179322242737,0.2781808078289032,-0.592538058757782,28.933374404907227,-10.066756248474121,39.10128402709961,0
469,4690076,-0.07687053084373474,-0.05677570402622223,-0.9725180864334106,0.03604224696755409,-0.1990734189748764,0.2348393052816391,29.717700958251953,-11.22157096862793,38.54301071166992,0
470,4699816,0.006593828555196524,-0.06494614481925964,-0.9881560206413269,0.002560618333518505,-1.0212700366973877,-1.0672295093536377,31.703500747680664,-10.615215301513672,40.30818176269531,0
471,4710118,-0.0006829836638644338,-0.006787475664168596,-1.014879822731018,0.16141411662101746,0.1295277178287506,-0.18659473955631256,30.180017471313477,-9.97762393951416,40.50700378417969,0
472,4719608,0.08024132251739502,-0.026275787502527237,-1.0046113729476929,-0.2492324709892273,0.3161289691925049,-0.5190886855125427,31.084945678710938,-7.499305248260498,40.90983200073242,0
473,4730049,0.009718389250338078,-0.04522273689508438,-1.0072933435440063,-0.08227112144231796,0.09482178092002869,0.005017238203436136,30.04022789001465,-10.658443450927734,39.69143295288086,0
474,4740057,0.007476902101188898,-0.011951263062655926,-0.9858935475349426,0.6171601414680481,-0.4625137746334076,-0.6351084113121033,29.76036262512207,-11.141197204589844,39.45401382446289,0
475,4749965,-0.10669425129890442,0.013084597885608673,-0.9848219752311707,0.583404541015625,0.5457485318183899,-0.5051972270011902,30.45709991455078,-11.352470397949219,40.21635437011719,0
476,4760046,0.04304243624210358,0.001456533558666706,-0.970810055732727,0.787075400352478,-0.5350467562675476,-0.17995882034301758,29.59244155883789,-10.194567680358887,39.846065521240234,0
477,4770188,0.09921242296695709,0.04158493131399155,-0.996993899345398,-0.48089560866355896,0.5110723972320557,0.20515835285186768,29.078256607055664,-10.28127670288086,40.91401290893555,0
478,4780128,-0.005216201301664114,0.0882057473063469,-1.0147491693496704,-0.6040697693824768,0.20383848249912262,0.05655652657151222,29.74226951599121,-11.155274391174316,40.90050506591797,0
479,4789858,0.0204458087682724,-0.003811578033491969,-1.0013633966445923,0.20144468545913696,-0.6167266368865967,0.8487145900726318,31.205720901489258,-9.661089897155762,40.019935607910156,0
480,4799844,-0.0980319157242775,0.0027342478279024363,-1.0041790008544922,0.34974074363708496,-0.05380725860595703,-0.18128608167171478,29.706205368041992,-11.404829978942871,37.532371520996094,0
481,4809927,0.028000807389616966,-0.0012218543561175466,-0.986225426197052,0.2537544369697571,-0.07675112783908844,-0.1670486479997635,30.70684242248535,-8.66266918182373,38.99087905883789,0
482,4819953,0.023401398211717606,-0.04566929116845131,-0.9915885925292969,-0.3317159414291382,0.8324815034866333,0.323662132024765,29.677555084228516,-10.365776062011719,39.988224029541016,0
483,4829799,0.007764855399727821,0.02283531054854393,-1.0308040380477905,-0.671862006187439,-0.22495554387569427,0.376503050327301,28.675941467285156,-9.105731964111328,38.94326400756836,0
484,4840214,-0.011599644087255001,0.011878971010446548,-1.015744686126709,0.013527629896998405,-0.3572927415370941,0.3961009383201599,29.568410873413086,-7.512921333312988,40.93789291381836,0
485,4850165,-0.05807066336274147,0.025084173306822777,-0.9864490628242493,0.0884055495262146,-0.1025448814034462,0.16305522620677948,30.456314086914062,-6.43212366104126,40.21708679199219,0
486,4859819,-0.06353474408388138,-0.027801984921097755,-1.0239837169647217,0.5446123480796814,0.8087113499641418,-0.9288753867149353,27.259248733520508,-9.647749900817871,39.06125259399414,0
487,4870121,-0.0047073676250875,-0.11269547045230865,-1.0084452629089355,-0.02577505074441433,-0.18623100221157074,0.02079925127327442,30.191579818725586,-11.60262393951416,40.49177932739258,0
488,4879973,0.003579927608370781,-0.007977014407515526,-1.014080286026001,0.9031419157981873,0.13459591567516327,-0.553601086139679,29.3337459564209,-11.123885154724121,40.23258590698242,0
489,4890020,0.037839602679014206,0.02199501171708107,-1.0305070877075195,0.27137330174446106,0.2552497684955597,0.2415192574262619,28.20415496826172,-9.17887020111084,40.1338996887207,0
490,4899966,-0.039828427135944366,0.021398847922682762,-0.9914643168449402,0.10614710301160812,0.008251293562352657,-0.045843206346035004,28.61775779724121,-8.4892578125,40.05413055419922,0
491,4909973,0.03782334178686142,0.004341702908277512,-0.9997960329055786,-0.7588923573493958,-0.31675779819488525,0.20398233830928802,31.670289993286133,-9.140329360961914,39.42485809326172,0
492,4920124,-0.05880516767501831,0.012443063780665398,-0.9961568713188171,0.7816135287284851,-0.32649075984954834,-0.14130474627017975,28.744050979614258,-8.545816421508789,39.90101623535156,0
493,4930162,0.036355067044496536,-0.0041186208836734295,-0.9806392192840576,-0.27353736758232117,-0.48836490511894226,0.17303253710269928,28.786182403564453,-11.173372268676758,38.79762649536133,0
494,4939868,0.05105778947472572,0.009574995376169682,-1.001849889755249,-0.538580060005188,-0.041108280420303345,0.039342377334833145,29.459135055541992,-10.468544960021973,39.56542205810547,0
495,4949965,-0.03615118935704231,0.020153550431132317,-1.0204613208770752,0.6132056713104248,-0.9752449989318848,-0.11147146672010422,29.369707107543945,-9.03960132598877,40.33427047729492,0
496,4960147,-0.017687534913420677,-0.007395316381007433,-1.01422917842865,-0.3280298709869385,0.5461183190345764,0.2428162693977356,31.038408279418945,-7.865714073181152,42.14425277709961,0
497,4969548,-0.025643616914749146,0.05409349128603935,-1.0221396684646606,-0.40767616033554077,-0.5799025893211365,-0.8697646260261536,30.86728858947754,-11.00615119934082,38.21880340576172,0
498,4979793,-0.10741852968931198,0.06113411858677864,-0.9886370897293091,-0.9896249175071716,0.7063966393470764,-0.3268026113510132,28.429183959960938,-10.135542869567871,38.86299133300781,0
499,4990230,0.01977384276688099,-0.033225614577531815,-0.9870517253875732,-0.3524877727031708,-0.9874377250671387,0.4506637752056122,30.57192039489746,-8.321045875549316,40.96299743652344,0
500,5000324,0.0005612782551907003,-0.011235730722546577,-0.9918055534362793,0.007851650938391685,-0.026387782767415047,-0.33612245321273804,29.795230865478516,-9.577176094055176,40.63948440551758,0
501,5009999,-0.020340614020824432,-0.09682738780975342,-0.9925026297569275,-0.4392310380935669,0.11052633076906204,0.059229861944913864,29.601045608520508,-10.228894233703613,39.52831268310547,0
502,5020227,-0.014499195851385593,0.1016872227191925,-0.9854186773300171,0.5746849775314331,-0.13835303485393524,-0.7759862542152405,29.780582427978516,-8.837479591369629,38.17478942871094,0
503,5029905,-0.014166699722409248,-0.11700311303138733,-1.0288074016571045,-0.420124888420105,0.3142966330051422,-0.4442436695098877,29.000682830810547,-11.02448844909668,42.27666091918945,0
504,5039964,0.0482630617916584,-0.09213625639677048,-1.0361132621765137,-0.6122479438781738,-0.5598416328430176,-0.053109925240278244,30.044729232788086,-11.06450080871582,39.81842803955078,0
505,5050024,0.004860457498580217,0.01610829494893551,-0.9882382750511169,0.6469871401786804,-0.07860126346349716,0.131122887134552,32.211097717285156,-9.463961601257324,39.785011291503906,0
506,5059727,0.07549484819173813,0.032683491706848145,-0.9882221221923828,0.5229990482330322,-0.859128475189209,0.1353660374879837,32.49131393432617,-9.650620460510254,40.605751037597656,0
507,5069991,-0.019142799079418182,0.025609567761421204,-0.9769383072853088,-0.334820032119751,0.8914222717285156,0.4371502697467804,29.674407958984375,-12.586441993713379,41.19965744018555,0
508,5079647,0.07335764914751053,0.03076043911278248,-1.0045515298843384,-0.8942467570304871,-0.7622845768928528,-0.6620001792907715,30.56534767150879,-10.101112365722656,37.93913269042969,0
509,5090005,0.12146767228841782,0.07458911836147308,-1.0004364252090454,-0.4007669985294342,0.08847068250179291,-0.8773623704910278,30.431161880493164,-12.339920997619629,40.422447204589844,0
510,5100064,-0.05387425795197487,0.10225655883550644,-1.0263806581497192,-0.8366068005561829,-0.6310145854949951,-0.02374877966940403,28.557523727416992,-9.166239738464355,40.13814926147461,0
511,5110136,0.11206859350204468,0.011328175663948059,-0.9997761249542236,-0.7197965383529663,-0.53081876039505,0.2782036066055298,29.794967651367188,-9.537035942077637,40.29578399658203,0
512,5120091,0.018553318455815315,0.0322854146361351,-1.015305757522583,-0.3507969081401825,0.34228014945983887,-1.092213749885559,30.107276916503906,-9.815401077270508,39.10645294189453,0
513,5129962,-0.0347590297460556,-0.025083601474761963,-0.9979550838470459,0.23997215926647186,-0.31971222162246704,0.43962571024894714,30.936798095703125,-8.524291038513184,40.489009857177734,0
514,5140215,0.030985314399003983,0.04383883252739906,-1.030806064605713,-0.25372108817100525,0.008517549373209476,0.7858637571334839,29.910921096801758,-9.670185089111328,39.6584587097168,0
515,5149886,-0.0036880439147353172,0.03406602144241333,-1.0149317979812622,0.40319767594337463,0.6150104999542236,-0.2862398028373718,31.175426483154297,-8.741334915161133,40.840484619140625,0
516,5160002,-0.05380861088633537,-0.048974525183439255,-1.0183864831924438,0.27348777651786804,0.7794613242149353,0.4887439012527466,30.033447265625,-10.689428329467773,40.773719787597656,0
517,5170114,0.022443898022174835,-0.08032187819480896,-1.008664846420288,-0.371540367603302,-0.6906441450119019,-0.8083016872406006,30.02012062072754,-10.093892097473145,39.04804992675781,0
518,5180128,0.02332853153347969,0.11376310884952545,-1.0128158330917358,0.06053238734602928,-0.0586688369512558,0.9242791533470154,29.325557708740234,-10.727264404296875,39.12480545043945,0
519,5189886,0.047768693417310715,0.10509456694126129,-1.0098204612731934,-0.716293454170227,0.5828730463981628,-0.38479331135749817,30.3704776763916,-9.262734413146973,39.648887634277344,0
520,5200104,0.008512064814567566,-0.021881751716136932,-0.9784695506095886,-0.2671241760253906,-0.16983698308467865,-0.02341781184077263,29.105321884155273,-11.444666862487793,39.52557373046875,0
521,5210091,-0.03474682196974754,-0.03981630504131317,-1.0014705657958984,0.4285371005535126,0.2043832540512085,-0.5425798296928406,30.725936889648438,-10.207832336425781,39.69578170776367,0
522,5220084,-0.030282961204648018,0.04452642798423767,-1.0115994215011597,-0.2151491791009903,-0.9113920331001282,0.5668715238571167,30.459192276000977,-11.003521919250488,40.665348052978516,0
523,5229946,0.03715883567929268,0.035757940262556076,-1.011904001235962,-0.4711621403694153,0.41913628578186035,-0.01993444561958313,31.314455032348633,-9.533897399902344,41.86942672729492,0
524,5240195,0.05625595897436142,-0.12070611119270325,-0.9994692802429199,0.6370102763175964,-1.0987684726715088,1.5410687923431396,31.544523239135742,-9.639863014221191,39.69687271118164,0
525,5249982,-0.005902024917304516,0.032141078263521194,-0.9941461682319641,-0.6597734689712524,-0.21294443309307098,-0.009405085816979408,30.961442947387695,-10.324125289916992,38.78003692626953,0
526,5260136,0.07420890778303146,-0.06665478646755219,-0.9969728589057922,0.38212165236473083,0.31089818477630615,0.36099058389663696,29.59873390197754,-10.306926727294922,39.98289108276367,0
527,5269982,0.05388407036662102,-0.09666318446397781,-1.0261743068695068,-0.5283555388450623,0.4996397793292999,0.7482354044914246,29.39151954650879,-9.919276237487793,40.153526306152344,0
528,5279908,-0.04490107670426369,0.013865192420780659,-1.0244691371917725,0.2395443320274353,0.05057930573821068,-0.12368426471948624,29.39886474609375,-9.350374221801758,37.941497802734375,0
529,5290032,-0.022136453539133072,-0.018356893211603165,-1.0215520858764648,-1.1830503940582275,-1.0760390758514404,-0.45132988691329956,29.59354591369629,-8.373408317565918,40.611385345458984,0
530,5300007,-0.0017981597920879722,0.0026987907476723194,-1.0007959604263306,-0.21682550013065338,-0.5073936581611633,0.28834041953086853,30.375633239746094,-10.80340576171875,40.107913970947266,0
531,5310240,-0.02596474252641201,0.03188979998230934,-0.9737077951431274,0.05864526331424713,0.43236714601516724,-0.08483746647834778,30.347576141357422,-11.826756477355957,41.60856628417969,0
532,5320039,0.030356578528881073,0.019684962928295135,-0.9704465866088867,0.40683504939079285,-0.03291662782430649,-0.05826597660779953,30.893033981323242,-10.517960548400879,40.04999923706055,0
533,5330041,0.02074688859283924,0.010971825569868088,-1.0051077604293823,0.025859156623482704,0.758375346660614,0.43139681220054626,29.449865341186523,-11.610027313232422,38.541133880615234,0
534,5340095,0.01190299354493618,0.006889358628541231,-1.0074743032455444,0.33361420035362244,0.2965414524078369,-0.45706841349601746,30.960535049438477,-9.394238471984863,39.91740036010742,0
535,5350211,-0.009578516706824303,-0.07620808482170105,-0.9803629517555237,0.07134409993886948,-0.8203668594360352,-0.5321956872940063,28.183530807495117,-10.23143482208252,39.6014404296875,0
536,5359758,-0.0253289807587862,-0.08802256733179092,-0.9897807836532593,1.027963638305664,-0.17290106415748596,0.47486233711242676,30.747270584106445,-11.655604362487793,39.96879196166992,0
537,5370108,0.08784234523773193,0.0073103285394608974,-1.0088635683059692,0.010228810831904411,0.29667964577674866,-0.17388546466827393,30.12940788269043,-9.527853965759277,42.07550811767578,0
538,5380000,0.03400333225727081,-0.09328586608171463,-1.0154746770858765,0.4572870135307312,-0.5924679636955261,-0.4071429669857025,31.396028518676758,-9.22824478149414,41.04108810424805,0
539,5389998,0.09654930233955383,0.009976137429475784,-0.9754217863082886,-0.24116842448711395,0.2959509491920471,0.1853257417678833,28.621292114257812,-10.754789352416992,40.00823211669922,0
540,5400132,-0.010530403815209866,0.009392241947352886,-0.9969797134399414,0.10728292912244797,-0.8653659820556641,-0.09292978048324585,32.503971099853516,-10.814926147460938,39.11076354980469,0
541,5409927,-0.0743967741727829,-0.04499468952417374,-0.9949021339416504,-0.006027449853718281,-3.316435686429031e-05,-0.009518163278698921,29.748226165771484,-8.64566421508789,39.04789733886719,0
542,5420116,-0.04571346938610077,0.00818458292633295,-0.9799756407737732,0.1561698019504547,0.4263386130332947,0.4928913712501526,29.772933959960938,-9.28851318359375,39.6966438293457,0
543,5429937,0.12063560634851456,0.020001694560050964,-1.010830283164978,-0.5496143102645874,0.6308047771453857,-0.4495756924152374,28.936975479125977,-9.34947681427002,41.26688003540039,0
544,5440105,0.01747828908264637,0.02925409935414791,-1.0051823854446411,-0.3921608328819275,0.4306810200214386,0.15107731521129608,27.52300453186035,-11.278895378112793,39.126590728759766,0
545,5450084,0.01869700662791729,0.009811501018702984,-1.0334094762802124,0.16682887077331543,-0.08965878188610077,0.07682062685489655,30.406282424926758,-8.854896545410156,40.133750915527344,0
546,5459904,-0.04356900230050087,-0.05069718882441521,-0.9742051362991333,0.4825005829334259,0.06212129816412926,-0.5670337080955505,31.61992835998535,-11.009330749511719,39.42886734008789,0
547,5470047,-0.057539377361536026,-0.046184781938791275,-1.0145667791366577,0.18005822598934174,-0.4282107353210449,-0.5110061168670654,30.265981674194336,-10.965375900268555,38.03374481201172,0
548,5480170,0.030690578743815422,0.013720987364649773,-0.9781869053840637,0.5231562852859497,0.35192957520484924,-0.3488651514053345,29.238157272338867,-8.798293113708496,40.949859619140625,0
549,5489799,0.01861414685845375,-0.028040487319231033,-0.9947896003723145,0.27312585711479187,-1.0669728517532349,-0.13704735040664673,29.731836318969727,-9.405014038085938,39.520503997802734,0
550,5499734,0.01988992467522621,0.003445858834311366,-1.014656901359558,-0.1053466796875,0.4454607665538788,0.4397878050804138,30.127729415893555,-9.6615571975708,42.0248908996582,0
551,5509860,0.10670217871665955,0.01780352182686329,-0.9930154085159302,-0.18199323117733002,0.10492737591266632,-0.25240540504455566,29.02274513244629,-11.534764289855957,39.46614074707031,0
552,5519808,0.08406707644462585,0.04069135710597038,-0.9746655821800232,0.7054402232170105,0.15766258537769318,-1.1114588975906372,30.060455322265625,-11.440559387207031,42.10773849487305,0
553,5530042,-0.023244459182024002,0.0003863823367282748,-1.020019769668579,-0.07671067118644714,0.5672347545623779,-0.5369659066200256,30.369544982910156,-10.205038070678711,41.27725601196289,0
554,5540035,0.005693135783076286,0.026869017630815506,-1.0098474025726318,-1.4231657981872559,0.12312904000282288,0.7910641431808472,27.12910270690918,-11.390824317932129,40.56802749633789,0
555,5549971,0.02598780393600464,0.06638035178184509,-0.9708411693572998,-0.24130360782146454,-0.1241677850484848,-0.29384997487068176,28.754352569580078,-10.551589012145996,41.120845794677734,0
556,5559822,0.08846509456634521,-0.061285026371479034,-0.985488772392273,0.5651597380638123,-0.28057360649108887,-0.5879641771316528,29.136695861816406,-11.038915634155273,39.097625732421875,0
557,5569918,0.10568616539239883,0.03333539888262749,-0.9849267601966858,-0.05079610273241997,0.6713148951530457,-0.18726573884487152,29.92085075378418,-8.640382766723633,37.47248840332031,0
558,5579903,-0.06554118543863297,0.017799971625208855,-0.9856852293014526,-0.13127221167087555,0.5554545521736145,-0.09605591744184494,30.768077850341797,-8.769947052001953,40.95218276977539,0
559,5590195,0.019119547680020332,0.0047538671642541885,-0.9909873008728027,-0.8304047584533691,0.6526963710784912,-0.4714947044849396,29.03912925720215,-11.26113224029541,37.9283447265625,0
560,5599594,-0.0060661230236291885,0.0011929566971957684,-0.983675479888916,0.4814072847366333,-0.08803900331258774,-0.29333236813545227,29.770483016967773,-9.022400856018066,40.969242095947266,0
561,5610317,0.13076548278331757,-0.011412244290113449,-1.0083597898483276,-0.0197707861661911,0.15550705790519714,-0.07406425476074219,29.403846740722656,-9.561389923095703,39.839698791503906,0
562,5620018,0.060051340609788895,0.00499839847907424,-1.0075725317001343,-0.5058965682983398,-0.012618054635822773,0.32043686509132385,29.058685302734375,-11.224465370178223,41.37556838989258,0
563,5629853,0.029553288593888283,0.013676979579031467,-0.9955059885978699,-0.05007561668753624,0.3827301859855652,0.11629262566566467,29.14216423034668,-8.931849479675293,39.44587326049805,0
564,5640048,-0.07882675528526306,-0.013655749149620533,-0.9973002076148987,0.09718972444534302,0.2700260877609253,0.2242741733789444,29.960416793823242,-8.171344757080078,40.39297103881836,0
565,5650112,-0.07722456008195877,0.0152733800932765,-1.0298621654510498,0.13131825625896454,0.4258495271205902,0.15836887061595917,30.77008056640625,-9.579530715942383,40.819091796875,0
566,5659846,0.01713428646326065,-0.03446326404809952,-1.0022761821746826,-0.8466659188270569,0.09253634512424469,-0.6720770001411438,29.28335952758789,-10.2765531539917,38.731502532958984,0
567,5669817,0.10267965495586395,-0.04139728471636772,-1.0192712545394897,-0.526084840297699,-0.6165773868560791,-0.4366106390953064,30.26721954345703,-10.55566120147705,39.068695068359375,0
568,5679944,-0.036879170686006546,-0.0584043487906456,-1.0006762742996216,-0.34554076194763184,0.2770177125930786,-0.5627227425575256,29.596174240112305,-11.680519104003906,38.022850036621094,0
569,5690121,0.04860344156622887,-0.03933895751833916,-0.9763743877410889,0.008558363653719425,-0.026698391884565353,-0.9816635847091675,30.03254508972168,-9.364753723144531,41.03449249267578,0
570,5700106,0.01596546545624733,-0.026643261313438416,-1.0095469951629639,-0.6769425272941589,-1.283273696899414,-0.5741682648658752,29.960464477539062,-9.505934715270996,40.619876861572266,0
571,5709909,0.010958243161439896,-0.0029724384658038616,-0.9684299826622009,0.19217920303344727,-0.05015353113412857,-0.42242082953453064,28.48334503173828,-8.80663013458252,39.921897888183594,0
572,5720236,-0.04574436694383621,-0.07741717249155045,-1.0204896926879883,-0.384578675031662,-0.366653710603714,0.5962498784065247,32.0029296875,-9.292912483215332,40.10945510864258,0
573,5729879,-0.08659727871417999,0.08245699107646942,-0.9959132671356201,-0.060681793838739395,0.19960716366767883,0.7966834902763367,28.333070755004883,-8.043989181518555,41.38141632080078,0
574,5739916,0.03988990932703018,0.03591761738061905,-1.0201081037521362,-0.7236987352371216,-0.2559552490711212,-0.11507862061262131,29.757949829101562,-10.609055519104004,37.48163604736328,0
575,5750072,0.03471694886684418,-0.06532837450504303,-1.0092743635177612,-0.08419610559940338,0.12040950357913971,0.03226371109485626,31.207040786743164,-8.093191146850586,41.31961441040039,0
576,5760117,-0.0453566238284111,-0.06786218285560608,-1.0315402746200562,-0.3420816957950592,-0.5137763619422913,0.22681869566440582,28.167560577392578,-9.925302505493164,39.369300842285156,0
577,5770039,0.0782754048705101,-0.014831761829555035,-1.0162403583526611,0.2817275822162628,-0.2012893110513687,-0.21057067811489105,29.72010612487793,-8.949798583984375,40.152801513671875,0
578,5779712,-0.03176393732428551,-0.023164520040154457,-0.9808104038238525,1.0952317714691162,0.5590634942054749,-0.9056425094604492,31.077491760253906,-10.073397636413574,38.864593505859375,0
579,5789928,0.06301963329315186,-0.038625188171863556,-0.9849286675453186,-0.4398554265499115,0.09993435442447662,-0.263241171836853,29.146732330322266,-9.771449089050293,38.57318878173828,0
580,5800151,0.05463285371661186,-0.03684738650918007,-1.0010017156600952,-0.5197476148605347,-0.28037092089653015,-0.05325881019234657,29.678497314453125,-7.779239654541016,38.086524963378906,0
581,5809994,0.07067950069904327,0.04108311980962753,-0.9837009906768799,1.0581433773040771,-0.3103604018688202,0.1531568020582199,29.775602340698242,-10.340609550476074,38.741390228271484,0
582,5819980,-0.07600788027048111,0.054832883179187775,-1.027256965637207,0.4650357961654663,0.7999606728553772,-0.4315098524093628,29.830121994018555,-9.157732963562012,39.59815979003906,0
583,5829947,0.029929615557193756,0.04525725170969963,-0.9670410752296448,0.7312511205673218,-0.2086884081363678,-1.0833872556686401,29.815309524536133,-9.798736572265625,40.00998306274414,0
584,5840236,-0.047210950404405594,-0.02310805767774582,-0.9916177988052368,-0.24871553480625153,0.10035499930381775,0.8825271129608154,31.543846130371094,-9.199294090270996,40.15795135498047,0
585,5850116,0.00716063566505909,0.024752069264650345,-0.9780278205871582,-0.2458936870098114,0.19456101953983307,-0.7943314909934998,28.604768753051758,-9.93463134765625,39.42583084106445,0
586,5860155,-0.02365775965154171,-0.0033356454223394394,-1.0033893585205078,0.17403040826320648,-0.07237441092729568,0.472370445728302,28.032154083251953,-9.597386360168457,39.590023040771484,0
587,5870285,-0.013149432837963104,0.04244570434093475,-0.9871191382408142,-0.08124978095293045,0.4885331392288208,-0.49625861644744873,29.366802215576172,-10.075937271118164,40.46561813354492,0
588,5880057,-0.04449215531349182,-0.008842520415782928,-0.9644785523414612,-0.4380948543548584,-0.8430261611938477,0.29866835474967957,31.05242156982422,-11.062442779541016,41.0333366394043,0
589,5890079,-0.02912902645766735,0.04043848067522049,-0.9794570803642273,1.155243158340454,-1.0853877067565918,0.12146926671266556,29.27471160888672,-10.519112586975098,39.19573211669922,0
590,5900175,-0.04543137550354004,0.032519690692424774,-0.9977402091026306,0.5628350973129272,-0.39686012268066406,0.662624716758728,32.23262023925781,-8.236050605773926,40.07779312133789,0
591,5909919,0.0244964100420475,-0.06709488481283188,-0.9832128882408142,-0.25800788402557373,0.7710968255996704,-0.12269295752048492,29.542980194091797,-9.304981231689453,39.43144607543945,0
592,5919859,-0.02829529345035553,0.050384070724248886,-1.0025705099105835,0.02019745297729969,-0.30174124240875244,0.5565322637557983,31.48114013671875,-9.161386489868164,39.27912521362305,0
593,5929639,-0.028952836990356445,-0.0473732054233551,-1.0200260877609253,0.8206844329833984,-0.49915027618408203,-1.0372048616409302,31.424570083618164,-10.437386512756348,38.844146728515625,0
594,5940253,-0.01845569908618927,-0.13497672975063324,-0.9918718934059143,-0.12459847331047058,-0.07046853750944138,-0.3912423849105835,28.81873893737793,-10.082754135131836,39.553741455078125,0
595,5949925,-0.02738436870276928,0.002124830149114132,-1.0198355913162231,0.3886021375656128,-0.4164809584617615,0.6242424845695496,31.164215087890625,-8.161676406860352,40.39742660522461,0
596,5960329,-0.01983935944736004,0.002593997400254011,-0.9861931800842285,-0.10544540733098984,-0.4691004455089569,-0.4576982855796814,29.52553939819336,-9.375418663024902,39.049415588378906,0
597,5970332,-0.0014725379878655076,-0.024496350437402725,-1.0122557878494263,0.11406106501817703,-0.44660332798957825,-0.05819595605134964,29.958703994750977,-9.362350463867188,40.16004943847656,0
598,5980043,-0.11872141063213348,0.026572365313768387,-1.0156272649765015,0.7388749718666077,-1.1387131214141846,-0.18916946649551392,30.92399024963379,-11.939016342163086,39.31296157836914,0
599,5990081,0.04457695409655571,0.10400093346834183,-0.9889039397239685,-0.11172334104776382,0.25571274757385254,0.9659518003463745,29.752344131469727,-11.11788272857666,41.324729919433594,0
600,6000048,-0.020138917490839958,-0.032092127948999405,-0.9848145246505737,0.12368336319923401,-0.4112052321434021,-0.4304348826408386,30.749982833862305,-10.067354202270508,39.529056549072266,0
601,6009800,-0.005400041118264198,-0.06734064966440201,-0.9858844876289368,-0.6495456099510193,0.16325163841247559,-0.019357731565833092,31.337961196899414,-9.046438217163086,40.30788040161133,0
602,6020185,-0.1551208198070526,0.037459734827280045,-0.997541069984436,0.18507082760334015,0.006333542056381702,-0.7785653471946716,30.107179641723633,-11.64795207977295,39.11723709106445,0
603,6030073,0.01883118785917759,-0.015010770410299301,-1.0275599956512451,-0.0275139007717371,0.5851934552192688,0.4835085868835449,29.331453323364258,-10.891416549682617,39.04216766357422,0
604,6039936,-0.0044356826692819595,-0.056301310658454895,-0.9893063902854919,0.25071990489959717,0.24905282258987427,-0.4824634790420532,29.723522186279297,-11.976184844970703,40.713497161865234,0
605,6050124,0.012378644198179245,-0.01990501768887043,-0.9826764464378357,-0.8271920680999756,0.1547316461801529,-1.239703893661499,29.98729133605957,-10.88115406036377,41.113128662109375,0
606,6060139,0.02143002301454544,-0.05069177597761154,-0.9974361062049866,0.23392589390277863,0.4983156621456146,1.2048975229263306,30.1074161529541,-11.288193702697754,40.77279281616211,0
607,6069920,-0.03260513022542,-0.015573806129395962,-1.061357855796814,0.6100561618804932,-0.4323985278606415,-0.44676995277404785,28.350004196166992,-11.031288146972656,38.56708908081055,0
608,6080193,0.0002695048169698566,-0.04912181943655014,-1.0107141733169556,-1.014296531677246,0.922368586063385,-0.2570835053920746,30.12185287475586,-8.620441436767578,39.18815994262695,0
609,6089996,0.08964657783508301,-0.058845631778240204,-0.9677364230155945,0.8657242655754089,-0.6119221448898315,0.3972058594226837,29.661720275878906,-10.857733726501465,39.505088806152344,0
610,6099848,0.10222001373767853,0.021047592163085938,-0.9781910181045532,-0.1041598916053772,0.21429985761642456,-0.2009028196334839,31.02205467224121,-10.077308654785156,40.64058303833008,0
611,6109947,-0.012246266938745975,-0.0320768803358078,-1.0105403661727905,0.6830436587333679,0.35552978515625,0.54668128490448,29.1488094329834,-9.937277793884277,41.70426559448242,0
612,6120074,0.02017664909362793,0.017973922193050385,-1.0092239379882812,0.17679202556610107,-0.42715558409690857,0.2206827998161316,29.133703231811523,-10.53940200805664,38.44347381591797,0
613,6130173,-0.002948522800579667,-0.05805192515254021,-1.0102670192718506,0.04142601788043976,-0.3022776246070862,0.8193837404251099,30.318904876708984,-10.42868709564209,39.407859802246094,0
614,6139945,-0.06665833294391632,-0.11602682620286942,-1.048201084136963,-0.05916347727179527,0.1366521567106247,-0.5017650127410889,28.646726608276367,-9.453514099121094,40.47602462768555,0
615,6149867,-0.026736263185739517,0.0034646475687623024,-0.9828380942344666,0.21822164952754974,-0.15529049932956696,0.8434785604476929,30.487808227539062,-9.09471607208252,38.96249008178711,0
616,6159967,0.015202151611447334,-0.03405202925205231,-1.0294595956802368,-0.40025749802589417,0.2678273320198059,0.1749623715877533,31.174280166625977,-10.062522888183594,41.30586624145508,0
617,6169884,0.0017301858169957995,-0.019183659926056862,-0.979505181312561,0.7081428170204163,0.01860145479440689,0.1945570856332779,30.25948715209961,-10.935524940490723,40.62322998046875,0
618,6179913,0.011984147131443024,0.008133767172694206,-1.0174546241760254,0.06413164734840393,-0.4050547480583191,0.3064796030521393,29.725486755371094,-10.828401565551758,39.645591735839844,0
619,6190029,0.03874847665429115,-0.023570476099848747,-1.0048085451126099,0.7400559186935425,0.33994266390800476,0.5086527466773987,29.371252059936523,-10.977254867553711,39.0911979675293,0
620,6199978,-0.07673004269599915,-0.0453830324113369,-0.9712449908256531,0.23800058662891388,-0.4106663465499878,0.10004066675901413,31.19461441040039,-10.942280769348145,40.073753356933594,0
621,6210258,-0.019829221069812775,-0.09898867458105087,-0.9811888337135315,0.2442137598991394,1.1309021711349487,-0.3924788534641266,31.643104553222656,-10.304412841796875,39.070247650146484,0
622,6219926,0.1286396086215973,-0.014638933353126049,-1.0031673908233643,0.4078300893306732,0.7984795570373535,0.05073750391602516,29.287736892700195,-10.446121215820312,40.82960891723633,0
623,6230128,0.016588225960731506,-0.10665590316057205,-1.042958378791809,-0.3129066526889801,-0.5052860379219055,1.316916584968567,30.29160499572754,-9.561237335205078,40.88420486450195,0
624,6240198,0.0024834484793245792,0.05719255283474922,-1.0258325338363647,0.36678552627563477,-0.8799759745597839,0.06407778710126877,29.428421020507812,-9.417374610900879,40.63675308227539,0
625,6249930,0.009505050256848335,0.007752109784632921,-0.9947496652603149,-0.6993406414985657,-0.12126364558935165,0.03254902735352516,27.381025314331055,-10.74832820892334,40.22982406616211,0
626,6259916,-0.028336739167571068,0.05970436707139015,-0.9929697513580322,-0.37304481863975525,0.26311182975769043,0.3557632863521576,30.618804931640625,-9.170101165771484,40.4952392578125,0
