seq,time_us,ax,ay,az,gx,gy,gz,mx,my,mz,drop_flag
0,5,-0.03241224214434624,-0.005526272114366293,-1.001132607460022,0.7383686900138855,0.27341946959495544,-0.0323726162314415,28.87842559814453,-8.988114356994629,39.93349838256836,0
1,10118,-0.0588577464222908,0.06121068075299263,-1.0058481693267822,0.3403303325176239,0.6131327748298645,-0.05779598653316498,30.557111740112305,-9.682591438293457,38.70088577270508,0
2,19970,-0.039528023451566696,-0.042345743626356125,-0.9809045195579529,-0.15916939079761505,0.17822149395942688,-0.12985824048519135,30.65930938720703,-10.004316329956055,39.393619537353516,0
3,29922,0.0012988337548449636,-0.006034133490175009,-1.0147777795791626,0.04692324623465538,1.1863421201705933,0.6394559741020203,30.627111434936523,-10.770343780517578,39.292747497558594,0
4,40063,-0.03767550364136696,-0.051473475992679596,-0.9979434013366699,-0.03231561928987503,0.9481909275054932,0.04890741780400276,30.676298141479492,-11.558650016784668,38.63564682006836,0
5,50088,0.02724696323275566,0.10374771058559418,-1.0017145872116089,0.06999524682760239,0.21488122642040253,-0.40191277861595154,28.05425262451172,-10.304505348205566,40.34990692138672,0
6,60021,0.015249645337462425,-0.03666599094867706,-1.0050177574157715,0.20718124508857727,-0.20581509172916412,0.36202800273895264,29.491439819335938,-10.643515586853027,41.73695755004883,0
7,70007,0.01125180535018444,-0.036114081740379333,-1.0211604833602905,0.01738695614039898,0.6867471933364868,-0.5230964422225952,28.44620132446289,-10.550299644470215,38.30034255981445,0
8,79867,0.04273639991879463,-0.0015797207597643137,-0.9952442646026611,-0.31790217757225037,0.22485032677650452,-0.5799348950386047,30.48066520690918,-8.83466625213623,40.847965240478516,0
9,90143,-0.06921963393688202,-0.023349951952695847,-0.9936856627464294,-0.791893482208252,-1.1685893535614014,-0.9003996849060059,30.43939971923828,-9.350617408752441,40.73773193359375,0
10,100133,0.05495890974998474,-0.030657390132546425,-1.0171618461608887,0.3440990149974823,0.8271921277046204,-0.9331258535385132,29.879526138305664,-9.893233299255371,39.25340270996094,0
11,109865,0.017967035993933678,0.004984193481504917,-0.9713467359542847,-0.5953336954116821,-0.4001883864402771,-0.45670658349990845,30.45742416381836,-10.907979965209961,40.18053436279297,0
12,119770,-0.009275796823203564,0.0008450328023172915,-0.9893503189086914,-0.5520620346069336,-0.3365381360054016,0.30326491594314575,29.209476470947266,-11.101363182067871,41.8897705078125,0
13,129895,0.09114938974380493,0.071474589407444,-1.0000742673873901,-0.2208966463804245,-0.12987712025642395,-0.00711544044315815,28.409204483032227,-8.989903450012207,38.385162353515625,0
14,139949,0.023727690801024437,0.01998177170753479,-0.9924809336662292,0.421383261680603,0.2660713493824005,-0.1252431422472,30.58546257019043,-9.54347038269043,39.475189208984375,0
15,149849,-0.045816726982593536,-0.07131265103816986,-0.9744007587432861,-0.0435042679309845,-0.40373632311820984,-0.18241910636425018,29.323545455932617,-9.032403945922852,39.068729400634766,0
16,160047,-0.031676437705755234,-0.047376587986946106,-1.0434025526046753,0.4509096145629883,0.07221344113349915,-0.4570868909358978,29.6875057220459,-11.015213966369629,40.601844787597656,0
17,170088,0.05861011892557144,-0.024587078019976616,-1.0089231729507446,0.1660422533750534,-0.8589558601379395,0.5982028841972351,30.42723846435547,-8.958168983459473,38.88942337036133,0
18,179949,-0.0005540366983041167,-0.01702156290411949,-1.0101053714752197,-0.6367794871330261,1.0961271524429321,-0.1485585868358612,29.751991271972656,-9.236600875854492,40.06950759887695,0
19,189736,-0.03555392101407051,-0.06688014417886734,-1.0349650382995605,0.18479274213314056,-0.09463406354188919,-0.22971244156360626,31.41624641418457,-9.731603622436523,41.080413818359375,0
20,199766,-0.007891446352005005,-0.06599332392215729,-1.007348656654358,0.006407018285244703,-0.07657475769519806,0.4132862091064453,28.73230743408203,-8.964573860168457,41.25623321533203,0
21,209926,0.07310281693935394,0.022074485197663307,-0.9744771122932434,-0.13696390390396118,-0.7884543538093567,-1.166501522064209,29.048053741455078,-10.210676193237305,39.709320068359375,0
22,220494,-0.0823294073343277,-0.10755857080221176,-1.0163666009902954,-0.060936201363801956,0.00753121729940176,0.6977351903915405,30.53067970275879,-8.339167594909668,40.06077575683594,0
23,229871,0.05198431760072708,0.017617594450712204,-0.9996888041496277,0.21506533026695251,0.0534500852227211,0.037908028811216354,29.107677459716797,-9.665877342224121,39.0996208190918,0
24,240118,-0.029145684093236923,0.013756876811385155,-1.0235779285430908,0.11294997483491898,0.5667816400527954,0.08475609123706818,30.603422164916992,-10.107040405273438,40.88343811035156,0
25,250214,0.0634838417172432,0.02801642008125782,-0.9690344333648682,-0.05619267001748085,0.7092558741569519,0.0362943634390831,31.002954483032227,-9.122498512268066,39.81437683105469,0
26,260122,0.016041649505496025,-0.008655574172735214,-1.0076735019683838,0.15017931163311005,0.4110865890979767,-0.029559003189206123,29.42845344543457,-10.727169036865234,39.77336883544922,0
27,270246,-0.06252485513687134,-0.015127436257898808,-0.9938184022903442,0.5167134404182434,-0.14692352712154388,-0.0647285133600235,29.172725677490234,-9.373504638671875,39.151145935058594,0
28,280117,-0.016987036913633347,0.03452666476368904,-0.9986369609832764,-0.2308909296989441,0.08901436626911163,0.05627879872918129,30.925411224365234,-9.533111572265625,39.55649185180664,0
29,289974,-0.04546520486474037,0.048875272274017334,-1.0110526084899902,0.013693856075406075,0.6364513635635376,0.2518264651298523,29.65878677368164,-9.74035930633545,39.09376525878906,0
30,299864,0.01872832700610161,-0.00963912345468998,-0.9764299392700195,-0.2144201546907425,-0.238836869597435,-0.5858664512634277,29.23728370666504,-9.816559791564941,41.37097930908203,0
31,309711,-0.14337517321109772,-0.003556129988282919,-0.984473705291748,-0.25773194432258606,0.18738073110580444,0.8427490592002869,28.24303436279297,-11.499815940856934,39.12684631347656,0
32,320187,0.015517344698309898,0.02376614138484001,-0.9885711073875427,0.7076132893562317,0.10802989453077316,0.4807608425617218,31.32410430908203,-10.384363174438477,40.4156608581543,0
33,329884,-0.02569609135389328,0.059131696820259094,-1.0086522102355957,-0.14654970169067383,-0.6148803234100342,0.0289493165910244,29.556995391845703,-9.898625373840332,41.356163024902344,0
34,339792,0.012571102939546108,0.03686342015862465,-1.003897786140442,-0.39500942826271057,1.1032965183258057,-0.8608179092407227,30.40612030029297,-10.902627944946289,37.357879638671875,0
35,349895,0.0412372387945652,0.03159752115607262,-1.0044803619384766,0.152109757065773,0.4509754478931427,-0.6409371495246887,30.279003143310547,-9.688820838928223,38.34100341796875,0
36,359879,-0.030916288495063782,0.034995775669813156,-1.013731598854065,0.07751257717609406,-0.08394516259431839,0.4070852994918823,29.493024826049805,-12.065062522888184,39.66520690917969,0
37,369942,-0.09716754406690598,0.1070033609867096,-0.9969692230224609,0.06864722073078156,0.633739709854126,-0.7168664336204529,29.882278442382812,-9.549543380737305,40.095523834228516,0
38,379932,-0.05401986092329025,0.04402421787381172,-1.030522108078003,0.134995236992836,0.3397223651409149,-0.09906622767448425,29.779178619384766,-10.040690422058105,37.926239013671875,0
39,389778,0.014980764128267765,0.01411848608404398,-0.992884635925293,0.009895505383610725,0.9040589332580566,0.24382294714450836,28.083358764648438,-9.861309051513672,39.82700729370117,0
40,399959,0.015277117490768433,-0.04345647618174553,-0.9870700836181641,0.37455493211746216,-1.2138900756835938,0.18549683690071106,29.00034523010254,-11.586278915405273,39.487548828125,0
41,410001,-0.03292050212621689,0.014927485957741737,-1.010196566581726,-0.09938595443964005,-0.10617045313119888,0.16074006259441376,29.283649444580078,-9.837038040161133,42.04020309448242,0
42,420056,-0.020527439191937447,0.08091139048337936,-1.0037736892700195,0.5507036447525024,-0.6026999354362488,-0.24538855254650116,28.582029342651367,-8.457305908203125,40.75288772583008,0
43,429845,-0.028246037662029266,-0.08555552363395691,-0.990332841873169,-1.4934992790222168,0.837673544883728,0.5392557978630066,29.959850311279297,-9.592537879943848,39.46235656738281,0
44,439939,-0.015271882526576519,0.07060941308736801,-1.0197862386703491,-0.20995482802391052,-0.2591637670993805,0.8420513272285461,31.073593139648438,-10.515779495239258,40.274513244628906,0
45,450060,0.021198252215981483,-0.04330218583345413,-0.9986067414283752,0.1395949423313141,-0.18126042187213898,1.0026116371154785,30.076961517333984,-9.916797637939453,40.65269470214844,0
46,460039,-0.0025104221422225237,-0.032077889889478683,-0.9857892990112305,0.08287661522626877,0.5367096662521362,0.0726698562502861,31.786191940307617,-10.246108055114746,40.800689697265625,0
47,469659,-0.0008703846833668649,-0.06686233729124069,-0.997956395149231,0.3082749545574188,0.17914552986621857,-0.013467092998325825,29.970006942749023,-8.653868675231934,39.267860412597656,0
48,480075,-0.003423498710617423,0.015022638253867626,-1.0099025964736938,0.7561848759651184,0.27039480209350586,-0.41074520349502563,28.84890365600586,-10.574043273925781,40.05712127685547,0
49,489982,-0.11416924744844437,-0.004538629204034805,-1.0079371929168701,-0.32319092750549316,0.8226302862167358,0.12684567272663116,29.57451629638672,-10.477892875671387,41.247257232666016,0
50,500482,-0.06770290434360504,0.026011740788817406,-1.0131176710128784,0.46146294474601746,-0.9584728479385376,0.8459951877593994,29.779258728027344,-10.182873725891113,41.458251953125,0
51,510299,-0.0329698845744133,0.029763488098978996,-0.9850049614906311,0.6118010878562927,0.4556106925010681,-0.20177368819713593,28.491783142089844,-9.076004028320312,41.146244049072266,0
52,519729,0.00022917872411198914,0.11342543363571167,-1.0124127864837646,-0.7908686995506287,-0.07049921900033951,-0.20357410609722137,29.53598976135254,-10.127588272094727,40.29673767089844,0
53,529976,0.08966466784477234,0.09815245121717453,-1.0111112594604492,0.5821623802185059,0.1116245910525322,-0.41557371616363525,30.265308380126953,-10.503296852111816,40.01860809326172,0
54,539985,0.04637003317475319,-0.04577820003032684,-1.0239522457122803,-0.05379360169172287,0.2083488255739212,0.49743229150772095,28.825634002685547,-10.280884742736816,40.14566421508789,0
55,549859,-0.04341037571430206,0.050260040909051895,-1.0207852125167847,0.41124600172042847,-0.7364255785942078,0.29322272539138794,29.478580474853516,-10.811446189880371,39.561065673828125,0
56,559938,0.0314028300344944,0.01644924096763134,-0.9552241563796997,-0.38509559631347656,0.15622591972351074,0.00239901733584702,28.688440322875977,-10.452545166015625,39.43326187133789,0
57,569974,0.007808046415448189,0.08872302621603012,-0.9996494650840759,-0.0018613802967593074,-0.7051261067390442,0.3618529736995697,29.53786849975586,-9.975556373596191,40.49287796020508,0
58,579777,0.008693491108715534,0.017633985728025436,-0.990307092666626,-0.45248809456825256,0.16918179392814636,0.2769146263599396,30.66733169555664,-11.259687423706055,39.774085998535156,0
59,590163,0.019494935870170593,-0.010805308818817139,-1.02448308467865,-0.5481236577033997,0.34897568821907043,-0.5531944632530212,29.708375930786133,-11.165349006652832,38.01122283935547,0
60,600024,0.05370911955833435,-0.04059937596321106,-0.9972383975982666,0.25314515829086304,0.8742621541023254,0.18408584594726562,28.8647518157959,-9.526025772094727,39.674217224121094,0
61,609919,-0.014652048237621784,0.011244948022067547,-0.9980189204216003,1.1344329118728638,-0.12893100082874298,-1.1192872524261475,30.976049423217773,-9.0203218460083,38.89027786254883,0
62,620023,0.008216243237257004,0.08039303123950958,-0.9879601001739502,-0.5291213989257812,-0.002429505344480276,-0.16214168071746826,29.897071838378906,-10.849507331848145,40.21969985961914,0
63,630042,0.011563003063201904,-0.08471929281949997,-1.0063400268554688,0.08101385831832886,-0.47487518191337585,-0.3421042561531067,29.980045318603516,-8.664605140686035,40.86780548095703,0
64,639862,0.004104685969650745,0.04429011046886444,-1.0058887004852295,0.4191180169582367,0.8076756596565247,0.4510657787322998,30.280118942260742,-9.2182035446167,41.88186264038086,0
65,650166,-0.014274572022259235,0.039752840995788574,-0.9714389443397522,-0.20279622077941895,-0.583215594291687,-0.3387317359447479,29.795509338378906,-10.551347732543945,38.34477996826172,0
66,659895,0.054231755435466766,0.04465050622820854,-0.9947668313980103,-1.273939609527588,0.5344926118850708,0.3261978328227997,30.302322387695312,-11.679949760437012,40.048484802246094,0
67,669694,-0.013682794757187366,-0.03046891838312149,-1.0103082656860352,0.661960780620575,0.3768737316131592,0.1266796588897705,29.54094886779785,-7.498155117034912,39.68874740600586,0
68,680094,-0.03441242873668671,0.06202513352036476,-0.979290246963501,-0.5841282606124878,0.6688710451126099,-0.9715234041213989,29.84157371520996,-8.357155799865723,40.55000686645508,0
69,689717,0.036769770085811615,-0.01828642375767231,-0.9878686666488647,0.18865081667900085,-0.41797909140586853,0.04533779248595238,29.34344482421875,-10.315214157104492,38.99855041503906,0
70,700073,-0.12578824162483215,0.02011481113731861,-1.0052828788757324,0.7037262916564941,0.6546218991279602,-0.37868937849998474,31.65515899658203,-10.731668472290039,41.68069076538086,0
71,710062,0.018494034186005592,0.048943135887384415,-1.0100085735321045,0.6073240041732788,-0.3144838809967041,-0.5375228524208069,30.584531784057617,-10.573881149291992,39.1372184753418,0
72,719923,-0.014853546395897865,0.04638943821191788,-1.0106463432312012,0.11793383955955505,-0.08186466991901398,-0.53802490234375,31.95374298095703,-9.314726829528809,37.989322662353516,0
73,730072,0.0476476214826107,-0.04911282658576965,-1.0027316808700562,0.38691192865371704,-0.5734608769416809,-0.20105965435504913,30.616971969604492,-10.74247932434082,39.293968200683594,0
74,739986,-0.07134955376386642,-0.0634712427854538,-1.0035477876663208,-0.5782278180122375,0.3381708860397339,0.5373982787132263,29.22475814819336,-10.08907699584961,41.61134338378906,0
75,750170,0.07954104244709015,0.045192260295152664,-1.0202020406723022,-0.33351612091064453,-0.3565228581428528,-0.015637580305337906,30.677751541137695,-8.083122253417969,40.72719192504883,0
76,760010,-0.034586671739816666,0.06873246282339096,-1.0249438285827637,-0.04605366662144661,-0.6899528503417969,-0.31004396080970764,30.497739791870117,-8.576489448547363,38.68046188354492,0
77,769874,-0.023603530600667,-0.03578275814652443,-0.9637088179588318,-0.38803520798683167,-0.20200330018997192,-0.20265020430088043,29.65095329284668,-12.646090507507324,39.63515853881836,0
78,780272,0.03229620307683945,-0.073126882314682,-0.9763132333755493,-0.06346671283245087,-0.03736050799489021,-0.33599695563316345,29.550622940063477,-9.741260528564453,39.882144927978516,0
79,790054,0.003077372442930937,0.03134891390800476,-0.9940239787101746,0.35655343532562256,0.44956496357917786,-0.4829545021057129,29.57245635986328,-11.381410598754883,39.91735076904297,0
80,800071,-0.01857919618487358,-0.08016393333673477,-0.9954910278320312,-0.028868479654192924,-0.7440229058265686,-0.12459602952003479,29.632585525512695,-9.931340217590332,40.40009307861328,0
81,810009,0.02774621546268463,-0.012709416449069977,-0.9804166555404663,-0.11649618297815323,-0.007459702901542187,-0.5604335069656372,28.673778533935547,-10.360937118530273,41.01179504394531,0
82,819989,0.0047126947902143,0.02491995319724083,-1.0106275081634521,-0.818533718585968,0.5548803806304932,-0.388740211725235,30.439762115478516,-8.809280395507812,41.925296783447266,0
83,830014,-0.005699373781681061,0.015471531078219414,-1.0315412282943726,-0.2623254656791687,-0.15063655376434326,0.35805946588516235,29.45987892150879,-9.87153434753418,39.0257453918457,0
84,839896,-0.043254487216472626,-0.08455346524715424,-1.026702880859375,0.2217518538236618,-0.38878563046455383,-0.5391033887863159,28.786697387695312,-8.87220287322998,40.014930725097656,0
85,850204,-0.04238719865679741,-0.016638917848467827,-0.9801638722419739,-0.7235402464866638,0.19357828795909882,0.2011815458536148,30.47894287109375,-12.019514083862305,41.61080551147461,0
86,860290,-0.04741007462143898,-0.013239908032119274,-0.9954197406768799,0.12100169062614441,0.2041342407464981,0.8133870959281921,29.12469482421875,-12.535494804382324,40.878902435302734,0
87,869933,0.0586216039955616,-0.06947946548461914,-1.0293508768081665,0.09458348900079727,-0.2268727719783783,0.87627112865448,30.13710594177246,-9.636602401733398,39.917877197265625,0
88,879957,0.005696996580809355,0.010078986175358295,-1.0123863220214844,-0.1151900663971901,0.06640242785215378,-0.20367741584777832,29.01268768310547,-11.557662010192871,38.3442497253418,0
89,889936,0.031033163890242577,0.04250034689903259,-0.9902918934822083,0.5106538534164429,-1.0018208026885986,0.8347306847572327,29.495994567871094,-8.626113891601562,38.73567199707031,0
90,899693,-0.06538857519626617,0.043608687818050385,-1.0224157571792603,-0.06959597021341324,0.8289778232574463,0.018636533990502357,27.709457397460938,-9.7850341796875,40.033294677734375,0
91,909919,-0.06691712886095047,0.04293648153543472,-0.9633825421333313,-0.8165768980979919,0.18554271757602692,0.2064306139945984,28.673831939697266,-8.44732666015625,40.45783996582031,0
92,919984,0.014427050948143005,0.035453956574201584,-0.987157940864563,-0.05871371179819107,-0.6471916437149048,0.03421839699149132,29.915401458740234,-8.859560012817383,37.831912994384766,0
93,929908,0.13074851036071777,-0.03514392673969269,-0.9930089712142944,-0.37883424758911133,-0.0295048076659441,0.8128767609596252,31.959802627563477,-11.198972702026367,38.9368896484375,0
94,939985,-0.002432596404105425,-0.12224068492650986,-1.0317734479904175,-0.3851452171802521,0.10116655379533768,0.15330441296100616,30.91400146484375,-11.088996887207031,39.179443359375,0
95,950014,-0.07271221280097961,-0.060187552124261856,-1.0236979722976685,0.07119254767894745,0.05974224954843521,0.10232864320278168,29.7608699798584,-10.677392959594727,40.073543548583984,0
96,959517,-0.048051342368125916,-0.03953056037425995,-0.9829497933387756,-0.11993659287691116,-0.2346712201833725,-0.26020556688308716,30.0510196685791,-10.18024730682373,39.62502670288086,0
97,970000,0.014233754947781563,0.038139063864946365,-1.0225006341934204,-0.46225705742836,-0.7042804956436157,-0.6734107732772827,28.712915420532227,-9.002073287963867,40.79985427856445,0
98,979673,-0.07250995188951492,0.012803176417946815,-0.9592962265014648,0.1758074313402176,0.022058339789509773,0.3491113781929016,30.95493507385254,-9.46771240234375,40.373207092285156,0
99,989830,0.03199375793337822,0.04807702824473381,-0.9869457483291626,-0.0743882954120636,0.43321114778518677,0.5955895781517029,30.43515968322754,-11.54861831665039,40.11354446411133,0
100,999885,-0.010615214705467224,-0.14369913935661316,-0.9703136086463928,-0.3294319808483124,0.7415812015533447,-0.5368873476982117,29.431509017944336,-11.108596801757812,38.62174606323242,0
101,1010176,0.13425448536872864,0.006044373847544193,-1.0213412046432495,0.06967318803071976,-0.005674396641552448,1.1815721988677979,29.929840087890625,-10.600759506225586,40.09251403808594,0
102,1020031,0.012633435428142548,-0.004940855782479048,-0.9757377505302429,-0.5226976275444031,0.1072688177227974,1.1750092506408691,31.22435760498047,-9.94684886932373,39.55093002319336,0
103,1029975,0.055692702531814575,-0.0032977615483105183,-0.96918123960495,-0.3271848261356354,0.30727922916412354,0.14910367131233215,29.72678565979004,-11.29014778137207,40.61260223388672,0
104,1039923,-0.028022928163409233,0.008909679017961025,-0.9945778846740723,-0.7629599571228027,-0.19380933046340942,0.16696354746818542,28.776613235473633,-9.773070335388184,38.40107727050781,0
105,1050018,-0.01907362975180149,0.004165134858340025,-0.960896909236908,0.40613648295402527,0.1112951785326004,-0.4964445233345032,30.29275131225586,-11.034820556640625,38.897457122802734,0
106,1059870,0.006802511867135763,-0.06840269267559052,-0.9847480058670044,-0.04688383638858795,-0.49989378452301025,0.12894128262996674,29.22565460205078,-9.867069244384766,38.55046081542969,0
107,1069914,0.07087889313697815,-0.03257384151220322,-1.0136635303497314,-0.7128663063049316,-0.7686805725097656,-0.5504693984985352,30.664974212646484,-9.717143058776855,41.81254959106445,0
108,1079770,0.06338745355606079,-0.04616224765777588,-1.0238291025161743,-0.9420369863510132,0.2420634627342224,-0.5271766185760498,28.54698371887207,-8.464126586914062,39.25069808959961,0
109,1089936,0.03365029767155647,-0.08787888288497925,-1.0187427997589111,-0.5864315032958984,-0.015591531991958618,-0.1101682260632515,30.345905303955078,-11.029678344726562,39.029903411865234,0
110,1099887,0.021500978618860245,0.013850823976099491,-1.0107526779174805,-0.5837859511375427,0.3272090554237366,-0.04611963406205177,31.583898544311523,-11.24376392364502,39.73239517211914,0
111,1109789,0.052862748503685,0.03355807811021805,-0.9785693287849426,0.4054688513278961,0.30838602781295776,-0.3093658983707428,27.54481315612793,-10.522721290588379,39.48732376098633,0
112,1119942,-0.034979198127985,0.114059217274189,-1.0212877988815308,-0.06797514110803604,0.3890911936759949,-0.11743780225515366,29.994470596313477,-9.830849647521973,41.00875473022461,0
113,1130096,0.02641385793685913,-0.040942054241895676,-0.9894185066223145,-0.2721696197986603,-0.7260134220123291,-0.2680928111076355,31.108936309814453,-10.134072303771973,38.27524185180664,0
114,1139935,-0.04621409252285957,0.023080110549926758,-1.0372613668441772,0.7633015513420105,-0.3518751561641693,-0.09519512951374054,31.773853302001953,-11.307147026062012,39.877037048339844,0
115,1149986,0.007555794902145863,0.006766499951481819,-1.0328178405761719,0.021075131371617317,-1.071488380432129,0.41708609461784363,29.075687408447266,-9.425836563110352,40.35450744628906,0
116,1160177,-0.057091906666755676,-0.07563626021146774,-0.9527561068534851,-0.3675549626350403,-0.12776637077331543,0.4552164077758789,28.377212524414062,-11.921029090881348,39.94341278076172,0
117,1170137,0.0614611953496933,-0.0467330627143383,-0.9816091656684875,-0.5738674402236938,0.003043287666514516,-0.17231155931949615,29.9456844329834,-9.4744873046875,40.49996566772461,0
118,1180187,0.016247186809778214,0.049696870148181915,-0.9559502601623535,1.1226484775543213,-0.34523695707321167,-0.297994464635849,29.623271942138672,-11.503350257873535,41.030033111572266,0
119,1189956,0.04108082130551338,-0.001422806759364903,-0.9778655171394348,-1.4111233949661255,0.3826533854007721,-0.6392521262168884,31.006500244140625,-10.101372718811035,39.62002944946289,0
120,1199846,0.04563547298312187,-0.022145438939332962,-0.99730384349823,0.24199455976486206,-0.04125888645648956,-0.21589604020118713,30.037187576293945,-10.495683670043945,39.88539505004883,0
121,1210252,0.009633219800889492,-0.018442587926983833,-1.029964566230774,0.2209119349718094,-0.07965464890003204,-0.14782825112342834,28.60035514831543,-10.568466186523438,40.085506439208984,0
122,1220277,-0.036097828298807144,-0.021659286692738533,-0.9849898815155029,-0.19027778506278992,-0.7278722524642944,-0.1191260889172554,31.136377334594727,-9.857972145080566,42.856014251708984,0
123,1230080,-0.006978677585721016,0.012965524569153786,-1.0188275575637817,0.12678471207618713,0.3109138309955597,-0.4166449308395386,28.342504501342773,-10.538026809692383,40.795413970947266,0
124,1239940,0.08028534054756165,0.05542962625622749,-0.9899234175682068,-0.8247854113578796,0.08073530346155167,-0.2006116658449173,31.197263717651367,-11.243348121643066,40.86022186279297,0
125,1250000,-0.0574345663189888,0.008037175051867962,-0.9680835008621216,-0.6681881546974182,-0.4491787850856781,-0.09140440076589584,29.85267448425293,-10.26371955871582,40.68277359008789,0
126,1260234,0.024448228999972343,0.12510350346565247,-0.988264799118042,0.31666573882102966,0.3976679742336273,-0.42425087094306946,28.364717483520508,-11.476146697998047,40.010581970214844,0
127,1270103,0.0054664951749145985,0.022372247651219368,-0.9992338418960571,0.2697555422782898,-0.620368242263794,0.07046957314014435,30.29939079284668,-8.050789833068848,39.314517974853516,0
128,1279846,-0.049816157668828964,0.09580305963754654,-1.0269794464111328,0.7673736214637756,0.6066453456878662,-0.08791425079107285,30.2219295501709,-9.457935333251953,40.560394287109375,0
129,1290023,0.04305478557944298,-0.0022625860292464495,-0.9911949634552002,0.495286226272583,-0.26365143060684204,-0.13656897842884064,30.264101028442383,-11.422317504882812,39.27006149291992,0
130,1299779,-0.026052244007587433,0.09110017120838165,-1.0207990407943726,0.1427803635597229,0.5557767152786255,0.4262406527996063,30.43074607849121,-8.678950309753418,40.046241760253906,0
131,1309943,-0.008898450061678886,-0.03602712228894234,-0.9957023859024048,-0.18023483455181122,0.11246385425329208,0.49946320056915283,29.964616775512695,-9.6001615524292,41.26536178588867,0
132,1319973,0.030491823330521584,0.029705973342061043,-0.9981886148452759,-0.7641938328742981,-0.1916162073612213,-0.18952709436416626,28.82236099243164,-8.004284858703613,39.410308837890625,0
133,1329901,-0.014226874336600304,-0.011539958417415619,-0.9942421913146973,-0.34027305245399475,-0.38436445593833923,0.0344245582818985,29.118818283081055,-10.036202430725098,41.312042236328125,0
134,1340177,0.05930730327963829,-0.06539711356163025,-1.0069273710250854,0.5273339152336121,0.7355789542198181,-0.06710732728242874,28.73883819580078,-9.864561080932617,37.16258239746094,0
135,1349861,-0.008240476250648499,-0.025028899312019348,-1.0092769861221313,0.030601218342781067,0.39555421471595764,-0.5846436619758606,31.490495681762695,-10.603723526000977,40.50419235229492,0
136,1360122,0.041415490210056305,0.03037024661898613,-1.006456732749939,0.034735482186079025,0.09887643903493881,0.46281924843788147,28.013166427612305,-10.9271240234375,40.730228424072266,0
137,1370091,0.09597199410200119,-0.034704118967056274,-0.9861976504325867,0.6083936095237732,0.01892714574933052,-0.1104695051908493,29.096759796142578,-7.730982303619385,39.51749801635742,0
138,1379954,0.027091484516859055,0.029931670054793358,-0.987458348274231,-0.28922268748283386,-0.6226024031639099,0.32894206047058105,29.570310592651367,-9.228870391845703,39.62772750854492,0
139,1390132,0.10539689660072327,-0.03436405956745148,-1.013944387435913,-0.2115631103515625,0.3695853352546692,0.18257562816143036,28.888267517089844,-11.740644454956055,42.30203628540039,0
140,1400063,0.0515880323946476,-0.02833542786538601,-1.009069561958313,-0.248373880982399,0.45625796914100647,-0.5125196576118469,29.629924774169922,-9.7568998336792,41.786136627197266,0
141,1409903,0.07424193620681763,0.03470546007156372,-0.9976869225502014,-0.44472649693489075,0.35721978545188904,-0.6886873245239258,29.094676971435547,-8.612337112426758,39.43098831176758,0
142,1419860,0.03347737342119217,0.020217785611748695,-1.0080152750015259,-0.3666233420372009,0.3350570499897003,1.3855078220367432,30.506654739379883,-11.191349029541016,39.21937942504883,0
143,1429806,0.04782946780323982,0.008645221590995789,-1.0227255821228027,0.2927275598049164,0.6927541494369507,-0.5576140880584717,29.565406799316406,-8.485525131225586,39.38282775878906,0
144,1440119,-0.0692126452922821,-0.052505940198898315,-1.0210697650909424,0.6630455255508423,0.22391566634178162,-1.0767911672592163,30.557811737060547,-9.873516082763672,39.93000793457031,0
145,1449832,-0.011471004225313663,-0.06747230142354965,-0.9657337069511414,-0.11499035358428955,-0.5476260781288147,-0.3943827748298645,30.61342430114746,-9.64462661743164,40.22079086303711,0
146,1460036,-0.02085656300187111,0.01886957325041294,-0.9651325941085815,-0.5393599271774292,0.6586029529571533,0.1339820921421051,29.992721557617188,-8.547048568725586,39.93300247192383,0
147,1469829,0.03333026543259621,-0.12074053287506104,-1.0049606561660767,-0.2565918266773224,-0.15172308683395386,-1.088808536529541,30.457368850708008,-9.579182624816895,38.356510162353516,0
148,1480237,-0.07623228430747986,-0.023021582514047623,-0.9728034138679504,-0.4370245039463043,0.5982813239097595,-0.2681741416454315,29.738422393798828,-10.583596229553223,38.964908599853516,0
149,1490033,0.02945437654852867,-0.006438557989895344,-1.0260342359542847,0.12787164747714996,-0.36048758029937744,-0.578539252281189,31.415307998657227,-10.282078742980957,39.58500671386719,0
150,1500158,0.026735415682196617,0.01568431407213211,-0.9901645183563232,-0.4249708652496338,-0.4646744728088379,-0.19495709240436554,29.612977981567383,-11.525674819946289,41.09964370727539,0
151,1509911,-0.06326739490032196,-0.026783470064401627,-1.0166982412338257,-0.44951677322387695,0.6436776518821716,0.01752452552318573,29.62579345703125,-10.295607566833496,39.17268371582031,0
152,1520241,-0.015578065067529678,-0.012687254697084427,-0.9857123494148254,0.08199655264616013,-0.48996517062187195,-0.6322213411331177,29.342262268066406,-9.577998161315918,40.13486862182617,0
153,1530235,-0.03876244276762009,0.0011181470472365618,-0.9768074750900269,0.30916789174079895,-0.32336530089378357,1.1841775178909302,29.52415657043457,-11.249581336975098,38.803104400634766,0
154,1539985,0.07885412126779556,0.028955895453691483,-1.0169987678527832,0.28941085934638977,0.52137690782547,-0.10064344853162766,31.5622615814209,-12.125280380249023,38.3653450012207,0
155,1550035,0.007570707239210606,-0.06541289389133453,-1.0018105506896973,-0.6326261162757874,0.33575737476348877,0.822314441204071,30.491378784179688,-10.241668701171875,40.555702209472656,0
156,1559889,0.008737053722143173,-0.017355291172862053,-0.9879179000854492,-0.2080284059047699,-0.0064471266232430935,-0.6370680928230286,30.813976287841797,-8.689079284667969,37.646644592285156,0
157,1569861,0.00151620723772794,0.05778636783361435,-0.9667927622795105,0.37904438376426697,0.6299991011619568,0.0764932706952095,30.39714813232422,-9.199493408203125,40.788330078125,0
158,1579928,0.02328822948038578,0.02735629677772522,-0.9961499571800232,-0.35444068908691406,0.17443162202835083,-0.2532471716403961,30.177120208740234,-10.251242637634277,41.1866340637207,0
159,1589948,-0.040404848754405975,-0.03835226595401764,-1.0321422815322876,-0.165200337767601,-0.26192542910575867,-0.25407281517982483,29.73577117919922,-10.016979217529297,40.844322204589844,0
160,1599936,-0.019584285095334053,-0.0804280936717987,-0.9987531900405884,0.13249681890010834,-0.19859831035137177,0.5143530368804932,31.545564651489258,-11.716227531433105,40.34584045410156,0
161,1610127,-0.0008832326857373118,0.0045989807695150375,-1.0528340339660645,0.7819561958312988,-0.28080081939697266,0.1197279840707779,30.85259437561035,-9.906326293945312,39.39705276489258,0
162,1620183,0.03364356607198715,0.019132766872644424,-1.0294897556304932,-0.13809125125408173,0.28984516859054565,-1.0906322002410889,31.40332794189453,-9.434054374694824,37.94791793823242,0
163,1630047,0.013680126518011093,0.09730876237154007,-0.9767453670501709,-0.4177006781101227,-0.021201690658926964,-0.4062735140323639,29.84613800048828,-10.778499603271484,40.332279205322266,0
164,1640196,-0.017073486000299454,0.007790604140609503,-1.004791498184204,-0.903161346912384,0.42515742778778076,0.16331300139427185,30.798669815063477,-12.031100273132324,41.24657440185547,0
165,1649985,-0.05771811306476593,0.08798518031835556,-0.9878772497177124,0.2048952430486679,-0.18777069449424744,0.11116576939821243,28.71120834350586,-9.82648754119873,38.022701263427734,0
166,1659846,0.0973520427942276,-0.10134085267782211,-0.997881293296814,-0.06268646568059921,-0.7173746228218079,-0.2077564001083374,30.386184692382812,-9.694388389587402,39.71254348754883,0
167,1669958,-0.0182757917791605,0.023625845089554787,-0.982218861579895,0.5243702530860901,0.7602232694625854,0.9656367897987366,28.63248634338379,-8.410438537597656,39.23553466796875,0
168,1679859,0.027921577915549278,0.10278203338384628,-1.027896761894226,0.8774040341377258,-0.32100990414619446,0.4254859685897827,29.80740737915039,-9.707989692687988,41.28982162475586,0
169,1689669,0.047433748841285706,0.02830834500491619,-1.0444278717041016,-0.6255757212638855,-1.3879647254943848,-0.3229133188724518,28.47823143005371,-10.632624626159668,39.0225830078125,0
170,1700181,0.0358499251306057,-0.05158040300011635,-1.0007487535476685,-0.3592582046985626,-0.3562370240688324,-0.5175114870071411,30.610027313232422,-8.870476722717285,38.272972106933594,0
171,1710066,0.011962703429162502,0.006594143342226744,-0.994647741317749,0.21207532286643982,0.7068909406661987,0.759529709815979,28.245716094970703,-10.27529239654541,39.807098388671875,0
172,1720265,-0.04028697684407234,0.022977609187364578,-0.9685017466545105,0.04113660752773285,-0.09351804107427597,-0.19243375957012177,32.08629608154297,-9.216891288757324,41.339210510253906,0
173,1730112,0.029922613874077797,0.03375585377216339,-1.000492811203003,-0.23340298235416412,-0.7753951549530029,0.45474565029144287,30.46723175048828,-10.742807388305664,37.890716552734375,0
174,1739952,-0.0008685674401931465,0.021928252652287483,-1.007206916809082,-0.26383811235427856,0.22903166711330414,0.002918160054832697,30.003555297851562,-12.897863388061523,40.22756576538086,0
175,1750175,-0.01653161272406578,-0.020921865478157997,-1.0138624906539917,0.35388508439064026,0.049291063100099564,0.9671727418899536,29.995662689208984,-10.67074203491211,41.22914123535156,0
176,1759875,-0.054407257586717606,-0.034881506115198135,-0.9689739346504211,-0.5348954796791077,-0.9892914891242981,-0.03312743827700615,29.84364128112793,-12.131743431091309,38.11060333251953,0
177,1770036,-0.07235007733106613,0.011102871038019657,-0.9882556796073914,-0.16388604044914246,0.08246251195669174,0.8766886591911316,29.730072021484375,-9.966032981872559,40.526363372802734,0
178,1779891,-0.09023483842611313,-0.019133390858769417,-0.9993063807487488,-0.11360287666320801,-0.17650754749774933,-1.0422166585922241,29.29707145690918,-8.852313041687012,41.03044128417969,0
179,1790028,-0.08066879957914352,0.021291766315698624,-1.0020018815994263,-0.42843061685562134,-0.011311613954603672,-0.07782355695962906,29.77396011352539,-8.72978687286377,38.993534088134766,0
180,1799834,0.010859709233045578,0.00934792123734951,-0.97496497631073,-0.03880010172724724,0.7724065780639648,0.0011846129782497883,30.501781463623047,-10.350104331970215,39.36497497558594,0
181,1809960,-0.02611301653087139,0.0552280992269516,-1.0003433227539062,0.09748683124780655,0.42585086822509766,0.15270625054836273,30.292566299438477,-8.939316749572754,40.311885833740234,0
182,1820026,0.036620400846004486,0.02715805172920227,-0.9750564098358154,0.244974285364151,0.21995379030704498,0.3987424969673157,27.61785125732422,-11.17602252960205,39.86909103393555,0
183,1830376,0.024417322129011154,-0.007965994998812675,-0.982367217540741,0.10064706951379776,0.5701088309288025,0.7253702282905579,30.075458526611328,-8.083911895751953,39.837528228759766,0
184,1840019,-0.0009215303580276668,0.013000458478927612,-1.0389213562011719,0.004001092631369829,-0.5265606641769409,-0.2895980775356293,29.67310905456543,-9.107353210449219,40.54051208496094,0
185,1849889,-0.02382412552833557,-0.07353637367486954,-0.9639616012573242,0.6890759468078613,-0.8164715766906738,-0.3860457241535187,29.655170440673828,-8.52395248413086,39.64659118652344,0
186,1860124,-0.004792952910065651,0.020477673038840294,-0.9811128973960876,-0.5642237663269043,-0.21271291375160217,-0.25646474957466125,30.87330436706543,-8.945239067077637,39.90224075317383,0
187,1869889,0.03618648648262024,0.04911224544048309,-1.0350261926651,0.22239482402801514,1.3956892490386963,1.2284494638442993,31.777833938598633,-10.016130447387695,40.10599136352539,0
188,1880270,-0.03238582983613014,-0.0008468429441563785,-1.0425411462783813,0.16139216721057892,-0.21059848368167877,0.18007200956344604,29.40373420715332,-9.039302825927734,40.662574768066406,0
189,1889929,0.023122547194361687,-0.050085052847862244,-1.0026543140411377,0.619692325592041,-0.6417357325553894,-1.015189290046692,30.637489318847656,-10.615676879882812,39.768035888671875,0
190,1899745,-0.1172991544008255,-0.0008085035369731486,-1.000903606414795,0.6275593638420105,0.2897363305091858,-0.6023572087287903,30.690000534057617,-11.118001937866211,37.95964813232422,0
191,1909986,-0.043430548161268234,-0.010670464485883713,-1.0080654621124268,-0.28273916244506836,-0.9995188117027283,0.2591329514980316,29.34893035888672,-9.431734085083008,40.87431335449219,0
192,1920167,-0.022510113194584846,-0.10986558347940445,-0.9525623917579651,0.028918204829096794,0.5611041188240051,0.9880016446113586,28.29684829711914,-9.115152359008789,40.040992736816406,0
193,1930210,-0.028484484180808067,0.09308142215013504,-1.018284797668457,0.32054874300956726,-0.6018506288528442,-0.1883549839258194,30.147092819213867,-9.539826393127441,41.52743911743164,0
194,1939904,0.038739174604415894,0.018923388794064522,-0.9919949769973755,0.10937128961086273,-0.011597082018852234,0.23647138476371765,29.772960662841797,-9.031166076660156,38.86911392211914,0
195,1950113,0.004115703050047159,-0.048741575330495834,-0.954751193523407,0.2089027613401413,-0.2162029892206192,-0.17902082204818726,28.82968521118164,-10.3219633102417,39.936492919921875,0
196,1959720,-0.04070975258946419,0.09502178430557251,-0.9501336216926575,0.016302648931741714,0.22618183493614197,-0.17999131977558136,29.022106170654297,-10.703906059265137,40.704952239990234,0
197,1969946,0.0199184138327837,-0.06966128200292587,-1.0061631202697754,0.9739180207252502,-0.9383875131607056,-0.0008987401961348951,30.082386016845703,-11.717679023742676,39.7297477722168,0
198,1980037,-0.01593269407749176,-0.06688275188207626,-1.00321626663208,0.5781967043876648,-0.21531324088573456,-0.18103313446044922,29.862756729125977,-11.195361137390137,39.47892379760742,0
199,1989700,-0.03965303301811218,-0.07180992513895035,-1.0161899328231812,-0.20005884766578674,0.6670117378234863,0.8418611288070679,29.035781860351562,-9.999794960021973,40.2190055847168,0
200,2000166,0.10077487677335739,-0.0359211266040802,-1.0024858713150024,-0.8341687917709351,-0.18894587457180023,0.11519420892000198,30.03022575378418,-11.106375694274902,39.952388763427734,0
201,2010270,-0.02811620756983757,0.08249608427286148,-0.9825451374053955,0.47673356533050537,-0.41151145100593567,0.34929487109184265,30.557600021362305,-8.708954811096191,40.83994674682617,0
202,2020100,0.05824682116508484,-0.0025888567324727774,-0.9818392992019653,-0.8085483908653259,0.8009861707687378,-0.09358666837215424,29.953269958496094,-10.370445251464844,40.3974494934082,0
203,2030346,0.008495473302900791,0.00889559555798769,-1.0134440660476685,0.27718913555145264,-0.700573205947876,-0.24707865715026855,30.824308395385742,-8.942273139953613,41.60373306274414,0
204,2040101,0.006381767336279154,0.012647335417568684,-0.9953141212463379,1.2607229948043823,0.3282462954521179,0.07016173750162125,29.792285919189453,-9.805399894714355,38.25649642944336,0
205,2050011,0.00962685327976942,-0.0010845382930710912,-1.0104436874389648,-0.40004730224609375,-0.5696645379066467,-0.6645721793174744,29.959775924682617,-9.744153022766113,42.76771926879883,0
206,2060088,0.06093760207295418,0.04160473123192787,-0.9859278798103333,0.11272766441106796,0.6747193932533264,-0.13654568791389465,29.703317642211914,-8.487853050231934,39.43288040161133,0
207,2069690,0.021010613068938255,0.01663089357316494,-1.0113869905471802,-0.7262471914291382,-0.1828756332397461,0.08691699057817459,29.62234115600586,-10.457280158996582,41.21488571166992,0
208,2079999,0.006163124926388264,-0.052958354353904724,-0.9610558748245239,-0.9240009188652039,-0.47338953614234924,1.3636888265609741,29.33820152282715,-8.20351791381836,40.276611328125,0
209,2090036,-0.023847095668315887,-0.02446061372756958,-0.9864992499351501,0.6903088688850403,-0.2352622151374817,-0.022036343812942505,29.602752685546875,-10.27896499633789,39.89567565917969,0
210,2100112,0.11966291069984436,0.02529098466038704,-0.9775002598762512,1.10063898563385,0.42455872893333435,-0.7864978313446045,31.38077735900879,-10.333802223205566,39.93412780761719,0
211,2109856,-0.007896496914327145,-0.038557086139917374,-0.9766945838928223,-0.5336187481880188,-0.14963115751743317,-0.14994031190872192,29.922887802124023,-11.099047660827637,39.30143737792969,0
212,2119906,0.014815871603786945,-0.07304269075393677,-1.0125147104263306,0.11633192747831345,0.28098511695861816,-0.08287135511636734,29.034204483032227,-9.792871475219727,39.84601974487305,0
213,2129854,-0.004608123563230038,0.014097015373408794,-0.9674208164215088,-0.19504787027835846,-0.7493473291397095,-0.7106096148490906,30.210983276367188,-9.892991065979004,41.09077453613281,0
214,2139894,0.05767916887998581,0.001100787427276373,-0.9935089349746704,0.18161045014858246,0.12061139196157455,0.0904250368475914,31.012311935424805,-10.197336196899414,40.10295867919922,0
215,2149880,-0.01798993907868862,0.018160667270421982,-1.0028905868530273,-0.7044941782951355,0.24098579585552216,-0.3175176680088043,28.379758834838867,-9.137094497680664,41.477298736572266,0
216,2160057,0.048159409314394,-0.051832977682352066,-1.0000851154327393,0.6231895089149475,-0.004545841831713915,-0.3962436318397522,29.650461196899414,-9.668524742126465,41.42051696777344,0
217,2169836,0.013655421324074268,0.013753188773989677,-1.0048232078552246,0.41497984528541565,0.26826953887939453,0.14084042608737946,30.19378089904785,-8.682076454162598,40.34187698364258,0
218,2180079,0.05406385287642479,0.10535036772489548,-0.9620323181152344,0.4661056697368622,-0.337474524974823,-0.5075706839561462,30.10029411315918,-9.95098876953125,39.933258056640625,0
219,2190093,0.007158308289945126,0.0743049904704094,-1.0078039169311523,-0.2708176076412201,0.4024190604686737,0.47980502247810364,30.34210777282715,-10.930473327636719,39.233184814453125,0
220,2199959,0.016331501305103302,-0.031002741307020187,-0.9736627340316772,0.0910504013299942,0.7489758729934692,-0.6643650531768799,30.26544761657715,-11.597750663757324,38.77640151977539,0
221,2210071,0.016851838678121567,0.08958645164966583,-1.0081346035003662,-0.5672712326049805,-0.287352591753006,-1.0356954336166382,30.29828643798828,-9.159406661987305,38.93877410888672,0
222,2219736,-0.05130111426115036,0.08162161707878113,-1.0308866500854492,1.147348165512085,-0.33591896295547485,0.6233401298522949,29.809917449951172,-9.39828872680664,40.210689544677734,0
223,2230039,-0.016215547919273376,-0.00563456118106842,-1.0027445554733276,0.41706594824790955,-0.5837695002555847,-0.006115906871855259,29.646821975708008,-8.832972526550293,39.518367767333984,0
224,2240149,-0.010356707498431206,0.03650221601128578,-1.0370514392852783,-0.4140264391899109,0.7306370139122009,-0.1703004390001297,30.88591766357422,-10.746650695800781,38.52897644042969,0
225,2250019,0.02615186758339405,-0.003466059686616063,-1.0052039623260498,-0.2468067705631256,-0.10480480641126633,0.6483618021011353,30.21492576599121,-9.028868675231934,40.98229217529297,0
226,2260380,-0.005414250306785107,0.0865292176604271,-0.9974185228347778,0.5664989948272705,-0.15992161631584167,0.23720014095306396,29.935556411743164,-12.669440269470215,39.12721252441406,0
227,2269980,-0.0064681158401072025,0.10575222223997116,-0.9641227722167969,-0.4696802496910095,-0.3761710524559021,-1.2641716003417969,29.895170211791992,-10.565567970275879,39.7236442565918,0
228,2280149,0.1120351031422615,-0.05796147882938385,-0.9796496629714966,0.6820966005325317,0.2971000671386719,-0.2664763033390045,31.979644775390625,-9.542767524719238,39.65644454956055,0
229,2290070,-0.05731157213449478,0.005498632322996855,-1.0222824811935425,0.18035173416137695,-0.07217983156442642,-0.11238569021224976,32.1324577331543,-9.70943832397461,39.49302673339844,0
230,2299875,0.016277851536870003,-0.038757648319005966,-0.9952058792114258,0.7373830676078796,-0.19672845304012299,-0.5356165766716003,29.533212661743164,-10.967888832092285,40.85770034790039,0
231,2310099,-0.001385559095069766,-0.06496366113424301,-0.9891569018363953,0.5924829840660095,0.4362359941005707,-0.6697278022766113,28.915544509887695,-9.194561958312988,40.249298095703125,0
232,2320146,0.013586965389549732,-0.0379212312400341,-0.97818922996521,-0.5599210262298584,-0.5575177669525146,-1.0581998825073242,28.795692443847656,-11.084659576416016,41.67629623413086,0
233,2329886,0.08730417490005493,-0.0034128359984606504,-0.9737010598182678,-0.3413628339767456,0.11327041685581207,-0.06181636452674866,30.129623413085938,-9.54322624206543,39.94956970214844,0
234,2340076,0.10126746445894241,-0.025793911889195442,-1.0041351318359375,0.6305034160614014,-0.2894517481327057,-0.17415392398834229,30.433719635009766,-9.247836112976074,40.89970397949219,0
235,2349973,-0.013902521692216396,-0.024381443858146667,-0.9954306483268738,-0.1774289906024933,-0.19683465361595154,0.6731476187705994,31.203533172607422,-12.320944786071777,40.93698501586914,0
236,2360085,0.07245714217424393,0.09587942808866501,-0.999832272529602,0.4026363492012024,-0.5202212929725647,-1.0383325815200806,29.038908004760742,-9.088906288146973,40.38888931274414,0
237,2369912,-0.001390456804074347,-0.040706370025873184,-1.0051486492156982,0.21821054816246033,-0.00663906941190362,-0.14229442179203033,29.958637237548828,-9.390100479125977,41.30923843383789,0
238,2379966,0.02247682772576809,-0.03394036367535591,-0.9913151264190674,1.0264180898666382,0.8577392101287842,0.5628911852836609,30.63896942138672,-11.079730033874512,42.2067985534668,0
239,2390150,0.01718886010348797,0.012960366904735565,-1.0113798379898071,-0.4039120674133301,0.5184975266456604,-1.0730425119400024,31.393875122070312,-10.454792022705078,39.381439208984375,0
240,2400059,-0.024010278284549713,-0.0007009568507783115,-1.0015602111816406,-0.45960769057273865,0.07104840129613876,0.05082789435982704,28.40042495727539,-11.667530059814453,39.55263137817383,0
241,2409938,0.03575083985924721,-0.01613304205238819,-0.9497385025024414,-0.047604918479919434,-0.22504250705242157,0.03156806901097298,29.545787811279297,-9.512964248657227,38.65184020996094,0
242,2420045,-0.03833816200494766,0.006991978269070387,-1.0123217105865479,-0.589208722114563,-0.30794623494148254,-0.12527063488960266,30.203182220458984,-10.26834774017334,39.88628005981445,0
243,2429931,0.00562088331207633,0.01356431283056736,-0.9976509213447571,-0.41554948687553406,-0.08060164004564285,0.6533669233322144,28.185766220092773,-10.49450969696045,39.279266357421875,0
244,2439941,0.08584261685609818,0.008440714329481125,-0.9915148615837097,-0.49159693717956543,0.010765774175524712,-0.029062101617455482,30.67095184326172,-9.531807899475098,39.88542556762695,0
245,2449986,-0.0009006634936667979,0.0743967741727829,-1.0064955949783325,0.4285871088504791,0.046722412109375,0.08540148288011551,28.16774559020996,-10.498298645019531,41.74202346801758,0
246,2459928,-0.06087575852870941,0.092021644115448,-1.0212242603302002,-0.7398682236671448,0.07559317350387573,-0.10338450223207474,28.61171531677246,-9.698927879333496,41.41118621826172,0
247,2469913,-0.021354760974645615,-0.09968686103820801,-0.9865531921386719,0.03954556956887245,0.1295475959777832,-0.11078833788633347,30.505441665649414,-10.792311668395996,41.60837173461914,0
248,2480144,0.03926647827029228,-0.04858437553048134,-1.0217885971069336,0.3324696719646454,-0.31917062401771545,0.055302370339632034,30.42184066772461,-9.652437210083008,41.015960693359375,0
249,2489929,0.006448572967201471,0.028507201001048088,-1.0017473697662354,-0.18564170598983765,0.0685909241437912,0.15191935002803802,29.799959182739258,-11.287099838256836,40.50712966918945,0
250,2500122,-0.09020775556564331,-0.023408235982060432,-1.0118820667266846,0.2272540181875229,0.37982508540153503,0.6777137517929077,29.666393280029297,-9.162541389465332,39.81624984741211,0
251,2509887,-0.036448538303375244,0.042740821838378906,-0.9922693967819214,0.36527636647224426,-0.010467398911714554,-0.41283097863197327,31.45685577392578,-9.143637657165527,39.06639862060547,0
252,2520002,0.030504200607538223,0.0172334685921669,-1.023616075515747,0.2594272494316101,0.4341147243976593,0.2264588475227356,29.623138427734375,-9.38532829284668,38.59191131591797,0
253,2530010,0.054037243127822876,0.016855215653777122,-0.9937268495559692,-0.48682305216789246,0.6264703869819641,-0.21347910165786743,29.529075622558594,-10.038344383239746,39.56184387207031,0
254,2539932,0.09135463833808899,-0.01642667129635811,-0.996453583240509,-0.6805317997932434,-0.143905907869339,-0.21308842301368713,28.62957763671875,-11.382433891296387,41.89776611328125,0
255,2550074,-0.04034185782074928,0.04558507353067398,-0.9949072599411011,-0.4406035244464874,-0.8570940494537354,0.8545922636985779,29.689712524414062,-9.398696899414062,38.84161376953125,0
256,2559849,-0.017684562131762505,0.04814472422003746,-0.9962997436523438,-0.7944410443305969,0.0008056542137637734,-0.361309289932251,31.399837493896484,-10.964591026306152,39.526397705078125,0
257,2570419,-0.04314330965280533,0.035583194345235825,-1.0268621444702148,-0.799509584903717,-0.05887167155742645,-1.2463852167129517,28.10798454284668,-7.528249740600586,40.89734649658203,0
258,2579690,-0.029513701796531677,0.13672858476638794,-0.9969441294670105,0.0059638191014528275,0.9084586501121521,0.5203068256378174,28.9931697845459,-8.785322189331055,39.3283805847168,0
259,2590177,-0.05822125822305679,-0.01862560212612152,-0.9861546158790588,0.3326205611228943,0.2736096978187561,0.7808676362037659,30.78368377685547,-8.623220443725586,39.93944549560547,0
260,2599955,0.01677497662603855,-0.03572637215256691,-1.0217797756195068,-0.42057740688323975,-0.2333502173423767,1.1699258089065552,29.244365692138672,-8.687559127807617,40.22222137451172,0
261,2610108,0.022340307012200356,0.02232503518462181,-1.0367186069488525,-0.2563374638557434,0.2317136824131012,-1.0925042629241943,31.525697708129883,-8.902241706848145,41.7081298828125,0
262,2620021,0.053826119750738144,0.053064871579408646,-0.9960748553276062,-0.08525917679071426,0.6444821953773499,-0.6727808117866516,29.63800811767578,-10.482772827148438,38.574302673339844,0
263,2630333,0.053924933075904846,-0.024406561627984047,-0.9823196530342102,-0.10838080942630768,-0.38193997740745544,-0.06317821145057678,30.790584564208984,-8.549236297607422,39.479251861572266,0
264,2640024,0.02978500910103321,-0.012244503945112228,-1.0294746160507202,0.2401156723499298,-0.8257855176925659,0.2641419470310211,29.181804656982422,-10.827361106872559,41.688072204589844,0
265,2650111,-0.07706126570701599,-0.03703794628381729,-1.0001087188720703,0.7795892953872681,-0.08107488602399826,0.4880708158016205,30.75583839416504,-11.691788673400879,39.895877838134766,0
266,2659882,0.03645501285791397,-0.037125904113054276,-1.0137805938720703,-0.11830539256334305,0.8748586177825928,0.20896893739700317,28.756879806518555,-11.779402732849121,39.34518051147461,0
267,2669865,-0.025273306295275688,-0.06557469815015793,-1.0394114255905151,-0.19391483068466187,-0.4102887213230133,0.6590819954872131,29.652271270751953,-11.184172630310059,41.365478515625,0
268,2680031,-0.014275096356868744,-0.05942276120185852,-1.0318257808685303,0.18517912924289703,-0.16463181376457214,-0.04869100823998451,30.983366012573242,-8.971827507019043,39.41310501098633,0
269,2690228,0.06591788679361343,0.029488973319530487,-1.003699779510498,-0.05169885605573654,-0.08643609285354614,-0.292779803276062,29.76633644104004,-9.710647583007812,39.556888580322266,0
270,2699811,-0.01418412197381258,-0.0538468211889267,-0.9887912273406982,-0.2758122682571411,-1.14694082736969,0.37522032856941223,30.99071502685547,-10.62889575958252,40.898033142089844,0
271,2710233,-0.006127853877842426,0.005500875413417816,-1.0054246187210083,0.5183963775634766,0.4604783356189728,-0.6193236708641052,28.829483032226562,-11.093574523925781,37.846092224121094,0
272,2720105,0.05830514803528786,-0.056664444506168365,-1.0237274169921875,0.5045430660247803,-0.17204226553440094,0.10605879127979279,28.624956130981445,-9.436652183532715,39.406986236572266,0
273,2730016,-0.0446920245885849,-0.02786393091082573,-1.0369553565979004,0.10836324095726013,0.34082719683647156,-0.2880769968032837,30.341047286987305,-10.77243423461914,40.42836380004883,0
274,2740033,0.07007031887769699,0.02499607391655445,-1.0121676921844482,-0.13073818385601044,-1.0675272941589355,-0.32590624690055847,29.265357971191406,-11.26328182220459,39.7675895690918,0
275,2750056,-0.02305033802986145,0.031069716438651085,-0.9834091067314148,-0.11125236004590988,0.2810427248477936,0.07705428451299667,29.750463485717773,-9.15678596496582,40.787933349609375,0
276,2760013,0.023577241227030754,-0.03962845355272293,-1.0131877660751343,0.5812395215034485,0.20937663316726685,-0.3309558928012848,30.39028549194336,-10.21155834197998,40.68675231933594,0
277,2770025,0.056283868849277496,-0.011268045753240585,-1.028887152671814,0.4549517333507538,0.08713570237159729,0.5288391709327698,28.683237075805664,-9.107398986816406,38.713619232177734,0
278,2779899,0.04985668137669563,-0.005373635329306126,-1.014307975769043,-0.40893980860710144,0.4152720868587494,0.047971609979867935,28.559261322021484,-10.864182472229004,38.499507904052734,0
279,2789978,0.12218361347913742,-0.07962623983621597,-0.9748252034187317,-0.8984676599502563,0.17670799791812897,-0.13814029097557068,31.25443458557129,-9.847768783569336,40.39388656616211,0
280,2800021,-0.0038522202521562576,-0.053207021206617355,-0.9946693778038025,0.6955347061157227,-0.14199629426002502,0.26157188415527344,31.649147033691406,-10.171350479125977,40.901947021484375,0
281,2809937,0.017020056024193764,0.0645814761519432,-1.0318870544433594,0.3980434238910675,-0.15227468311786652,-0.21532300114631653,28.200908660888672,-8.850317001342773,39.63158416748047,0
282,2820064,-0.015598366037011147,-0.09299087524414062,-0.9902294278144836,-0.26838383078575134,-0.7847288846969604,0.2020207643508911,29.911230087280273,-10.263601303100586,40.01813507080078,0
283,2829907,0.03515922650694847,-0.08467905968427658,-1.0105926990509033,0.4091204106807709,-1.1510608196258545,0.3972942531108856,30.52293586730957,-10.875603675842285,39.67872619628906,0
284,2840070,0.06964608281850815,0.05801615118980408,-1.0274884700775146,-0.7791243195533752,-0.029598085209727287,0.5340148210525513,30.473859786987305,-9.72785758972168,41.82252883911133,0
285,2850019,-0.029687153175473213,0.010042719542980194,-0.9714525938034058,-0.20413456857204437,-0.6171929836273193,0.6398568153381348,29.96477699279785,-10.8091402053833,40.18642807006836,0
286,2860082,0.006222281605005264,-0.07242759317159653,-0.9868431687355042,-0.16108812391757965,-0.37866532802581787,-0.020979851484298706,30.33230209350586,-11.012174606323242,40.21276092529297,0
287,2870180,-0.05075595900416374,-0.08087052404880524,-1.0391017198562622,-0.25065988302230835,0.20616507530212402,-0.4119603633880615,31.503496170043945,-10.84014892578125,39.963157653808594,0
288,2879788,-0.020829178392887115,-0.04036484658718109,-1.0082347393035889,0.01631457544863224,1.2460970878601074,-0.9668563604354858,31.75960922241211,-12.287871360778809,39.37710952758789,0
289,2889898,-0.013393825851380825,-0.04667935147881508,-1.017197608947754,0.8562365770339966,-0.23936954140663147,0.058591630309820175,29.591222763061523,-10.932418823242188,40.414188385009766,0
290,2899991,-0.03337933123111725,-0.04109986126422882,-1.0205003023147583,-0.30135685205459595,-0.14400795102119446,0.06910476088523865,28.55266761779785,-11.643525123596191,39.60151290893555,0
291,2909936,0.013014061376452446,-0.012407120317220688,-1.028131127357483,-0.19247540831565857,-0.9281084537506104,-0.6736477017402649,29.63252830505371,-9.564619064331055,41.05864334106445,0
292,2919694,-0.014987634494900703,0.010313782840967178,-1.018883466720581,-0.8199214339256287,-0.38939887285232544,0.40971291065216064,30.05231475830078,-10.59900188446045,38.88573455810547,0
293,2930219,-0.020120950415730476,-0.04504072666168213,-0.9797448515892029,-0.8914380073547363,-0.2447018325328827,-0.5466715693473816,28.54803466796875,-11.063712120056152,39.92057418823242,0
294,2940059,-0.033334460109472275,0.006675386801362038,-1.0348944664001465,-0.7229012250900269,-0.8704004883766174,0.25275081396102905,30.34206771850586,-11.464790344238281,41.17155456542969,0
295,2950158,0.021741069853305817,0.023575950413942337,-0.9951331615447998,0.7167760729789734,-0.5765686631202698,-0.005253954790532589,30.324260711669922,-11.198376655578613,39.4326171875,0
296,2960134,0.017975930124521255,-0.061874594539403915,-0.977241039276123,0.34955132007598877,0.11078795790672302,-0.24817925691604614,30.48516082763672,-9.435113906860352,41.554195404052734,0
297,2970211,0.07432297617197037,-0.03726187348365784,-1.0345979928970337,-0.4926363527774811,0.12720553576946259,0.8940042853355408,31.33083724975586,-11.341092109680176,39.789676666259766,0
298,2979794,0.010197250172495842,-0.04821693152189255,-0.9925258755683899,0.4801587164402008,-0.8003778457641602,-0.540162980556488,31.526479721069336,-10.541643142700195,40.09796905517578,0
299,2990172,-0.06359076499938965,0.04435154050588608,-0.9896572828292847,-0.21049490571022034,0.01627316325902939,-0.3765934407711029,29.944698333740234,-11.709912300109863,40.277870178222656,0
300,2999906,-0.023809319362044334,0.02007458172738552,-1.0148485898971558,0.5339678525924683,-0.12162388861179352,-0.08501856029033661,29.685955047607422,-11.060760498046875,41.156028747558594,0
301,3009638,-0.010785148479044437,-0.09277601540088654,-0.9987728595733643,-1.0431514978408813,-0.10083630681037903,0.16530710458755493,29.156949996948242,-10.428873062133789,41.17559814453125,0
302,3019760,0.06424591690301895,0.08754294365644455,-1.0073683261871338,0.4009173810482025,0.2992189824581146,-0.28486761450767517,30.066452026367188,-10.427947998046875,38.34099578857422,0
303,3029954,0.01433637272566557,-0.02049066685140133,-0.9998908638954163,-1.1453578472137451,0.4675638973712921,-0.19336697459220886,29.79161262512207,-9.75249195098877,39.1123046875,0
304,3039931,-0.01500428095459938,-0.033043794333934784,-0.970834493637085,0.5311110615730286,0.3110657036304474,-0.627784788608551,31.71965789794922,-10.058465003967285,40.099098205566406,0
305,3049957,-0.027762793004512787,0.048867981880903244,-1.029368281364441,0.4785843789577484,-0.20269766449928284,-0.025750458240509033,30.7442684173584,-9.562501907348633,41.068756103515625,0
306,3059828,0.0641724020242691,0.003693314967676997,-0.9762370586395264,-0.2266659289598465,-0.48038509488105774,0.28333017230033875,31.076862335205078,-11.005365371704102,41.44489669799805,0
307,3069944,0.0026088443119078875,0.10904958844184875,-1.020279884338379,-0.2636042535305023,0.02413356676697731,-0.0038098066579550505,31.443254470825195,-10.289334297180176,40.97492980957031,0
308,3080228,-0.012296391651034355,-0.07874772697687149,-0.9900233149528503,-0.87037193775177,-0.045729413628578186,0.4538307189941406,29.566923141479492,-10.251501083374023,40.19662094116211,0
309,3090005,0.051202137023210526,0.0018917882116511464,-1.010580062866211,-0.8940056562423706,-0.2127993255853653,0.2568575143814087,30.157268524169922,-10.662403106689453,39.29939270019531,0
310,3099875,-0.021037332713603973,0.011497854255139828,-1.0038340091705322,0.03736867383122444,-0.3054354786872864,-0.6261377930641174,30.15786361694336,-10.916150093078613,38.45530700683594,0
311,3109808,-0.00425844406709075,0.10007328540086746,-0.9946109056472778,-0.4305465519428253,-0.6670964360237122,-0.44732192158699036,31.08620834350586,-10.339763641357422,38.746761322021484,0
312,3119948,-0.012178629636764526,-0.05475533753633499,-1.0243695974349976,0.42780181765556335,-0.11769069731235504,0.5959647297859192,31.636734008789062,-8.866799354553223,39.231475830078125,0
313,3129890,0.035745132714509964,-0.05298580229282379,-1.0278419256210327,-0.299404114484787,0.44509127736091614,0.934406042098999,28.810073852539062,-8.989673614501953,41.21825408935547,0
314,3139828,0.04514045640826225,-0.05629061162471771,-1.0011348724365234,-0.6603310704231262,0.49112677574157715,-0.16510139405727386,30.532958984375,-11.938309669494629,40.31861877441406,0
315,3149809,0.012580049224197865,-0.003700908273458481,-0.9620556235313416,-0.8012869358062744,-0.01992986910045147,0.7551921010017395,27.752164840698242,-11.55412769317627,40.772884368896484,0
316,3160126,0.058416519314050674,0.045488301664590836,-1.015942096710205,-0.286160409450531,-0.07937097549438477,0.7009166479110718,30.318214416503906,-9.910441398620605,40.60224151611328,0
317,3170183,0.0074354843236505985,0.05152859911322594,-0.9804503917694092,0.6916132569313049,0.5077587366104126,0.6224539875984192,31.219558715820312,-10.239995956420898,40.5379753112793,0
318,3180036,-0.02170785889029503,-0.0282769612967968,-0.9873504042625427,0.06581263989210129,0.16694259643554688,-0.00029097695369273424,31.056615829467773,-8.59264087677002,38.745635986328125,0
319,3190104,0.02970055118203163,-0.040792010724544525,-1.0197176933288574,-0.6135849952697754,-0.12146966904401779,-0.11415821313858032,31.6395206451416,-9.451835632324219,39.79014587402344,0
320,3200101,-0.0141917634755373,0.022876471281051636,-0.9571706056594849,0.2033732831478119,0.4039604961872101,0.022559087723493576,29.796463012695312,-10.165990829467773,40.09189224243164,0
321,3209765,-0.015844926238059998,-0.0073607261292636395,-0.9894330501556396,-0.22259263694286346,0.46287429332733154,-0.9827837347984314,31.575246810913086,-11.576778411865234,39.740928649902344,0
322,3219966,-0.04251667112112045,0.025095978751778603,-1.0290652513504028,0.15522342920303345,0.8358933329582214,-0.3090430200099945,30.713430404663086,-8.840588569641113,40.545318603515625,0
323,3230091,0.04677195101976395,-0.04761622101068497,-1.0022873878479004,-0.07397719472646713,0.18745793402194977,0.003315066685900092,32.1938591003418,-9.252286911010742,40.2217903137207,0
324,3240040,-0.087592713534832,-0.0708080306649208,-1.0117051601409912,0.07594376802444458,1.0241920948028564,-0.8655576705932617,30.8429012298584,-11.993926048278809,39.51035690307617,0
325,3250013,-0.042675964534282684,0.0101694967597723,-1.0418330430984497,-0.0767357274889946,0.23585835099220276,-0.2516447901725769,28.75615692138672,-9.71672534942627,40.47120666503906,0
326,3260105,-0.023034654557704926,0.07092782855033875,-1.056147575378418,-0.42821386456489563,0.15093566477298737,0.22991062700748444,31.38982391357422,-9.630972862243652,41.70683670043945,0
327,3270144,-0.05352092906832695,0.050261396914720535,-1.0021491050720215,0.07951460033655167,0.4518498480319977,0.29995831847190857,29.575275421142578,-10.78286075592041,41.05758285522461,0
328,3279956,0.03801603615283966,0.03935103863477707,-0.9913322329521179,-0.5975729823112488,0.07718171924352646,0.5023910999298096,31.318124771118164,-10.405511856079102,39.18440628051758,0
329,3289891,-0.016050709411501884,0.023291490972042084,-1.0053805112838745,-0.8114144206047058,0.6307910680770874,0.36106279492378235,30.612144470214844,-10.378702163696289,40.37675094604492,0
330,3300179,-0.013189331628382206,-0.07962469011545181,-0.9969859719276428,0.5256814956665039,-0.8398621082305908,0.6022588610649109,28.679758071899414,-8.363751411437988,37.822715759277344,0
331,3310096,-0.0225361380726099,0.031938694417476654,-0.9873665571212769,-0.04540949687361717,-0.1263803392648697,0.391799658536911,30.940671920776367,-10.36242389678955,39.668495178222656,0
332,3320123,-0.06984145194292068,0.003732740180566907,-1.0177648067474365,0.06016888841986656,0.7392549514770508,0.5330362319946289,29.82202911376953,-7.548163414001465,41.932437896728516,0
333,3329997,-0.06642238795757294,0.10182717442512512,-0.9947994947433472,0.3866230845451355,0.10993757098913193,-0.4126180410385132,29.12568473815918,-11.327253341674805,41.52908706665039,0
334,3339860,0.026006918400526047,-0.029759004712104797,-0.9952499866485596,-0.3530048727989197,0.900498628616333,0.3766121566295624,28.778230667114258,-11.683584213256836,38.9831428527832,0
335,3350052,-0.057343821972608566,-0.05757001042366028,-1.007248878479004,-1.1901313066482544,-0.19428253173828125,0.3212035000324249,30.86181640625,-10.292380332946777,41.15520095825195,0
336,3360104,-0.06825252622365952,0.005226944573223591,-0.99607253074646,0.23470540344715118,-0.2641572058200836,-1.2258100509643555,30.888961791992188,-10.441234588623047,40.70827102661133,0
337,3370332,-0.05047539994120598,-0.07488784939050674,-0.9829652309417725,0.0160398930311203,0.5127938985824585,0.1272866278886795,29.908824920654297,-8.301541328430176,39.54157257080078,0
338,3379974,0.024748584255576134,0.05868925526738167,-0.956766664981842,0.26966676115989685,0.1982324719429016,-0.2635456323623657,31.227148056030273,-11.293213844299316,41.72591781616211,0
339,3389863,-0.04771013557910919,-0.04491546377539635,-0.9979982972145081,-0.396436870098114,0.4162251949310303,0.5407557487487793,30.293237686157227,-10.08156681060791,39.76224899291992,0
340,3399807,0.06462162733078003,0.03317390754818916,-0.9979654550552368,-1.188305377960205,0.10769317299127579,0.21825316548347473,29.8997745513916,-9.401926040649414,41.11923599243164,0
341,3409989,0.07097470015287399,-0.006762667093425989,-1.0413436889648438,-0.184005007147789,0.04360825940966606,0.5197355151176453,32.768768310546875,-10.034209251403809,38.30106735229492,0
342,3419928,0.011931199580430984,0.04515693709254265,-0.9974778294563293,-0.5115693211555481,-0.06545978784561157,-0.030570125207304955,31.038671493530273,-10.792465209960938,40.80443572998047,0
343,3430261,0.08290985226631165,-0.028942128643393517,-0.995360791683197,0.9274525046348572,0.25154629349708557,0.7046202421188354,30.10948371887207,-12.329113960266113,40.563018798828125,0
344,3440156,-0.04630240797996521,0.03600367531180382,-1.03634512424469,1.2929115295410156,0.43207719922065735,0.43602731823921204,30.121915817260742,-10.42430305480957,40.54475021362305,0
345,3449727,-0.07302655279636383,0.024111373350024223,-1.0219385623931885,-0.0034797012340277433,-0.2928166687488556,-0.17041413486003876,28.519166946411133,-10.520259857177734,40.148155212402344,0
346,3459831,-0.06233841925859451,0.06838919222354889,-0.9415721297264099,-0.17998169362545013,0.4676157534122467,0.31712639331817627,30.552953720092773,-10.383546829223633,39.6530876159668,0
347,3470003,-0.057043612003326416,-0.04679710790514946,-0.986091673374176,-0.10781865566968918,0.003188084112480283,0.5592641234397888,30.793519973754883,-7.222582817077637,40.89137649536133,0
348,3479654,0.08488152176141739,-0.08761169016361237,-0.9886043667793274,0.27005964517593384,0.15978796780109406,0.15484897792339325,27.847726821899414,-11.038467407226562,39.04281234741211,0
349,3489943,0.035940010100603104,0.003380542155355215,-0.9692565202713013,-0.5987741947174072,0.34552624821662903,0.2572842836380005,28.907331466674805,-10.945335388183594,39.49812698364258,0
350,3500095,0.021472938358783722,-0.02811231091618538,-0.9563948512077332,-0.05801054835319519,-0.25292086601257324,0.0907716378569603,30.010169982910156,-9.991079330444336,39.445526123046875,0
351,3510218,-0.03686453402042389,0.005242468323558569,-1.019498586654663,-0.8796681761741638,-0.5811058282852173,-0.8259696364402771,28.00823974609375,-9.800396919250488,39.789249420166016,0
352,3520102,-0.0008924452122300863,0.0467943400144577,-0.9799918532371521,0.9130809307098389,-0.07012348622083664,-0.17130233347415924,31.172155380249023,-10.631050109863281,40.66299057006836,0
353,3530158,-0.006885266862809658,-0.0731477439403534,-0.9993492960929871,-0.2991543412208557,-0.0005449188174679875,0.7043582797050476,30.339815139770508,-9.681408882141113,40.56760787963867,0
354,3540007,0.054801344871520996,-0.087798111140728,-1.002130389213562,-0.9073154330253601,0.31348997354507446,-0.0648655965924263,28.69504737854004,-12.656296730041504,40.00651931762695,0
355,3550062,-0.025553759187459946,-0.05351586639881134,-1.0257582664489746,0.48402857780456543,-0.6149189472198486,0.6204392313957214,27.7863826751709,-9.33923053741455,39.807395935058594,0
356,3559959,0.019445722922682762,0.043968334794044495,-0.9963682293891907,-0.6283097267150879,0.3456120193004608,-0.3802260756492615,28.208219528198242,-8.853317260742188,38.521610260009766,0
357,3570200,-0.045199885964393616,-0.05855562537908554,-0.9888336658477783,0.5065958499908447,-0.03958198428153992,-0.28088101744651794,29.869770050048828,-10.267358779907227,41.87746047973633,0
358,3580035,0.06716708093881607,0.05000939592719078,-0.9796133637428284,-0.3253665566444397,0.241695374250412,-0.08365502953529358,30.126977920532227,-10.11672592163086,41.0026969909668,0
359,3590057,0.042224206030368805,-0.04829738289117813,-0.9835280179977417,0.44764629006385803,-0.43647584319114685,-1.088657021522522,28.54355812072754,-8.728487014770508,39.558860778808594,0
360,3600014,-0.05447546765208244,-0.04604952409863472,-1.0489840507507324,-0.32854533195495605,0.5960536003112793,0.1240987554192543,29.394926071166992,-11.452916145324707,41.26680374145508,0
361,3609840,-0.011382443830370903,0.06926307827234268,-0.9898677468299866,0.0381055548787117,-0.3570788502693176,-0.43080514669418335,29.27594757080078,-8.261489868164062,39.159549713134766,0
362,3619889,0.05082087963819504,0.04807025194168091,-1.000343918800354,-0.0388118140399456,-0.07840557396411896,0.4949592649936676,29.828290939331055,-10.76810359954834,40.32936096191406,0
363,3630102,0.020481634885072708,0.030216997489333153,-0.9790720343589783,0.25885888934135437,-0.4316490590572357,-0.27254804968833923,30.549610137939453,-8.970108985900879,37.95244598388672,0
364,3640047,0.00507345562800765,-0.029322626069188118,-1.0206325054168701,0.2553336024284363,0.055689696222543716,-0.13341352343559265,31.310033798217773,-11.599109649658203,40.364532470703125,0
365,3650112,0.04283274710178375,-0.04809525981545448,-0.9746727347373962,-0.11813785135746002,-0.516166627407074,-0.6296281218528748,30.213726043701172,-9.397003173828125,39.66135787963867,0
366,3660239,0.005671735852956772,0.005579499993473291,-0.959472119808197,-0.5408922433853149,0.09966745227575302,0.0451638363301754,28.396217346191406,-10.30403995513916,40.8577766418457,0
367,3669714,-0.0410657674074173,-0.06470847874879837,-0.9908062219619751,0.370855450630188,-0.06274484843015671,-0.07295744866132736,30.767126083374023,-9.266631126403809,38.37102508544922,0
368,3680142,0.005498120561242104,0.0021329482551664114,-1.0278786420822144,0.29389438033103943,-0.5115660429000854,0.881683349609375,31.59267234802246,-11.282188415527344,38.95107650756836,0
369,3690127,0.008960344828665257,-0.0459771603345871,-1.0198352336883545,-0.18379761278629303,-1.3438892364501953,0.0853402242064476,31.158668518066406,-11.611170768737793,39.57544708251953,0
370,3700135,0.06817712634801865,-0.008801110088825226,-0.9832234978675842,-0.3538219928741455,-0.3887568414211273,0.07115469127893448,30.782238006591797,-10.712611198425293,41.010746002197266,0
371,3709854,0.08250097930431366,0.035128965973854065,-0.9724344611167908,0.29783380031585693,0.5836015343666077,0.09320417791604996,29.868228912353516,-9.458324432373047,39.741607666015625,0
372,3720036,-0.05669514834880829,0.04110562801361084,-0.9580617547035217,-0.5861985683441162,-0.5635181665420532,0.4434235095977783,31.463329315185547,-8.726082801818848,40.403480529785156,0
373,3730126,0.05146721005439758,-0.009669114835560322,-1.0369253158569336,1.0097806453704834,0.20507077872753143,0.3830578625202179,29.979459762573242,-9.812652587890625,40.17783737182617,0
374,3740004,-0.06415180116891861,0.04953033849596977,-0.998208224773407,0.06096525862812996,0.23551680147647858,-0.13381798565387726,29.631296157836914,-9.988764762878418,41.69903564453125,0
375,3749963,0.021155864000320435,0.0024810160975903273,-1.023038387298584,-0.9395932555198669,-0.2488274872303009,0.3328503966331482,30.274349212646484,-7.992522716522217,38.285518646240234,0
376,3760003,-0.043592482805252075,0.022406646981835365,-1.0134273767471313,-0.43380534648895264,-0.15982408821582794,-0.3823513984680176,29.229822158813477,-10.714762687683105,38.44607925415039,0
377,3770029,-0.03381415456533432,0.03833580017089844,-0.9931519627571106,-0.07838544994592667,0.5497819185256958,-0.020624354481697083,31.012189865112305,-9.351959228515625,40.63117599487305,0
378,3779974,0.03569367155432701,0.05268732085824013,-1.0290567874908447,-0.20879986882209778,0.21918684244155884,1.339257836341858,30.56057357788086,-9.928281784057617,40.82405471801758,0
379,3790030,-0.02977900020778179,-0.016791462898254395,-1.0101571083068848,-0.3592172861099243,-0.197927787899971,-0.3751044273376465,30.966684341430664,-10.472176551818848,39.886253356933594,0
380,3800033,-0.04041086882352829,-0.012006906792521477,-0.9903799891471863,-0.40148815512657166,0.5172420740127563,0.010468107648193836,28.51546859741211,-10.096883773803711,41.331092834472656,0
381,3809900,0.0008147528278641403,-0.004931303206831217,-1.0238844156265259,1.5244311094284058,-0.11188887804746628,-0.15081726014614105,31.59682846069336,-9.939635276794434,38.748111724853516,0
382,3819974,0.04501259699463844,0.05012213811278343,-0.9934939742088318,-0.1639479547739029,0.3134080767631531,-0.3680019974708557,31.096593856811523,-9.189278602600098,39.50385284423828,0
383,3829837,-0.056733157485723495,0.09134040772914886,-1.0120848417282104,-0.23194199800491333,0.2800942659378052,0.15195269882678986,31.194746017456055,-11.675336837768555,38.83655548095703,0
384,3840047,0.08046192675828934,0.03900691494345665,-0.9790144562721252,-0.5463010668754578,0.29207271337509155,-0.16124849021434784,30.694841384887695,-10.766839027404785,38.36898422241211,0
385,3850016,-0.10044801235198975,-0.03455795347690582,-0.9973183274269104,0.3925255239009857,0.1123521700501442,-0.23131024837493896,29.4765682220459,-10.19869613647461,40.94540786743164,0
386,3860001,0.06583943217992783,-0.01705125905573368,-1.01262366771698,-0.1372172236442566,-0.4347861409187317,-0.33851563930511475,29.82590103149414,-9.6502103805542,40.381141662597656,0
387,3869853,-0.07600945234298706,0.04882201552391052,-0.9902680516242981,-0.26974037289619446,0.020305778831243515,-0.20861296355724335,30.803302764892578,-11.32091236114502,40.74081802368164,0
388,3880118,-0.054661691188812256,-0.014293254353106022,-0.9640082120895386,0.8486807942390442,-0.1807793527841568,-0.05016399174928665,29.368099212646484,-9.9000883102417,41.639793395996094,0
389,3890186,0.023731481283903122,-0.02863466925919056,-0.953672468662262,0.10957904160022736,0.21416732668876648,0.15531863272190094,29.59526252746582,-11.673388481140137,41.06599426269531,0
390,3900160,0.09558560699224472,0.009438631124794483,-0.9869207739830017,-0.07082177698612213,-0.40539008378982544,0.3107564449310303,30.108705520629883,-9.972087860107422,40.166709899902344,0
391,3909657,0.09849780052900314,-0.05084361881017685,-0.9754924178123474,0.04625653102993965,-0.2921641170978546,-0.4791911542415619,29.532337188720703,-9.735207557678223,42.53506851196289,0
392,3919883,-0.05158054456114769,-0.03691467270255089,-1.0001486539840698,0.6112274527549744,-0.3841123580932617,0.6513752341270447,28.61421775817871,-10.469367027282715,38.63954162597656,0
393,3930135,-0.01159183494746685,0.0076637351885437965,-0.9665485620498657,-0.5414466857910156,-0.5711405277252197,-0.4285605251789093,29.679075241088867,-8.878490447998047,40.21853256225586,0
394,3940040,0.038001496344804764,-0.02322985976934433,-1.0002338886260986,-0.25738903880119324,0.9907864332199097,0.0081297867000103,29.85026741027832,-10.525102615356445,38.30827713012695,0
395,3949896,-0.06921382248401642,0.05953676626086235,-0.9810750484466553,-0.07320202142000198,0.9744266867637634,0.7756077647209167,29.916542053222656,-10.371734619140625,40.984779357910156,0
396,3959820,-0.05207395926117897,0.02748996578156948,-1.0014969110488892,0.3194746673107147,0.1291116625070572,-0.4954853057861328,30.632038116455078,-10.364267349243164,39.11671829223633,0
397,3970109,-0.007020347751677036,-0.07665078341960907,-0.9625729322433472,-0.04153873026371002,-0.841712236404419,-0.2599647641181946,26.95053482055664,-7.769009113311768,40.62589645385742,0
398,3979877,-0.0032253300305455923,0.0427372083067894,-1.0350542068481445,-0.06858287751674652,-0.13943594694137573,-0.07954280823469162,30.631784439086914,-9.6487455368042,40.032047271728516,0
399,3990086,-0.05507665127515793,0.006293925456702709,-0.9778438806533813,0.21194609999656677,-0.11696653068065643,0.6765872240066528,30.551307678222656,-11.746207237243652,39.492919921875,0
400,4000012,-0.0899914801120758,0.006966469809412956,-1.0287131071090698,-0.8823013305664062,0.1136464849114418,0.027519291266798973,29.701398849487305,-9.098685264587402,39.858184814453125,0
401,4009953,-0.022225655615329742,0.025982914492487907,-0.9971807599067688,-0.007340776734054089,-0.19349455833435059,-0.21941180527210236,29.409975051879883,-10.45649528503418,41.65958023071289,0
402,4019905,-0.022626832127571106,-0.028446460142731667,-1.0252765417099,0.16564840078353882,-0.24364779889583588,0.31050294637680054,29.68537139892578,-9.535979270935059,40.60903549194336,0
403,4029803,-0.06070369482040405,0.045550666749477386,-0.9494697451591492,-0.15305453538894653,-0.17267189919948578,1.2269192934036255,30.664989471435547,-9.831482887268066,38.792388916015625,0
404,4040069,0.01599838398396969,-0.02167593501508236,-1.0193382501602173,0.8254110813140869,0.5767504572868347,-0.222476065158844,30.698339462280273,-12.144667625427246,41.91535568237305,0
405,4050022,0.009065142832696438,-0.05958156660199165,-1.0422786474227905,-0.35690754652023315,-0.8884866833686829,-0.5068643689155579,31.53372573852539,-10.417418479919434,38.577667236328125,0
406,4059952,-0.04451308026909828,-0.03820658475160599,-1.0224168300628662,1.0034106969833374,-0.35363510251045227,0.11047330498695374,31.158771514892578,-9.425088882446289,40.50743865966797,0
407,4070031,0.03761828690767288,-0.03650541976094246,-0.9640727639198303,0.4047091603279114,-0.7338594198226929,-0.7806752324104309,28.733036041259766,-10.224738121032715,40.24501419067383,0
408,4079986,0.0971541702747345,-0.00302578741684556,-0.9909859299659729,-0.3802078664302826,-0.6254022121429443,0.20063379406929016,30.253936767578125,-9.305489540100098,38.88037109375,0
409,4090067,0.007791441865265369,0.07827267050743103,-1.0026044845581055,0.08083552867174149,0.6069425344467163,0.37476974725723267,30.716108322143555,-10.198003768920898,39.624107360839844,0
410,4100206,0.017317581921815872,-0.01828025095164776,-0.9895384907722473,-0.24229177832603455,0.09348136186599731,-0.05591461434960365,29.436059951782227,-10.231493949890137,40.82537078857422,0
411,4110276,0.010740818455815315,0.03780775144696236,-0.9588996767997742,0.20887938141822815,-0.9156589508056641,-0.13098080456256866,29.262666702270508,-9.561882972717285,40.154170989990234,0
412,4120306,-0.07670911401510239,-0.05272502452135086,-0.9819793701171875,-0.39501121640205383,0.7332942485809326,0.0011139296693727374,29.80239486694336,-10.072537422180176,41.46531295776367,0
413,4129695,-0.03390369191765785,-0.0030002924613654613,-0.9879800081253052,0.5070528984069824,-1.0740947723388672,0.0739055946469307,29.82590103149414,-11.133584022521973,40.688140869140625,0
414,4140175,-0.029285265132784843,-0.03145638853311539,-1.0190353393554688,0.2231491506099701,0.015271334908902645,-0.18030552566051483,29.76030158996582,-9.982749938964844,38.82163619995117,0
415,4150157,0.061843857169151306,0.007402575109153986,-1.0003819465637207,0.6493682265281677,0.01299736276268959,-0.3232152462005615,29.608522415161133,-9.997892379760742,40.43727493286133,0
416,4159960,0.030315609648823738,-0.012562306597828865,-1.006537914276123,-0.15213848650455475,0.8861868977546692,-0.15199466049671173,29.66643524169922,-9.86117935180664,42.27780532836914,0
417,4169854,-0.04376186430454254,-0.06770290434360504,-1.0048595666885376,-0.25203198194503784,-0.01980072259902954,0.06280667334794998,28.217308044433594,-13.287899017333984,40.518009185791016,0
418,4180051,-0.06792028248310089,0.022214772179722786,-0.9750170707702637,-0.02089381404221058,-0.17168644070625305,-0.526561975479126,29.913259506225586,-11.523447036743164,41.56153106689453,0
419,4189994,0.07310334593057632,0.010172098875045776,-0.9936121106147766,0.14778243005275726,-0.00976583082228899,0.2012176364660263,30.163555145263672,-9.711700439453125,38.414974212646484,0
420,4200244,0.005941844545304775,0.020603971555829048,-0.9988197088241577,0.1187758520245552,-1.2781105041503906,0.28173643350601196,29.457672119140625,-8.94089412689209,39.922454833984375,0
421,4210062,0.06243540346622467,-0.11527838557958603,-1.002517819404602,0.40312981605529785,1.79364013671875,0.5399909615516663,32.75054931640625,-9.332279205322266,39.20177459716797,0
422,4220074,0.01814776100218296,0.012185205705463886,-0.9931656718254089,-0.0008802729425951838,0.6927029490470886,0.011340628378093243,32.83784484863281,-10.19891357421875,41.15580749511719,0
423,4230177,-0.024319184944033623,0.0735393613576889,-0.9993799328804016,-0.5777987837791443,0.15179121494293213,0.43548664450645447,30.052881240844727,-10.182406425476074,41.328636169433594,0
424,4239931,0.06599143147468567,0.0476505272090435,-1.0153684616088867,-0.31537798047065735,0.039521362632513046,0.0047424971126019955,30.962364196777344,-8.499346733093262,39.363101959228516,0
425,4249770,0.027200907468795776,-0.04588312283158302,-0.9886144399642944,0.09950695186853409,0.9630594253540039,-0.32435670495033264,29.41951560974121,-10.855563163757324,40.340538024902344,0
426,4260024,0.05285739526152611,0.07064282894134521,-0.9934281706809998,-1.0237702131271362,0.31980428099632263,0.49341681599617004,27.83210563659668,-10.029511451721191,40.15196228027344,0
427,4270222,-0.02928215079009533,-0.006888240575790405,-0.9731748104095459,0.041018933057785034,-0.359507292509079,0.1857302486896515,29.447528839111328,-10.953291893005371,39.51799774169922,0
428,4280141,0.07537439465522766,-0.06301666796207428,-1.0014774799346924,-0.2919367551803589,0.7168956995010376,-0.3582993745803833,29.723108291625977,-9.87654972076416,38.80485153198242,0
429,4290220,0.0338018424808979,-0.002812122693285346,-1.0048811435699463,0.2764328420162201,-0.4299079179763794,-0.4632645845413208,30.296741485595703,-10.019906044006348,40.64970779418945,0
430,4299935,0.0208253413438797,-0.021040134131908417,-0.9781591296195984,0.1360144466161728,-1.0445040464401245,0.053929537534713745,30.257017135620117,-9.927909851074219,39.749534606933594,0
431,4309822,-0.028871340677142143,-0.041243117302656174,-0.9774017930030823,0.14867262542247772,0.16260817646980286,0.18408407270908356,31.162193298339844,-11.852363586425781,41.07779312133789,0
432,4319967,0.036572474986314774,0.05713598057627678,-0.9817122220993042,0.3251568675041199,-0.5687792897224426,-0.42526310682296753,29.103527069091797,-10.881418228149414,40.4703254699707,0
433,4329998,-0.0012025627074763179,0.02385948784649372,-1.0057331323623657,-0.6923490762710571,0.07637942582368851,1.138893961906433,27.58087921142578,-9.360147476196289,39.64797592163086,0
434,4340249,0.047245901077985764,-0.035164013504981995,-0.9684670567512512,-0.02987002022564411,0.36405542492866516,0.5981552004814148,28.938617706298828,-11.293100357055664,39.79286575317383,0
435,4350146,-0.025420518592000008,0.022394469007849693,-1.0125274658203125,0.2616962194442749,-0.310863196849823,-0.670146644115448,29.423851013183594,-10.089998245239258,39.22818374633789,0
436,4360103,0.0034432339016348124,-0.0016985218971967697,-1.026619791984558,-0.09496412426233292,-0.5839065313339233,-0.42198219895362854,28.800580978393555,-10.46569538116455,39.53730392456055,0
437,4369897,-0.0016016506124287844,-0.02286464348435402,-0.9797475934028625,-0.7162920832633972,-0.2656078040599823,-0.3095306158065796,30.198583602905273,-10.215948104858398,40.87091064453125,0
438,4380105,-0.009135900065302849,-0.008340001106262207,-1.022568941116333,-0.3995169997215271,-0.3011198043823242,-0.8956654071807861,29.085126876831055,-11.207852363586426,40.50026321411133,0
439,4389810,0.058796752244234085,-0.052147578448057175,-0.9739680886268616,0.6236966252326965,1.2838032245635986,0.8922737836837769,31.56831169128418,-9.994250297546387,39.92628479003906,0
440,4400150,0.04588082432746887,-0.06743251532316208,-1.030562162399292,0.29116547107696533,0.4341554045677185,-0.07614307850599289,28.828577041625977,-8.926465034484863,38.36381912231445,0
441,4409951,0.09741351008415222,0.012580126523971558,-1.0111308097839355,-0.4175055921077728,-0.02347344532608986,0.14857733249664307,29.190515518188477,-10.126511573791504,40.21772766113281,0
442,4419929,0.019004255533218384,-0.040574777871370316,-1.0036319494247437,-1.6239265203475952,-0.30800530314445496,-0.05497756227850914,30.977510452270508,-9.941019058227539,40.89922332763672,0
443,4429945,0.032017551362514496,0.001742165768519044,-0.9979705810546875,-0.9214605689048767,-0.16969116032123566,0.5108141899108887,28.720458984375,-9.073095321655273,41.06862258911133,0
444,4440180,0.023711666464805603,0.06020353361964226,-0.9783133864402771,0.3562215268611908,-0.545960009098053,0.22217367589473724,29.983543395996094,-10.102004051208496,39.19856643676758,0
445,4450012,-0.07002216577529907,0.01512454729527235,-0.9686902165412903,-0.42380404472351074,-0.2540445625782013,-0.28276491165161133,29.783077239990234,-11.41881275177002,40.045997619628906,0
446,4460108,0.01926371455192566,-0.009669335559010506,-0.9822678565979004,-0.7744888067245483,0.15997348725795746,0.8472436666488647,31.028270721435547,-8.693552017211914,40.78830337524414,0
447,4470073,-0.02923690900206566,0.05939428508281708,-1.0064030885696411,-0.03865971788764,-0.408586710691452,0.6106542944908142,31.66530990600586,-9.816449165344238,39.986724853515625,0
448,4479780,0.043839819729328156,-0.07906349003314972,-1.0284448862075806,-1.0546284914016724,-0.652389645576477,-0.014049863442778587,29.96267318725586,-12.52740478515625,40.6005973815918,0
449,4490137,-0.01837817393243313,-0.055693939328193665,-1.0086387395858765,0.27783581614494324,0.6918056607246399,0.2846766412258148,31.03618621826172,-10.748005867004395,39.988407135009766,0
450,4500308,-0.02664366364479065,-0.04857019707560539,-0.9840172529220581,0.3385993242263794,0.4935573935508728,-0.35882246494293213,30.466285705566406,-8.847935676574707,39.257568359375,0
451,4509837,-0.0028431271202862263,0.02996050752699375,-0.9781994223594666,-0.7357170581817627,-0.23453839123249054,0.7032824158668518,29.18018913269043,-9.52707290649414,40.93285369873047,0
452,4520104,-0.08980749547481537,0.07854291051626205,-0.9760625958442688,-0.573339581489563,-0.11337045580148697,-0.12887929379940033,27.579652786254883,-9.046975135803223,40.82637405395508,0
453,4530094,0.004813176579773426,-0.019485043361783028,-1.031317114830017,-0.5140662789344788,0.20705917477607727,-0.8180049061775208,31.134485244750977,-10.534643173217773,40.27054214477539,0
454,4540040,0.04056040942668915,0.09386102855205536,-1.0200016498565674,1.0699976682662964,0.3878364562988281,0.03226158395409584,29.166419982910156,-10.00379467010498,40.18421936035156,0
455,4549786,-0.01633317396044731,-0.1669289767742157,-1.0167261362075806,0.4863280653953552,-0.41050422191619873,-0.7427469491958618,29.027557373046875,-10.665204048156738,40.09701919555664,0
456,4559933,-0.09974206238985062,-0.021243123337626457,-0.9931857585906982,0.3419781029224396,-0.27704283595085144,0.4780229926109314,29.734495162963867,-9.825790405273438,39.562034606933594,0
457,4570001,-0.024544980376958847,0.08338720351457596,-1.0014787912368774,0.346697598695755,-0.6691302061080933,-0.3087175190448761,30.133020401000977,-9.79207992553711,39.248050689697266,0
458,4579915,-0.02152048423886299,0.038405224680900574,-0.9715403914451599,0.5115079283714294,-0.5998807549476624,0.12247320264577866,31.42559814453125,-10.844325065612793,40.63277816772461,0
459,4590161,-0.019552256911993027,0.018991779536008835,-0.9906330108642578,-1.225400447845459,-0.318827360868454,-0.3446526825428009,30.24357032775879,-9.0877103805542,40.75986099243164,0
460,4600008,0.08848258852958679,-0.014174491167068481,-1.015173077583313,0.7177562713623047,-0.18651971220970154,-0.7974786162376404,30.769628524780273,-9.739572525024414,40.42236328125,0
461,4610229,-0.04858722537755966,0.048958681523799896,-1.0027590990066528,0.2354010045528412,0.05313042178750038,-0.06326627731323242,30.844154357910156,-8.530430793762207,40.738243103027344,0
462,4620106,0.0164128839969635,-0.05662417411804199,-1.004825472831726,0.017050784081220627,0.01649542897939682,-0.034974656999111176,29.99496078491211,-10.108113288879395,38.23837661743164,0
463,4630276,-0.015603254549205303,0.04512203112244606,-0.9608392715454102,-0.0720880776643753,0.4078744649887085,-0.559779942035675,29.8741397857666,-9.755000114440918,40.17626953125,0
464,4639970,0.09347021579742432,-0.06402752548456192,-1.0158696174621582,-0.08967674523591995,-0.3554082214832306,0.692385196685791,30.829471588134766,-11.25751781463623,40.51625061035156,0
465,4649992,-0.048500075936317444,-0.02276763878762722,-1.0119446516036987,-0.027185307815670967,1.1537694931030273,0.3756762444972992,31.37586212158203,-9.110614776611328,38.496395111083984,0
466,4659949,0.02269771508872509,0.02173449844121933,-1.0118098258972168,1.0000762939453125,0.21581536531448364,0.3623725473880768,30.185861587524414,-11.415493965148926,39.1351318359375,0
467,4669744,-0.011123617179691792,-0.024315085262060165,-0.9835575222969055,-0.20987370610237122,0.3310770094394684,0.09128498286008835,30.16876220703125,-10.24605941772461,38.995967864990234,0
468,4679995,0.008487698622047901,-0.03330424055457115,-1.0015181303024292,0.48790696263313293,-0.17877542972564697,0.4029216766357422,29.379653930664062,-10.9629545211792,38.696292877197266,0
469,4690150,0.014696517027914524,-0.025607485324144363,-1.001933217048645,0.2503666877746582,-0.1282697319984436,-0.6788381934165955,30.07495880126953,-10.084424018859863,42.040443420410156,0
470,4700088,0.04978114366531372,0.016565250232815742,-1.01555335521698,0.7490151524543762,0.4076988697052002,0.2905155122280121,28.163108825683594,-10.2036771774292,39.5250358581543,0
471,4710158,0.011033623479306698,-0.008790446445345879,-0.9995211958885193,-0.5284044742584229,-0.11184381693601608,-0.5339822769165039,32.217132568359375,-8.91610336303711,40.72585678100586,0
472,4720063,0.017933441326022148,-0.02217140421271324,-0.9872759580612183,0.09830308705568314,0.9348581433296204,-0.5052823424339294,31.30051612854004,-10.67624282836914,38.10245895385742,0
473,4729968,-0.06807822734117508,0.046675149351358414,-1.0095146894454956,0.02786305733025074,-0.508191704750061,-0.09991981089115143,30.150039672851562,-10.377788543701172,39.662445068359375,0
474,4739847,-0.012579227797687054,-0.05058280751109123,-1.0149480104446411,-0.7619968056678772,0.13370336592197418,0.2555144131183624,30.24558448791504,-10.756261825561523,41.14187240600586,0
475,4749855,-0.03567229583859444,0.037563908845186234,-0.9949635863304138,0.2248404175043106,0.12612302601337433,-0.09028720110654831,29.232568740844727,-7.3597941398620605,39.7880973815918,0
476,4759967,0.04659362509846687,-0.03383661061525345,-1.0124297142028809,0.054811593145132065,-0.3094058334827423,-0.694144606590271,30.170230865478516,-10.152360916137695,40.610107421875,0
477,4770001,-0.09218163788318634,-0.008823965676128864,-1.0050709247589111,0.40110349655151367,-0.8004117608070374,0.09307156503200531,29.950515747070312,-9.233391761779785,40.8398551940918,0
478,4779976,-0.005274895578622818,-0.07371857017278671,-1.0180643796920776,-0.9077896475791931,0.3352634608745575,0.5736632347106934,29.83330726623535,-9.583524703979492,41.013240814208984,0
479,4789911,0.051521796733140945,0.030966732650995255,-0.9728255271911621,0.7438209652900696,-0.22056227922439575,0.29704907536506653,29.69206428527832,-8.758353233337402,39.565181732177734,0
480,4800165,-0.08138252049684525,0.036797575652599335,-1.0087709426879883,0.12465059012174606,-0.5121265053749084,-0.8018262982368469,30.923582077026367,-10.067991256713867,41.50632858276367,0
481,4810138,-0.016602369025349617,-0.034250300377607346,-0.9796810150146484,0.4510268270969391,-0.11524440348148346,-0.9860861897468567,30.346271514892578,-9.531438827514648,40.514747619628906,0
482,4820101,0.019362609833478928,-0.016675593331456184,-0.9803126454353333,-0.8484801054000854,-0.3552452325820923,-0.21330903470516205,30.882797241210938,-10.401244163513184,40.729793548583984,0
483,4830046,0.019729210063815117,0.0019537704065442085,-1.0138388872146606,-0.4409550130367279,-0.2905576229095459,0.1293618083000183,31.1546630859375,-10.106701850891113,40.42330551147461,0
484,4840021,0.03506265953183174,0.06721973419189453,-0.981468915939331,-0.67939293384552,-0.6379093527793884,-0.2053239643573761,30.50230598449707,-9.756670951843262,40.59359359741211,0
485,4849919,-0.002200211165472865,0.009408813901245594,-0.9959312081336975,-0.6496230363845825,-0.4865023195743561,-0.23412050306797028,27.835174560546875,-10.86105728149414,38.334312438964844,0
486,4860169,-0.00363611220382154,0.028874142095446587,-0.9832664728164673,0.3111027479171753,0.12243077903985977,-0.42110270261764526,29.634302139282227,-9.659855842590332,38.25334167480469,0
487,4869853,-0.09150085598230362,-0.015700258314609528,-0.9813909530639648,0.4613470733165741,-0.10321073979139328,0.4257425367832184,30.659196853637695,-10.30597972869873,39.18067169189453,0
488,4879855,-0.015909558162093163,-0.008375033736228943,-1.0033819675445557,0.4106825292110443,-0.25865674018859863,0.0939004048705101,30.3206787109375,-10.119877815246582,40.229896545410156,0
489,4890020,-0.011104153469204903,-0.01359504833817482,-1.0092836618423462,-0.16241422295570374,-0.2878582775592804,0.1437540352344513,29.785682678222656,-9.101273536682129,40.35482406616211,0
490,4899861,0.0690041109919548,0.0749577060341835,-0.9785123467445374,-0.9268081188201904,0.4122929573059082,0.39160847663879395,30.920143127441406,-9.022446632385254,40.25309371948242,0
491,4910046,0.10045798122882843,0.004364270716905594,-0.960464358329773,0.1420183777809143,0.7245253920555115,0.6594913601875305,29.4073429107666,-10.526690483093262,39.064144134521484,0
492,4920088,-0.0035312033724039793,-0.07453388720750809,-0.9925446510314941,-0.4830828309059143,-0.35535162687301636,0.2679866850376129,29.192415237426758,-9.625785827636719,38.70220184326172,0
493,4930146,0.03511408343911171,0.06973478943109512,-1.0292837619781494,-0.6331524848937988,0.2845713496208191,0.5433541536331177,28.48263931274414,-10.8121976852417,39.73965072631836,0
494,4939799,0.09107206016778946,0.08212405443191528,-1.0315303802490234,0.515570342540741,-0.26521268486976624,0.41463109850883484,30.213882446289062,-11.157135963439941,39.14899826049805,0
495,4949793,-0.030929550528526306,0.023211218416690826,-1.006332278251648,0.06918172538280487,-1.0782313346862793,0.5574795007705688,27.87720489501953,-9.488292694091797,40.371700286865234,0
496,4959960,0.06017202511429787,-0.04871385917067528,-1.0134974718093872,0.27859508991241455,0.24827364087104797,0.43661248683929443,29.56966209411621,-10.209684371948242,37.927650451660156,0
497,4969903,-0.08805225044488907,0.011430665850639343,-0.996659517288208,-0.12201045453548431,-0.20828722417354584,-0.4520614743232727,31.281692504882812,-7.742833137512207,40.2142333984375,0
498,4980277,0.03330085799098015,0.06967197358608246,-1.0004504919052124,-0.08462688326835632,0.6136390566825867,0.365545392036438,28.832256317138672,-10.929718017578125,39.929813385009766,0
499,4990123,0.004469485022127628,0.010060465894639492,-0.9952813386917114,0.10706102848052979,-0.15559762716293335,0.4379023015499115,30.17885971069336,-8.69748306274414,39.354000091552734,0
500,4999971,0.019335901364684105,-0.06843370944261551,-1.0149905681610107,0.5199777483940125,-0.04819665476679802,0.4071936309337616,28.55537223815918,-8.872635841369629,40.905582427978516,0
501,5009859,-0.011086869053542614,0.08520271629095078,-1.0145982503890991,-0.036003097891807556,-0.39035215973854065,-0.8370903730392456,30.610219955444336,-10.151934623718262,39.972049713134766,0
502,5020086,-0.0019784877076745033,-0.037994641810655594,-1.0001672506332397,-0.3033924996852875,0.3673442006111145,-0.84308260679245,29.864458084106445,-9.849227905273438,40.61534881591797,0
503,5029894,-0.0515056811273098,-0.00024142468464560807,-0.9834858775138855,-0.8297163844108582,-0.393289178609848,0.9737570881843567,30.754188537597656,-10.840564727783203,40.908843994140625,0
504,5039923,-0.006757894530892372,0.07177142053842545,-0.9765512347221375,-0.6091119647026062,-0.5214370489120483,0.8711188435554504,31.940879821777344,-10.62440013885498,42.2001953125,0
505,5049800,0.008428327739238739,-0.025942977517843246,-0.9848845601081848,1.2294963598251343,-0.3598208725452423,-0.23498354852199554,28.159557342529297,-10.614116668701172,38.35064697265625,0
506,5059884,0.040271639823913574,-0.013686594553291798,-0.944227397441864,0.13336455821990967,-0.766044020652771,0.22018617391586304,29.25275421142578,-10.101094245910645,39.27071762084961,0
507,5070065,0.005420423578470945,0.06271245330572128,-1.0095678567886353,0.41207611560821533,-0.04322052001953125,0.4754015803337097,31.504182815551758,-8.882206916809082,42.51106262207031,0
508,5079937,0.004270703066140413,-0.011347493156790733,-0.9874267578125,-0.7782319188117981,-0.06326597929000854,-0.7364810109138489,28.175636291503906,-10.750651359558105,40.409149169921875,0
509,5090149,0.0599028617143631,0.029718603938817978,-0.9823684096336365,-0.10910964012145996,0.51439368724823,0.46275413036346436,28.87683868408203,-9.487009048461914,39.17226028442383,0
510,5099975,-0.008033148013055325,-0.007802643813192844,-1.019832968711853,0.016548577696084976,-0.04546684771776199,-0.34293198585510254,28.444026947021484,-9.025940895080566,39.96451187133789,0
511,5110287,0.09115692228078842,0.05906228721141815,-1.0103464126586914,-0.09114062786102295,0.7165330052375793,0.540009081363678,27.50853729248047,-10.8269681930542,39.21754455566406,0
512,5119989,-0.029376180842518806,0.05287615582346916,-0.9969921112060547,0.4461691975593567,0.30840396881103516,0.44622865319252014,30.249826431274414,-9.243941307067871,39.5170783996582,0
513,5129916,-0.02591436356306076,0.019278306514024734,-1.006151556968689,-0.6588355898857117,-0.19624096155166626,-0.23364512622356415,30.098068237304688,-9.755424499511719,41.428653717041016,0
514,5140111,-0.026398397982120514,0.02185935154557228,-0.9772204756736755,-0.2874657213687897,-0.129927858710289,0.5853168964385986,30.369260787963867,-11.362393379211426,38.87864303588867,0
515,5149964,0.1164618507027626,0.05143466591835022,-0.9907037019729614,0.4282900393009186,-0.5774406790733337,-0.2528570592403412,30.42168426513672,-10.639108657836914,40.93634033203125,0
516,5159851,-0.051096752285957336,-0.033699881285429,-1.0157756805419922,0.4228575527667999,-0.2053384929895401,-0.017890967428684235,31.129390716552734,-9.206578254699707,39.63821792602539,0
517,5170183,0.09646975994110107,0.01469795685261488,-0.9413368701934814,-0.3834517300128937,-0.05644015222787857,-0.364460289478302,30.642221450805664,-11.281902313232422,40.256107330322266,0
518,5179865,-0.006767862476408482,-0.08082257211208344,-0.9821738004684448,0.571569561958313,0.09733276069164276,1.0484118461608887,29.60251235961914,-10.532584190368652,39.14756774902344,0
519,5189934,0.004968671593815088,-0.052500832825899124,-1.0148388147354126,-0.1672695130109787,0.6018843054771423,0.37957069277763367,30.04502296447754,-11.970844268798828,40.53842544555664,0
520,5199949,-0.004956034477800131,-0.005334353074431419,-0.9740263819694519,0.14195650815963745,-0.2186257243156433,-0.5557960867881775,30.2177734375,-10.592724800109863,40.68540573120117,0
521,5210018,0.01200404018163681,0.028511902317404747,-1.0088971853256226,-0.4241233766078949,-0.48082026839256287,0.17143110930919647,30.450359344482422,-10.13874340057373,37.569496154785156,0
522,5219972,-0.03386816382408142,0.025490671396255493,-0.9914469122886658,1.3300012350082397,0.7739919424057007,0.1262369155883789,30.816009521484375,-9.220766067504883,38.714599609375,0
523,5229999,-0.03960607573390007,0.03744158521294594,-0.9981477856636047,0.531826376914978,0.572260320186615,0.6114500761032104,30.532873153686523,-8.653236389160156,40.179222106933594,0
524,5239966,0.059779807925224304,0.02015281468629837,-0.9824215769767761,0.17659862339496613,0.6943138241767883,0.6632489562034607,31.11783218383789,-10.119314193725586,39.66524124145508,0
525,5250099,-0.00866344291716814,0.015481701120734215,-0.9908050894737244,-0.05458932742476463,0.005724775139242411,-0.6910541653633118,30.545988082885742,-8.68952751159668,39.72309875488281,0
526,5260151,0.012888523750007153,0.014044929295778275,-0.9692857265472412,-0.37215372920036316,0.4077933728694916,-0.0019827706273645163,29.960071563720703,-10.698928833007812,38.528892517089844,0
527,5269842,-0.05247189477086067,0.06364499032497406,-1.0200828313827515,0.10089462995529175,-0.02612813003361225,-0.21919989585876465,27.11076545715332,-11.764230728149414,39.78668212890625,0
528,5279973,-0.01281898282468319,0.057866524904966354,-1.0247924327850342,0.07919443398714066,-0.04248316213488579,0.8299979567527771,30.53282928466797,-9.0681791305542,39.40751266479492,0
529,5289876,0.0715920701622963,0.10739151388406754,-1.0126738548278809,1.0083246231079102,0.4020032584667206,0.7693767547607422,29.552892684936523,-9.159961700439453,39.88885498046875,0
530,5299998,-0.01270310953259468,0.03831418231129646,-1.0154649019241333,-0.947399914264679,-0.36499884724617004,0.5321293473243713,29.94770050048828,-10.29592514038086,40.24553680419922,0
531,5310019,-0.04228461533784866,-0.08955960720777512,-0.9789173603057861,0.026395197957754135,-0.3485073745250702,0.5381535887718201,31.15728187561035,-8.803458213806152,37.41391372680664,0
532,5320068,0.03077305294573307,0.003071431303396821,-0.9747886657714844,0.25514107942581177,-0.026159685105085373,-0.32140591740608215,31.189617156982422,-9.642075538635254,40.38724136352539,0
533,5329839,0.020810091868042946,-0.05632929876446724,-0.9824524521827698,0.29606783390045166,-0.6763142943382263,0.026216620579361916,30.761384963989258,-11.6043062210083,39.954681396484375,0
534,5340059,0.002260785549879074,-0.09895702451467514,-0.9776007533073425,0.2966240346431732,0.2949291169643402,-0.6057658195495605,29.287513732910156,-10.155996322631836,39.46536636352539,0
535,5349864,-0.00188334914855659,-0.05924314633011818,-0.9745339751243591,-0.2714875042438507,0.22884522378444672,-0.5651059746742249,31.585899353027344,-10.386768341064453,40.91663360595703,0
536,5360122,-0.01988922245800495,-0.1302574723958969,-1.0156476497650146,-0.7306987047195435,-0.5888013243675232,1.3952795267105103,29.51026153564453,-8.35547924041748,40.947933197021484,0
537,5369738,-0.0280036311596632,0.007298617623746395,-0.9962775707244873,-0.02914360910654068,0.6088100075721741,-0.6788906455039978,29.23773765563965,-10.179577827453613,40.0899658203125,0
538,5379954,-0.10382001101970673,-0.016555748879909515,-1.0033355951309204,0.8826177716255188,0.8040074706077576,0.20683465898036957,28.70254135131836,-9.107583999633789,41.790042877197266,0
539,5389927,-0.047367922961711884,0.02628397010266781,-0.9875386357307434,-0.76573646068573,-0.37007075548171997,-0.09730789810419083,28.948715209960938,-11.168231964111328,40.640926361083984,0
540,5399920,0.06747258454561234,-0.047139596194028854,-0.9880064129829407,-1.0047215223312378,-0.24462871253490448,-0.1072080209851265,29.288265228271484,-9.884284019470215,39.02153015136719,0
541,5410067,0.020185628905892372,-0.06173716112971306,-0.9947323203086853,-0.7363736033439636,0.7446592450141907,-0.609838604927063,30.097204208374023,-9.820487976074219,38.305301666259766,0
542,5420085,0.013300281949341297,0.07560430467128754,-1.0283597707748413,0.10642976313829422,-0.49586206674575806,-0.06344567984342575,31.16032600402832,-9.388206481933594,40.30433654785156,0
543,5430132,0.07997873425483704,0.06847056746482849,-1.020993709564209,0.06724235415458679,1.1800936460494995,-0.06316815316677094,30.804676055908203,-9.06888198852539,39.1929817199707,0
544,5440093,-0.007575748022645712,-0.006607392802834511,-0.9862167835235596,0.19181735813617706,-0.007729052100330591,-0.4984833300113678,30.86801528930664,-10.029452323913574,39.31285858154297,0
545,5450078,-0.06382457166910172,0.025815097615122795,-0.9786767959594727,-0.07405645400285721,0.07150688767433167,-0.42384976148605347,29.351747512817383,-8.069780349731445,39.53744888305664,0
546,5460086,0.005518896505236626,-0.04941391572356224,-0.9638219475746155,0.0019906903617084026,0.2119908183813095,0.32802826166152954,29.028284072875977,-10.224265098571777,37.53084182739258,0
547,5469993,-0.05666949972510338,0.03875356540083885,-0.979285717010498,0.15035945177078247,0.3374559283256531,0.3055045008659363,29.378793716430664,-10.0623197555542,39.859004974365234,0
548,5479977,0.03776142746210098,0.0017911497270688415,-1.010588526725769,-0.0026032652240246534,0.6206044554710388,0.33804208040237427,30.055030822753906,-9.730447769165039,38.343048095703125,0
549,5489900,-0.0003854114911518991,-0.08274343609809875,-1.0053999423980713,0.3691261410713196,0.8599721193313599,-0.1752333790063858,30.00160789489746,-9.613014221191406,40.45108413696289,0
550,5500231,-0.015713874250650406,-0.07350707799196243,-0.9871308207511902,0.5848758816719055,1.0309041738510132,0.03236554190516472,30.99469757080078,-9.632609367370605,37.70830535888672,0
551,5509678,-0.042713865637779236,0.046650782227516174,-0.9660148024559021,0.2855250835418701,-0.6502299308776855,-0.8486303091049194,30.130773544311523,-10.652816772460938,39.62552261352539,0
552,5519893,0.06418805569410324,0.038316093385219574,-0.9775649309158325,1.2560195922851562,0.3379792273044586,-0.8001342415809631,29.240198135375977,-9.920022010803223,38.45668029785156,0
553,5530341,-0.04642240330576897,-0.07660159468650818,-1.0037930011749268,0.3037952780723572,0.9760373830795288,0.061977364122867584,29.670482635498047,-9.968988418579102,41.006553649902344,0
554,5540099,-0.02025946043431759,-0.028836548328399658,-1.0218461751937866,0.14364667236804962,-0.23461668193340302,0.3420066833496094,29.299633026123047,-9.815082550048828,39.8087043762207,0
555,5549825,0.0008858180372044444,-0.04131511598825455,-0.9952477812767029,0.010357382707297802,-0.24951164424419403,-0.29054757952690125,31.229419708251953,-10.874279975891113,39.37877655029297,0
556,5559867,0.050944384187459946,-0.10255318135023117,-1.0118414163589478,0.4017709195613861,0.504682183265686,-0.45878511667251587,28.660539627075195,-9.16531753540039,40.234683990478516,0
557,5569819,-0.06450899690389633,-0.003410341450944543,-1.0065233707427979,-0.09124118834733963,0.9366884827613831,0.10930933803319931,31.310152053833008,-9.926021575927734,40.05452346801758,0
558,5579981,-0.02838698960840702,0.08727635443210602,-1.0015199184417725,0.04442668333649635,1.2663718461990356,0.02498338185250759,31.58929443359375,-9.590540885925293,40.35938262939453,0
559,5590024,0.047369156032800674,0.01972091943025589,-0.9993453025817871,-0.512531578540802,-0.09077123552560806,-0.3173879384994507,29.047487258911133,-10.743331909179688,39.0883903503418,0
560,5600029,-0.06270260363817215,-0.032165754586458206,-1.0082194805145264,0.15567229688167572,0.1128469929099083,0.634294867515564,29.00218963623047,-9.638949394226074,40.94668960571289,0
561,5609840,0.09066246449947357,-0.07352934032678604,-1.0042589902877808,-0.43617111444473267,-0.15236517786979675,-0.5039576292037964,28.332109451293945,-10.172723770141602,38.19330978393555,0
562,5619976,-0.018664991483092308,0.010318315587937832,-1.042710542678833,-0.7857091426849365,-0.35799455642700195,-0.3455755114555359,30.292984008789062,-11.384824752807617,37.66628646850586,0
563,5630080,-0.040749017149209976,-0.051850952208042145,-1.0136840343475342,-0.057369451969861984,-0.07774684578180313,-0.6619173884391785,30.307723999023438,-10.172966003417969,40.45452880859375,0
564,5639915,0.0172277744859457,0.04332258552312851,-1.0245256423950195,-0.5594384074211121,0.5767722129821777,0.5426183342933655,30.36385726928711,-11.823160171508789,39.067604064941406,0
565,5649918,0.05730997771024704,0.005463690496981144,-1.0127109289169312,0.17411823570728302,0.04074542596936226,0.1408386379480362,30.121816635131836,-9.862125396728516,38.63549041748047,0
566,5660082,0.0005076512461528182,0.03156561031937599,-0.9896981120109558,0.46014565229415894,-0.1821514368057251,-0.024557901546359062,30.76519203186035,-10.338053703308105,39.060997009277344,0
567,5670241,0.08894767612218857,-0.08702614903450012,-0.9959196448326111,0.2560965418815613,0.05013928934931755,0.2313728630542755,29.46646499633789,-11.460411071777344,40.495609283447266,0
568,5680000,0.001695522340014577,0.04713127389550209,-1.0353649854660034,0.6267098188400269,-0.2520633041858673,-1.0603742599487305,30.335641860961914,-10.099588394165039,39.86361312866211,0
569,5690178,-0.06674018502235413,-0.043372415006160736,-1.021894097328186,0.24354125559329987,0.4600162208080292,0.6830351948738098,29.947952270507812,-9.874566078186035,41.55668640136719,0
570,5700105,-0.09616300463676453,0.0022014703135937452,-1.0148305892944336,0.9518994092941284,0.5044971704483032,-0.712250828742981,28.989002227783203,-9.049049377441406,39.230857849121094,0
571,5709992,-0.01392711978405714,0.021659845486283302,-0.9934847354888916,-0.6263261437416077,-0.2364342212677002,0.23085790872573853,28.66724395751953,-9.399042129516602,39.697357177734375,0
572,5720051,0.028011105954647064,0.046203866600990295,-1.0095499753952026,-0.6173818707466125,0.6491138935089111,0.03854990378022194,29.500789642333984,-8.509164810180664,39.43474578857422,0
573,5730182,-0.06004491448402405,-0.0007461776840500534,-1.023082971572876,-0.48611897230148315,1.2766869068145752,-0.41803762316703796,30.525020599365234,-11.034148216247559,38.69242477416992,0
574,5739994,-0.0176966805011034,0.013320501893758774,-1.0208802223205566,-0.4448511600494385,0.3775536119937897,0.4941951334476471,30.335519790649414,-8.810383796691895,38.76071548461914,0
575,5749875,-0.0684228464961052,-0.013052367605268955,-0.980061411857605,-0.022930609062314034,-0.09588927030563354,0.03808567672967911,30.32059669494629,-11.57277774810791,39.72543716430664,0
576,5759847,0.03457332029938698,-0.00942520797252655,-1.0223419666290283,-0.0901162400841713,0.28106996417045593,-0.8216098546981812,29.748136520385742,-8.463525772094727,41.14936447143555,0
577,5769803,-0.08421488106250763,0.05239710956811905,-1.0048564672470093,-0.7532278299331665,0.31115972995758057,1.0025650262832642,30.708526611328125,-9.30516529083252,39.87611389160156,0
578,5780195,0.000184268006705679,0.04621611535549164,-0.9915795922279358,0.6009716391563416,0.44943010807037354,0.19438743591308594,28.494234085083008,-10.1351957321167,38.196537017822266,0
579,5790125,-0.011336727067828178,-0.02035619132220745,-1.002253770828247,-0.12619560956954956,0.35609862208366394,0.28087472915649414,29.858314514160156,-9.675209045410156,40.3262825012207,0
580,5799986,0.009794085286557674,0.017121097072958946,-1.0109988451004028,0.6823568940162659,0.034300535917282104,0.6657723188400269,32.33677673339844,-10.06489372253418,39.327606201171875,0
581,5810104,-0.07003407925367355,0.05922187492251396,-0.9757663011550903,-0.4460441768169403,0.5050248503684998,0.4346819221973419,31.565427780151367,-9.745889663696289,39.6171760559082,0
582,5820254,0.00221525551751256,0.007431756239384413,-0.9596072435379028,0.31460657715797424,-0.04225059598684311,-0.08347605913877487,30.357852935791016,-11.565104484558105,39.62868118286133,0
583,5830201,0.012133440002799034,0.02345358580350876,-0.9780555963516235,0.49877649545669556,-0.16012795269489288,0.4645085036754608,31.75537109375,-9.980202674865723,39.911277770996094,0
584,5840134,-0.05044369027018547,0.025805864483118057,-0.9939530491828918,0.22112150490283966,1.0156303644180298,-0.3285214304924011,29.338665008544922,-11.267447471618652,40.293975830078125,0
585,5849844,0.020287880674004555,0.0066077192313969135,-1.0384670495986938,-0.050470463931560516,0.2955794334411621,-0.26083603501319885,29.471628189086914,-11.2540864944458,40.28246307373047,0
586,5859876,0.030143335461616516,-0.0922088474035263,-0.9681707620620728,0.8311783671379089,-0.27401575446128845,-0.32294389605522156,31.928401947021484,-10.590265274047852,38.98301696777344,0
587,5870042,0.0009246519184671342,-0.05565465986728668,-0.9853838682174683,-0.09171342849731445,0.5171135067939758,1.2800575494766235,31.065635681152344,-9.850892066955566,40.46976852416992,0
588,5880134,0.040573038160800934,-0.05185768008232117,-0.9968574643135071,0.05364692583680153,0.10154503583908081,-0.2942056655883789,29.654579162597656,-9.693469047546387,37.89458084106445,0
589,5890332,-0.010092240758240223,-0.0014293091371655464,-0.9853025674819946,0.17985369265079498,1.1807228326797485,-0.649948000907898,30.456960678100586,-10.445266723632812,39.52316665649414,0
590,5899732,0.10413821786642075,0.0257034320384264,-1.0232207775115967,0.5342422723770142,0.040764570236206055,0.20110531151294708,30.586463928222656,-9.07773208618164,39.607662200927734,0
591,5909894,-0.03557709977030754,-0.019866980612277985,-1.0560195446014404,-0.07414870709180832,-0.16315968334674835,-0.1624072939157486,28.172800064086914,-10.231379508972168,40.48814392089844,0
592,5919877,0.023955075070261955,0.07528471946716309,-0.9979500770568848,0.7900153398513794,0.10738024860620499,-0.09067933261394501,30.269290924072266,-9.854476928710938,41.79460144042969,0
593,5929943,0.08927147835493088,-0.09943388402462006,-1.005273461341858,-0.44138944149017334,-0.6150879263877869,-0.28159743547439575,29.147438049316406,-9.782114028930664,40.233760833740234,0
594,5940023,0.0027964150067418814,0.11931395530700684,-0.977333128452301,0.08130532503128052,0.13797912001609802,-0.3418339490890503,30.001453399658203,-9.997774124145508,39.951995849609375,0
595,5950113,-0.06807930767536163,-0.012639623135328293,-1.0391011238098145,0.7448663711547852,-0.4171525835990906,-0.41131284832954407,30.902286529541016,-9.634893417358398,39.84927749633789,0
596,5959985,0.06087334081530571,0.0632932037115097,-1.0023832321166992,0.10644208639860153,-0.04867834597826004,0.4258427023887634,30.23004150390625,-8.384051322937012,39.79717254638672,0
597,5970088,-0.004378822632133961,-0.05652574449777603,-1.0301545858383179,0.0034479903988540173,-0.3890354633331299,0.916673481464386,30.101173400878906,-9.856669425964355,40.15352249145508,0
598,5980275,-9.925852646119893e-05,0.09200598299503326,-0.9895574450492859,-0.3881356716156006,0.22888067364692688,0.1796911060810089,29.9376163482666,-8.528656959533691,38.39289855957031,0
599,5990013,0.05496319383382797,-0.031013021245598793,-0.934306800365448,-0.2868269979953766,0.04265435039997101,-0.9412256479263306,30.046432495117188,-11.455801010131836,40.2216796875,0
600,5999874,-0.039681576192379,0.053745340555906296,-0.9822130799293518,1.3033530712127686,0.5799888968467712,-0.440781831741333,30.36573028564453,-9.553524017333984,40.040252685546875,0
601,6010129,0.06511492282152176,-0.004701900761574507,-1.0085070133209229,-0.3472769260406494,-0.4632328748703003,-1.5511564016342163,30.012575149536133,-11.98548412322998,40.94169616699219,0
602,6019702,0.018923310562968254,-0.02805578149855137,-1.0124073028564453,-0.1951388716697693,0.13234645128250122,-0.3464362621307373,30.340740203857422,-9.58169937133789,39.53885269165039,0
603,6030210,0.025850171223282814,-0.0379796177148819,-0.9788950085639954,-0.748078465461731,-0.6671493053436279,0.19624324142932892,28.803543090820312,-10.737650871276855,40.597145080566406,0
604,6040385,0.01224831584841013,-0.01602218486368656,-1.0299097299575806,0.1275988221168518,-0.5442929267883301,-0.08596427738666534,30.982248306274414,-8.336950302124023,39.467620849609375,0
605,6049896,0.01401238888502121,0.04671115428209305,-1.0218651294708252,-0.04850945249199867,0.14628247916698456,-0.33133047819137573,31.311357498168945,-9.032081604003906,40.50751876831055,0
606,6060127,-0.026931025087833405,-0.04879576340317726,-0.9725095629692078,0.17824649810791016,0.38164055347442627,0.6764156818389893,28.88003158569336,-8.55959415435791,39.41762924194336,0
607,6069847,-0.050187934190034866,-0.0539356954395771,-0.98079514503479,-0.15686582028865814,-0.7965108156204224,-0.37400102615356445,31.392898559570312,-10.625057220458984,41.84276580810547,0
608,6080046,0.06191379204392433,0.022142354398965836,-0.993453860282898,-0.22997283935546875,-0.6439129710197449,-0.5322495102882385,29.798561096191406,-10.117818832397461,41.77674102783203,0
609,6089923,-0.0007365784258581698,-0.03652738779783249,-1.0201270580291748,0.5238712430000305,0.20900458097457886,0.583654522895813,29.782928466796875,-10.265069961547852,38.443382263183594,0
610,6099678,0.0016523883678019047,-0.008816661313176155,-0.9805619716644287,-0.1155548021197319,-0.6837282776832581,-1.2359880208969116,30.152969360351562,-9.282780647277832,40.62055587768555,0
611,6109629,-0.050540924072265625,0.04518456012010574,-1.010178565979004,-0.1645369529724121,0.01646086387336254,-0.2433178424835205,29.577617645263672,-9.426412582397461,42.443965911865234,0
612,6120100,-0.04042954742908478,0.02327675372362137,-1.0246846675872803,0.521540105342865,0.3666137456893921,-0.8864750266075134,31.7960262298584,-10.887116432189941,40.75208282470703,0
613,6129964,0.00758568337187171,-0.014776147902011871,-1.0320149660110474,-0.13387680053710938,-1.0639915466308594,0.19991756975650787,31.37376594543457,-9.902643203735352,39.2361946105957,0
614,6139876,0.039590977132320404,-0.049640409648418427,-1.010801076889038,-0.18195022642612457,0.24014683067798615,0.462862104177475,28.937952041625977,-7.585402965545654,40.23774719238281,0
615,6150113,0.04743964597582817,-0.004710785578936338,-0.9823585748672485,0.06635227054357529,0.47564882040023804,0.5717779994010925,29.097530364990234,-10.899785995483398,41.14262390136719,0
616,6159923,-0.03771315887570381,-0.1450260579586029,-0.9652076959609985,0.4702053666114807,-0.5810961127281189,-0.19567783176898956,30.874629974365234,-8.969976425170898,38.0696907043457,0
617,6170084,-0.0710083618760109,0.019239844754338264,-0.9888026118278503,-0.16785182058811188,0.17415809631347656,-0.27895277738571167,30.213085174560547,-11.207213401794434,38.46559524536133,0
618,6180068,0.08100170642137527,0.12267246842384338,-0.9901875257492065,0.22187766432762146,0.40841349959373474,0.26393696665763855,30.7258243560791,-8.907605171203613,39.73008728027344,0
619,6190023,-0.0027156968135386705,-0.05563513562083244,-0.9792517423629761,0.6078017354011536,-0.07351555675268173,0.6468498706817627,28.32442855834961,-10.970288276672363,38.91522979736328,0
620,6200171,-0.07165932655334473,-0.04463549330830574,-1.006583571434021,-0.8889727592468262,-0.16225193440914154,0.19937287271022797,28.676355361938477,-9.450981140136719,41.43526840209961,0
621,6209988,0.06505712121725082,0.0018471195362508297,-1.0414782762527466,-0.044612448662519455,-0.7760940194129944,0.15964485704898834,30.036376953125,-9.462231636047363,41.152584075927734,0
622,6220033,0.0006869536591693759,-0.044334761798381805,-1.0261545181274414,0.39014488458633423,0.4001595973968506,-0.26494282484054565,30.885915756225586,-10.733443260192871,39.582035064697266,0
623,6230001,0.013270844705402851,-0.0037290763575583696,-0.9866748452186584,-0.24131768941879272,0.43390652537345886,0.610694169998169,29.48262596130371,-9.295445442199707,40.903018951416016,0
624,6240165,-0.024944012984633446,0.13307560980319977,-1.002073049545288,-0.3692789375782013,-0.06474485993385315,0.5613436102867126,30.453495025634766,-9.3323392868042,39.4252815246582,0
625,6249985,0.008851292543113232,0.08221621066331863,-1.003101110458374,0.6191510558128357,0.7188193798065186,0.591407299041748,30.3742733001709,-11.861083984375,39.3753547668457,0
626,6260005,0.010587217286229134,-0.08728687465190887,-1.0096640586853027,0.273605078458786,-0.6974686980247498,-0.6676502823829651,32.5038948059082,-10.018314361572266,39.641231536865234,0
