seq,time_us,ax,ay,az,gx,gy,gz,mx,my,mz,drop_flag
0,113,-0.040355704724788666,-0.13237561285495758,-1.0064432621002197,0.8116488456726074,-0.06261958926916122,1.2680103778839111,30.501548767089844,-9.348136901855469,39.79285430908203,0
1,9947,-0.01579008810222149,0.06648733466863632,-1.0131051540374756,-1.0057592391967773,0.2633228302001953,-0.30343833565711975,30.784015655517578,-10.484500885009766,41.08616256713867,0
2,19975,-0.056466054171323776,0.03141740709543228,-0.9830159544944763,0.43363282084465027,0.463748961687088,-0.5050448775291443,31.09343147277832,-10.366042137145996,38.39540100097656,0
3,29870,-0.06803659349679947,0.07343734800815582,-0.9821098446846008,0.2470259666442871,0.3826844096183777,-0.21270893514156342,29.90729331970215,-8.945086479187012,39.03960037231445,0
4,40011,-0.04278635233640671,-0.025477612391114235,-0.9445030689239502,-0.5297881364822388,0.08164238184690475,-0.08344276994466782,29.767000198364258,-8.900172233581543,39.134376525878906,0
5,49874,-0.09221825748682022,-0.04292425140738487,-1.0025237798690796,0.03393705561757088,0.10909273475408554,-0.5495352745056152,29.329607009887695,-10.815542221069336,40.20546340942383,0
6,59903,0.008463765494525433,0.09692440927028656,-0.9857705235481262,0.026544194668531418,-0.12168363481760025,-0.1834285855293274,30.593704223632812,-10.785547256469727,40.45515823364258,0
7,69846,0.04689694941043854,0.03760014474391937,-1.023356318473816,-0.887031614780426,-1.0916372537612915,0.09169261157512665,30.666994094848633,-9.394003868103027,40.798709869384766,0
8,80016,-0.056166622787714005,-0.11821221560239792,-1.0089223384857178,0.31015610694885254,-0.11916054785251617,-1.1983245611190796,29.499258041381836,-9.440967559814453,39.93745422363281,0
9,90129,0.024165594950318336,0.07936747372150421,-1.0003091096878052,0.3105807304382324,-0.4908260405063629,-1.0937144756317139,30.362958908081055,-9.864387512207031,41.633331298828125,0
10,99680,-0.07439067959785461,0.00902329571545124,-0.9989932179450989,-0.8458473682403564,0.6655569672584534,0.3917683959007263,29.79834747314453,-10.117101669311523,39.450252532958984,0
11,110053,0.055250685662031174,0.039785631000995636,-1.03684663772583,0.26034897565841675,0.2848494350910187,-0.2111368328332901,30.22827911376953,-10.910261154174805,39.69853210449219,0
12,120035,-0.00019409239757806063,-0.06608626991510391,-0.9816008806228638,-0.050757765769958496,0.635436475276947,0.19505555927753448,28.524246215820312,-7.436690330505371,39.29704284667969,0
13,129929,0.11103890091180801,0.0013078729389235377,-1.0036729574203491,-0.9717615842819214,0.06165740266442299,-0.7241517901420593,29.891260147094727,-10.979132652282715,39.16357421875,0
14,139678,0.006683463230729103,-0.00025798773276619613,-1.0091181993484497,-0.2329190969467163,0.49986425042152405,-0.08606548607349396,30.596586227416992,-9.359979629516602,39.57453536987305,0
15,149927,-0.10957057029008865,0.025960490107536316,-1.0025038719177246,0.36885517835617065,0.2242104560136795,0.28943508863449097,30.6010684967041,-9.44750690460205,41.36594772338867,0
16,160180,0.11046992987394333,-0.01277716364711523,-1.00664222240448,0.625549852848053,-0.2576218843460083,0.7540530562400818,30.401098251342773,-9.626455307006836,39.80160903930664,0
17,170140,0.05259735882282257,0.029417434707283974,-1.0075030326843262,0.7524368762969971,-0.4086841642856598,0.4638374149799347,30.756595611572266,-9.528892517089844,41.10300827026367,0
18,180151,0.06623220443725586,-0.047613244503736496,-0.9923906922340393,-0.2809501886367798,0.35292837023735046,-0.24846142530441284,32.30369186401367,-9.4415864944458,40.18354415893555,0
19,189915,0.005925619974732399,-5.518444595509209e-05,-0.9966498017311096,-0.27859199047088623,0.36152565479278564,0.5666684508323669,31.602689743041992,-10.795001029968262,39.58518981933594,0
20,199825,-0.014620061963796616,0.04043956473469734,-0.9580928087234497,0.13034911453723907,0.16631820797920227,-0.3992767632007599,31.188234329223633,-8.860885620117188,38.90755844116211,0
21,209761,-0.03847301006317139,-0.027191419154405594,-1.0134156942367554,0.3356844186782837,-0.6504542231559753,-0.36094096302986145,30.04511260986328,-9.118267059326172,41.501304626464844,0
22,220006,0.05287071689963341,0.020526999607682228,-1.0177721977233887,-0.2998511791229248,0.12380730360746384,0.012683780863881111,30.986196517944336,-8.998222351074219,41.253055572509766,0
23,230143,0.018339477479457855,-0.04135245084762573,-0.9727310538291931,0.1342143416404724,-0.04103408381342888,-0.3996550142765045,31.252256393432617,-8.846933364868164,39.808170318603516,0
24,240046,0.004713836126029491,-0.0006250651204027236,-0.981123685836792,0.8791697025299072,-0.3768625855445862,-0.540462851524353,30.81699562072754,-7.992794990539551,39.34096908569336,0
25,250064,-0.03317955136299133,0.04184985160827637,-0.9729636907577515,0.03122265636920929,0.6220054030418396,-0.6039486527442932,31.157236099243164,-7.980631351470947,38.80385208129883,0
26,259755,-0.040360793471336365,0.04326675087213516,-1.0216506719589233,0.27601853013038635,0.10436280071735382,-0.5175982117652893,30.13559913635254,-11.158695220947266,38.62421798706055,0
27,270092,-0.039227329194545746,-0.08133622258901596,-0.9826735258102417,0.6093241572380066,0.20861421525478363,-0.06893552839756012,29.872922897338867,-9.517097473144531,40.95845031738281,0
28,279843,-0.02657531574368477,-0.08018680661916733,-1.0144071578979492,0.04518315568566322,0.6064411401748657,0.04214492440223694,28.12812614440918,-10.874415397644043,40.14350128173828,0
29,289971,0.0626303181052208,0.05891578644514084,-1.0263301134109497,-0.298663467168808,-0.716632604598999,-0.6509571075439453,29.78091049194336,-10.105819702148438,40.15266036987305,0
30,300053,-0.01123303733766079,0.06631556153297424,-1.0250855684280396,0.25034961104393005,0.26447436213493347,-0.1381581872701645,31.67160987854004,-9.52277660369873,39.744876861572266,0
31,309978,-0.0032928690779954195,0.045376647263765335,-0.999705970287323,-0.5374764800071716,0.015920383855700493,-0.20079895853996277,29.843055725097656,-10.359150886535645,40.34297180175781,0
32,320057,-0.0097687728703022,0.04083864763379097,-1.0197672843933105,-0.6208287477493286,-0.7220404744148254,-0.02284681610763073,29.245899200439453,-7.554144382476807,39.55024719238281,0
33,330054,0.05312396213412285,-0.06370854377746582,-1.0082169771194458,-0.09679482877254486,0.36482998728752136,-0.03774208202958107,29.6781005859375,-11.23312759399414,40.326290130615234,0
34,339955,0.02346903271973133,0.022444065660238266,-0.9998090863227844,-0.13404497504234314,-0.06198563426733017,0.7549086809158325,30.61043357849121,-8.411843299865723,40.96677017211914,0
35,349708,-0.049591921269893646,-0.10386940091848373,-0.9715983867645264,-0.5304759740829468,0.23090338706970215,0.17856918275356293,30.588621139526367,-11.440373420715332,40.934791564941406,0
36,360144,0.007561727426946163,-0.04162183403968811,-1.0289348363876343,0.23285746574401855,-0.019937457516789436,-0.43024253845214844,30.332605361938477,-10.43781852722168,39.57147979736328,0
37,369925,0.014878840185701847,-0.02703658863902092,-1.012840747833252,-0.5761975049972534,-0.26619502902030945,0.4053347110748291,31.488094329833984,-10.627873420715332,42.97751235961914,0
38,379809,0.0628797635436058,0.07638281583786011,-1.027518630027771,-0.12320713698863983,-0.79314124584198,0.0370696522295475,28.23758316040039,-10.312810897827148,42.02537536621094,0
39,390201,-0.06939983367919922,0.03607739880681038,-0.9887083172798157,0.2006254494190216,0.045161835849285126,0.3203345239162445,30.71084213256836,-9.973997116088867,40.64836120605469,0
40,399832,-0.03043096885085106,0.0017741837073117495,-1.0489354133605957,-0.9723473787307739,0.5346072912216187,-0.2617286443710327,30.192447662353516,-10.347702026367188,39.20092010498047,0
41,409796,-0.03644905239343643,-0.03695283830165863,-0.9985952377319336,-0.831678032875061,0.4181218445301056,-0.44524505734443665,30.650131225585938,-10.023954391479492,38.50956726074219,0
42,419842,0.003838712815195322,0.03972512483596802,-1.0095467567443848,0.05829974263906479,-0.7737703919410706,-0.22936275601387024,30.33238983154297,-10.042011260986328,41.921566009521484,0
43,430032,-0.0040502166375517845,-0.04460633546113968,-0.9877638220787048,0.46310755610466003,-0.06493088603019714,0.29348012804985046,28.958242416381836,-8.330595016479492,39.3635368347168,0
44,439751,-0.0020199406426399946,0.06020404025912285,-0.9713340997695923,-1.4568651914596558,-0.44412270188331604,-0.16499248147010803,30.324050903320312,-9.395570755004883,40.22587585449219,0
45,450063,0.00908284168690443,0.02667134813964367,-1.006516933441162,-1.2546350955963135,1.0301599502563477,-0.19236311316490173,29.634672164916992,-10.787248611450195,38.62214660644531,0
46,460110,-0.07870560884475708,0.06726310402154922,-0.9798459410667419,-0.08277534693479538,0.08338390290737152,-0.11514364928007126,29.607118606567383,-9.416403770446777,40.35319137573242,0
47,470002,-0.07474879920482635,-0.01826222985982895,-0.9955602884292603,-0.7819406390190125,-0.630435585975647,-0.3886100947856903,30.6931209564209,-9.739653587341309,39.70078659057617,0
48,480192,0.0905127003788948,0.0677620992064476,-0.9635530710220337,0.004507357254624367,-0.5252506732940674,0.7825962901115417,29.428394317626953,-9.235552787780762,39.26063537597656,0
49,489804,0.046207841485738754,-0.057104118168354034,-1.000220537185669,0.1136007234454155,-0.013859913684427738,0.6263271570205688,31.150941848754883,-10.979327201843262,39.36553955078125,0
50,499892,0.044450316578149796,0.00740881497040391,-1.0141322612762451,-0.4704238176345825,0.1817442923784256,-0.06272589415311813,28.92636489868164,-8.527426719665527,40.16530990600586,0
51,510136,-0.022946234792470932,0.005298752803355455,-1.0025174617767334,-0.008047983050346375,-0.49734729528427124,-0.2784455120563507,29.210542678833008,-9.5596342086792,38.56178283691406,0
52,520223,0.03215373679995537,0.04825263097882271,-0.9827849268913269,0.3062799274921417,0.3028024733066559,0.04329324886202812,28.546916961669922,-8.745776176452637,39.61506652832031,0
53,529935,-0.07604329288005829,-0.03174174204468727,-0.9959110021591187,0.26901233196258545,-0.143524631857872,-0.06574580818414688,30.746196746826172,-9.192020416259766,42.73147201538086,0
54,540103,-0.026252496987581253,-0.018581045791506767,-1.016623616218567,-0.15631991624832153,0.8860004544258118,0.9540246725082397,30.696149826049805,-7.909017086029053,40.0717658996582,0
55,549937,0.007889163680374622,0.013153932057321072,-0.9913017153739929,-0.61476731300354,-0.13834092020988464,-0.8322137594223022,29.51174545288086,-11.192130088806152,41.080440521240234,0
56,559801,0.052947577089071274,0.04978491738438606,-1.0242924690246582,-0.5176495313644409,0.2279147505760193,0.4127205014228821,29.60215187072754,-9.311989784240723,40.29267501831055,0
57,570076,-0.028367774561047554,0.03777281194925308,-1.0222710371017456,-0.25144675374031067,0.6805406212806702,-0.27341946959495544,30.988170623779297,-9.873339653015137,40.62400817871094,0
58,579835,-0.020939771085977554,-0.10209554433822632,-0.9906644225120544,-0.014736110344529152,0.1690686196088791,0.17034077644348145,29.850269317626953,-9.678336143493652,38.346290588378906,0
59,590111,-0.03939402848482132,0.044578831642866135,-0.9919245839118958,0.31515493988990784,-0.30964145064353943,0.5490813851356506,28.88249397277832,-8.784623146057129,40.134307861328125,0
60,600021,0.03154107555747032,0.006559363566339016,-0.9913978576660156,-0.3654213547706604,-0.5522908568382263,-0.029418954625725746,29.87105369567871,-10.751002311706543,38.37470245361328,0
61,609943,0.025704573839902878,0.08198939263820648,-1.004313349723816,-0.12379283457994461,-0.3216257393360138,0.036489661782979965,29.570579528808594,-10.591727256774902,39.41458511352539,0
62,619590,-0.020609639585018158,0.002399887191131711,-1.0028200149536133,-1.0219027996063232,-0.39363062381744385,0.18032531440258026,29.99172592163086,-9.497983932495117,39.03463363647461,0
63,629966,-0.06489043682813644,-0.05662914365530014,-1.0242419242858887,-0.4260304570198059,0.18206708133220673,-0.7550135254859924,31.524070739746094,-10.663848876953125,38.46924591064453,0
64,639819,0.0668577030301094,-0.005016696639358997,-0.9939820170402527,0.030818451195955276,-0.47611525654792786,1.2171227931976318,30.155160903930664,-9.131285667419434,39.81969451904297,0
65,649863,0.05851966142654419,0.00528757693246007,-1.0035990476608276,-0.23892860114574432,0.6623314023017883,-0.3814925253391266,27.386171340942383,-10.692605972290039,39.66584396362305,0
66,660231,-0.07715567946434021,-0.06906048953533173,-0.9880662560462952,-0.6567546725273132,0.23726435005664825,0.6127957105636597,29.535547256469727,-10.611922264099121,38.75939178466797,0
67,669968,0.01774262823164463,-0.0048368931747972965,-0.9991714358329773,-0.49488362669944763,-0.24354510009288788,0.06772825121879578,28.471954345703125,-10.357521057128906,39.18921661376953,0
68,680098,0.0014999696286395192,0.057563215494155884,-1.0059269666671753,-0.10178688913583755,-0.818679928779602,-0.6734535694122314,28.215744018554688,-10.68576717376709,39.90726089477539,0
69,690150,0.09650987386703491,-0.14023062586784363,-0.9806139469146729,-0.451794296503067,-0.3429788649082184,-1.0164092779159546,30.879600524902344,-10.676443099975586,39.0266227722168,0
70,699981,0.1408759355545044,0.026831163093447685,-1.0230860710144043,0.6291564702987671,-0.12834227085113525,0.35171183943748474,28.190765380859375,-10.075691223144531,41.30436706542969,0
71,710040,0.06762401014566422,0.07745926082134247,-1.0130053758621216,-0.8856925368309021,-0.17671161890029907,-0.16503079235553741,27.899911880493164,-10.851346015930176,38.81360626220703,0
72,719663,-0.06486079841852188,-0.0501304492354393,-0.9941866993904114,0.023437699303030968,-0.6442641615867615,0.5855698585510254,29.97545051574707,-10.129753112792969,39.985618591308594,0
73,730081,0.07807663083076477,0.003220036393031478,-0.9938759803771973,-1.28951895236969,0.026506368070840836,0.14562390744686127,29.950042724609375,-10.338513374328613,39.38053894042969,0
74,740042,-0.019938837736845016,-0.05739443749189377,-0.9906055331230164,-0.30197325348854065,0.38002121448516846,0.6972701549530029,31.19318389892578,-8.435248374938965,39.944732666015625,0
75,750082,0.0870325118303299,-0.03395456820726395,-1.012238621711731,-0.13314586877822876,-0.4285552203655243,-0.30733823776245117,30.1250057220459,-9.469916343688965,42.175148010253906,0
76,759802,-0.04759634658694267,-0.09684393554925919,-1.0035195350646973,0.974144697189331,-0.2782394289970398,-0.3699985146522522,27.68498420715332,-10.900507926940918,41.01300048828125,0
77,769840,-0.008297096006572247,-0.09831193834543228,-0.9975121021270752,-0.331434428691864,-0.6552618741989136,0.720063328742981,29.45427703857422,-9.154867172241211,39.53758239746094,0
78,779858,-0.061591777950525284,0.013288547284901142,-1.0112384557724,-0.5573039054870605,-0.40397611260414124,0.5613368153572083,29.47170066833496,-9.995853424072266,39.61088562011719,0
79,790046,-0.04176866635680199,0.03384280577301979,-0.9842090010643005,0.0021686851978302,-0.981132984161377,-0.529897928237915,31.3262939453125,-11.788090705871582,41.78348159790039,0
80,799885,0.11284869909286499,0.001489700865931809,-0.9898603558540344,0.29744037985801697,0.2999609410762787,-0.28977203369140625,28.140928268432617,-9.172554969787598,39.835960388183594,0
81,810059,-0.07490997761487961,-0.006982132326811552,-0.9951031804084778,-0.5726379752159119,-0.048786263912916183,0.05040765181183815,29.464506149291992,-10.882651329040527,39.4331169128418,0
82,820187,-0.03650745376944542,-0.04138844460248947,-0.9689505696296692,0.6500160098075867,0.0037408622447401285,-0.48736849427223206,29.1215877532959,-9.539261817932129,40.49652862548828,0
83,829784,0.06653765588998795,-0.02122662402689457,-0.9983432292938232,0.1608860343694687,0.016386816278100014,-0.6694352626800537,30.72643280029297,-10.194323539733887,39.659515380859375,0
84,840184,-5.1153838285245e-05,0.043108657002449036,-1.0065717697143555,0.1979478895664215,-0.2484624981880188,0.8667963743209839,29.14120101928711,-8.994051933288574,39.96906280517578,0
85,849835,0.025558769702911377,0.007967877201735973,-1.0128737688064575,0.7720997929573059,0.4178284704685211,-0.15909375250339508,28.032657623291016,-9.582625389099121,40.37819290161133,0
86,860040,-0.06048520654439926,0.04353219270706177,-0.9788327217102051,-0.06132420897483826,-0.6285076141357422,-0.04543791338801384,30.192537307739258,-9.612396240234375,38.09545135498047,0
87,870037,-0.03205382451415062,-0.12372275441884995,-1.0081220865249634,-0.7596228718757629,-1.215535283088684,0.23920784890651703,28.558748245239258,-10.924819946289062,41.247413635253906,0
88,880274,-0.0485982671380043,0.06256436556577682,-1.0099376440048218,0.1945052593946457,0.05246562138199806,0.48460671305656433,30.423919677734375,-10.308259010314941,39.69925308227539,0
89,889852,0.009239813312888145,-0.013684775680303574,-0.978041410446167,-0.5732129812240601,-0.41982993483543396,0.15651483833789825,29.279369354248047,-11.877299308776855,40.71725082397461,0
90,900107,-0.13147445023059845,0.06322415918111801,-0.9911214113235474,-0.2344440519809723,-0.34686383605003357,-0.23710371553897858,28.88030433654785,-10.081612586975098,41.630126953125,0
91,909912,0.09739745408296585,-0.009188017807900906,-1.013778805732727,-0.7189685106277466,-0.23747947812080383,0.5549398064613342,29.435789108276367,-9.37460708618164,40.40806579589844,0
92,919807,0.017767973244190216,0.04571238532662392,-1.0081769227981567,0.3215715289115906,-0.20943714678287506,0.3190035820007324,31.045379638671875,-11.914685249328613,40.7607536315918,0
93,929848,-0.01909356564283371,-0.052793510258197784,-1.0033628940582275,0.2554778754711151,0.5144286751747131,-0.1601731926202774,30.917896270751953,-9.577136039733887,40.74225616455078,0
94,939841,-0.019924527034163475,0.03501296415925026,-1.0078539848327637,-0.20950143039226532,0.49232980608940125,-0.6118675470352173,29.01357650756836,-10.005908012390137,38.16215133666992,0
95,949990,-0.0601663738489151,-0.011242195032536983,-1.0134429931640625,-0.05018346384167671,-0.5918899774551392,0.610169529914856,29.209808349609375,-10.924935340881348,38.4970703125,0
96,959903,-0.06919314712285995,-0.05135013535618782,-0.9936321377754211,0.3341999650001526,0.3758905529975891,-0.6745022535324097,27.6729679107666,-10.009771347045898,41.452938079833984,0
97,970077,-0.02245575748383999,-0.015482502058148384,-0.9704505801200867,0.40442851185798645,0.28107860684394836,0.9567825794219971,31.6368408203125,-10.576177597045898,39.417640686035156,0
98,979956,-0.05392002686858177,0.03293788433074951,-1.030565619468689,-0.004351350944489241,0.2929534614086151,-0.12042201310396194,30.308826446533203,-8.891866683959961,39.019168853759766,0
99,989873,-0.032089713960886,-0.026888180524110794,-0.99555903673172,1.4598726034164429,0.04278528317809105,-0.3975122570991516,29.632619857788086,-8.371992111206055,40.71205520629883,0
100,999919,-0.015180625952780247,-0.008044542744755745,-0.9974731206893921,0.6815792322158813,-0.5249528884887695,-0.4261471927165985,29.864429473876953,-9.98003101348877,40.2261962890625,0
101,1009983,-0.021640798076987267,0.03238162025809288,-1.0050382614135742,-0.6960591077804565,0.1186276376247406,0.11602257192134857,31.906219482421875,-9.103961944580078,40.932769775390625,0
102,1019988,0.08322611451148987,0.028059517964720726,-0.9957937002182007,0.4207581579685211,-0.125746950507164,0.018990738317370415,29.707468032836914,-11.315013885498047,40.679962158203125,0
103,1030077,0.03295508399605751,0.01809866540133953,-1.0169602632522583,-0.8582220673561096,0.21970930695533752,0.11873802542686462,29.08483123779297,-10.392256736755371,39.7440185546875,0
104,1039977,-0.03941650688648224,-0.0362219475209713,-1.0101810693740845,0.3086901009082794,0.9187250137329102,-0.5793185234069824,29.28959083557129,-9.79289722442627,40.190792083740234,0
105,1050087,-0.028470439836382866,-0.038335103541612625,-1.0009024143218994,-0.08368320763111115,-0.07082544267177582,0.40973183512687683,32.017879486083984,-9.994852066040039,40.72909164428711,0
106,1059879,0.004459739197045565,-0.0073307715356349945,-0.9841628670692444,-0.13511978089809418,0.4222630262374878,0.46596717834472656,29.48577308654785,-8.445101737976074,38.75843048095703,0
107,1069862,0.03521730750799179,-0.08580321073532104,-1.007888674736023,1.167081594467163,0.5006969571113586,0.1614866703748703,30.53699493408203,-9.364880561828613,39.48963165283203,0
108,1080020,0.038506392389535904,-0.0097130686044693,-1.0098867416381836,-0.16589975357055664,-0.18773344159126282,-0.24293121695518494,31.31093406677246,-9.355246543884277,38.78584671020508,0
109,1089988,-0.03054620698094368,-0.050324395298957825,-0.9982113242149353,-0.2410764843225479,0.8962833881378174,-0.35346007347106934,30.84299087524414,-9.27511978149414,38.11005401611328,0
110,1099940,-0.049971792846918106,-0.042713746428489685,-1.0209110975265503,0.06438320130109787,0.4506028890609741,0.07995367795228958,31.90617561340332,-9.448934555053711,40.257102966308594,0
111,1110306,0.0022013552952557802,-0.08066654950380325,-0.9866146445274353,-0.8827607035636902,0.9085210561752319,-1.3116469383239746,30.322906494140625,-9.863425254821777,39.54141616821289,0
112,1119879,0.037326015532016754,0.0019530222052708268,-0.9861488342285156,-0.4009282886981964,0.1051315888762474,0.05655538663268089,31.177738189697266,-10.75937557220459,40.85560989379883,0
113,1130102,0.0019141692901030183,-0.022807449102401733,-1.0129270553588867,-0.5480663776397705,0.4201170802116394,-0.49750983715057373,29.357891082763672,-10.184508323669434,39.98957443237305,0
114,1139939,-0.05242234468460083,-0.019488079473376274,-0.985434353351593,-0.07362846285104752,0.41053158044815063,0.2756615877151489,30.854148864746094,-9.931035041809082,41.21849822998047,0
115,1149840,0.04146290570497513,0.05836740508675575,-0.9809157848358154,-0.8605022430419922,-0.06628664582967758,0.6680259108543396,32.5516242980957,-10.817724227905273,41.278446197509766,0
116,1160125,-0.0005043384153395891,0.01237179059535265,-0.9954388737678528,0.42491260170936584,-0.28944867849349976,-0.2207070291042328,31.141836166381836,-11.245220184326172,40.158119201660156,0
117,1169865,-0.03786638751626015,-0.06850369274616241,-1.0099458694458008,-0.9963505864143372,-0.7540389895439148,0.906449556350708,30.308082580566406,-12.751716613769531,39.34822082519531,0
118,1179963,0.0033699769992381334,-0.045643649995326996,-1.0185240507125854,0.805387556552887,0.4369478225708008,0.5684508681297302,29.28849220275879,-11.268704414367676,40.797210693359375,0
119,1189987,0.048065055161714554,-0.0072730788961052895,-0.9922770857810974,0.6828811168670654,0.24475204944610596,0.028540033847093582,30.27497100830078,-10.45455551147461,40.00373458862305,0
120,1199844,0.052844516932964325,0.08399606496095657,-1.0145965814590454,0.40608322620391846,-0.999466598033905,0.18272574245929718,29.74552345275879,-9.802120208740234,38.18817901611328,0
121,1209929,0.04448682442307472,0.02904519811272621,-0.9596472978591919,-0.8607216477394104,-0.21649269759655,-0.31420958042144775,28.903764724731445,-11.092473030090332,41.50437927246094,0
122,1219992,-0.10101328790187836,0.05155397579073906,-0.9653289914131165,0.5449202656745911,-0.376888245344162,-0.8338152766227722,29.42706871032715,-8.332819938659668,41.68449401855469,0
123,1230027,0.0827813372015953,-0.0445103645324707,-1.013399600982666,-0.19347751140594482,0.05234653502702713,0.37822332978248596,31.311725616455078,-8.879236221313477,40.37690734863281,0
124,1239872,0.010819015093147755,0.01647966541349888,-1.0391957759857178,0.19070473313331604,-0.0518881194293499,-0.21527156233787537,29.68444061279297,-12.198724746704102,40.79750061035156,0
125,1250252,0.06558044999837875,-0.03412121906876564,-1.0079846382141113,-0.1348956972360611,-0.9960689544677734,-0.24761132895946503,31.653697967529297,-9.628463745117188,39.27809524536133,0
126,1259825,-0.031473610550165176,0.005376965273171663,-1.0072824954986572,0.5330754518508911,0.38847318291664124,-0.2601052224636078,28.17633819580078,-9.542886734008789,37.950077056884766,0
127,1270028,0.02028791606426239,0.025912906974554062,-0.9608690738677979,0.17330564558506012,0.5396159887313843,-1.1277976036071777,29.530672073364258,-11.32966136932373,37.46223068237305,0
128,1279879,0.036772243678569794,0.05897609516978264,-0.9925857186317444,0.3194769024848938,-0.43781742453575134,-0.07744034379720688,31.72888946533203,-7.504850387573242,38.92387771606445,0
129,1289927,0.03205164894461632,0.03619473800063133,-0.980101466178894,-0.7391956448554993,0.03662244230508804,0.3800641596317291,29.85702896118164,-13.807408332824707,40.738040924072266,0
130,1300141,0.058505356311798096,0.013121310621500015,-1.000941276550293,0.19956322014331818,-0.1163216382265091,0.41821250319480896,30.933794021606445,-10.92500114440918,39.60713195800781,0
131,1309939,-0.04686450958251953,-0.009166020900011063,-0.999537467956543,-0.889037549495697,0.11361062526702881,0.6426011323928833,29.315265655517578,-9.142048835754395,41.70428466796875,0
132,1319824,0.0058219353668391705,-0.06071455031633377,-1.012819766998291,0.7008815407752991,0.2793472111225128,0.37702375650405884,29.67473602294922,-12.182144165039062,39.4281120300293,0
133,1329785,0.03475764021277428,0.02326447330415249,-1.0269551277160645,-0.009104725904762745,-1.2700316905975342,-0.6883856654167175,30.506494522094727,-10.74328899383545,40.922523498535156,0
134,1340196,0.06440268456935883,-0.016237473115324974,-0.9719071984291077,0.02800149656832218,-0.17222826182842255,-0.43408477306365967,31.961631774902344,-8.98399829864502,40.74147415161133,0
135,1350379,0.0236363522708416,-0.025504911318421364,-1.0029871463775635,0.8243377208709717,0.6258491277694702,0.772491455078125,28.414812088012695,-11.221955299377441,38.448001861572266,0
136,1360020,0.0006810219492763281,-0.01513643842190504,-0.9414454698562622,0.2117711901664734,0.18580850958824158,-0.31671252846717834,29.539033889770508,-11.654601097106934,40.147403717041016,0
137,1369996,0.000723959703464061,0.08134617656469345,-1.006008505821228,-0.4941491484642029,0.4154452085494995,-0.8822706341743469,30.377965927124023,-9.8433198928833,40.78328323364258,0
138,1380106,-0.017764803022146225,0.060470908880233765,-0.9885919094085693,0.014483364298939705,0.04504365473985672,0.3344612419605255,30.488265991210938,-10.467924118041992,40.00226593017578,0
139,1389777,-0.036630045622587204,-0.04065082222223282,-0.9791167974472046,0.14598864316940308,0.45138031244277954,0.260437935590744,31.38671875,-9.156298637390137,40.4368896484375,0
140,1399928,0.09486345201730728,0.01186183001846075,-0.9950476288795471,-0.396627277135849,0.7006065249443054,-0.2718304693698883,31.506189346313477,-8.826312065124512,39.6612434387207,0
141,1410166,-0.11039402335882187,-0.00560157373547554,-1.0222729444503784,-0.7053371071815491,-0.17237335443496704,1.0942503213882446,30.402536392211914,-10.758578300476074,42.561641693115234,0
142,1419949,0.011187013238668442,0.07293691486120224,-0.9714851379394531,-0.14169996976852417,-0.09764324873685837,0.7259400486946106,28.77616310119629,-9.43455982208252,41.7960319519043,0
143,1429967,0.026088334619998932,0.03172525018453598,-1.0424243211746216,0.1822965443134308,0.4658057987689972,0.06792445480823517,29.997392654418945,-9.669828414916992,39.81509780883789,0
144,1440101,-0.02369069680571556,-0.023866822943091393,-1.002665638923645,-0.0980587974190712,1.121350646018982,-0.24306218326091766,29.584352493286133,-8.276631355285645,37.72561264038086,0
145,1450242,0.03417235240340233,0.02167285606265068,-1.0042390823364258,0.7964151501655579,-0.4467058777809143,0.6878101229667664,28.984539031982422,-10.304292678833008,39.915443420410156,0
146,1460070,-0.04227516055107117,0.058499403297901154,-0.9777479767799377,-0.14704842865467072,0.4022950530052185,-0.7221869230270386,30.456506729125977,-9.108078956604004,39.35343933105469,0
147,1469995,0.018293822184205055,-0.16353152692317963,-1.0249552726745605,-0.26514703035354614,0.25281113386154175,-0.5013239979743958,27.630950927734375,-9.841290473937988,40.26222229003906,0
148,1480105,-0.006497760768979788,-0.01963932439684868,-0.9567567110061646,0.10700792819261551,0.1259068250656128,-0.3820858895778656,29.160018920898438,-10.258980751037598,39.704368591308594,0
149,1489839,0.05403874069452286,-0.01985469087958336,-0.9736988544464111,-0.002672862261533737,-0.7772524952888489,-0.20306532084941864,31.080272674560547,-10.48611831665039,39.816368103027344,0
150,1500031,0.07923394441604614,-0.06547398865222931,-0.9916127920150757,0.5045110583305359,0.35559630393981934,-0.4096694886684418,30.7667293548584,-7.978691577911377,38.795955657958984,0
151,1509938,0.05611257255077362,0.015045028179883957,-0.9708114862442017,-0.1935226172208786,0.17762267589569092,-0.42165422439575195,29.706453323364258,-8.888479232788086,39.07744598388672,0
152,1519912,-0.03246152773499489,-0.0554141066968441,-0.9892688393592834,0.3314823508262634,0.07904078811407089,0.6783267855644226,28.353713989257812,-10.00713062286377,40.60539245605469,0
153,1529937,0.08797803521156311,-0.012822971679270267,-0.9940899610519409,0.12275568395853043,-0.31387487053871155,1.0011818408966064,30.45241355895996,-12.632024765014648,40.43025588989258,0
154,1540025,0.09123174846172333,-0.05229663476347923,-0.9811726808547974,0.5824214220046997,1.0978176593780518,0.5103740096092224,30.320348739624023,-10.126053810119629,39.28449630737305,0
155,1550058,0.00021314156765583903,-0.03285452723503113,-1.0201525688171387,0.563785195350647,-1.0310921669006348,0.11335251480340958,29.284198760986328,-9.788639068603516,40.309173583984375,0
156,1559822,0.09204087406396866,-0.06431566923856735,-0.96913743019104,0.13468390703201294,0.3172341287136078,-0.4399350583553314,30.73133659362793,-8.608466148376465,40.0721321105957,0
157,1570008,-0.02897525019943714,0.09188739955425262,-1.0223536491394043,0.06078120321035385,-0.19170373678207397,0.5555311441421509,30.715133666992188,-8.814740180969238,40.737606048583984,0
158,1580034,-0.057194218039512634,-0.013516565784811974,-0.9707328677177429,-0.00411791680380702,1.034441351890564,-1.1743000745773315,30.391815185546875,-10.083312034606934,37.270320892333984,0
159,1590157,-0.016622580587863922,0.01461241114884615,-0.9797680377960205,0.5708571672439575,-0.64423668384552,0.18020692467689514,27.953920364379883,-9.173150062561035,40.81841278076172,0
160,1599908,-0.003957721870392561,-0.028197772800922394,-1.020763635635376,0.7592601776123047,-0.9382491707801819,0.364692747592926,29.766216278076172,-8.791764259338379,39.58555221557617,0
161,1609770,-0.06654615700244904,0.031152185052633286,-0.9887580871582031,-0.6059001088142395,-1.3698091506958008,0.35669979453086853,28.468164443969727,-9.47790241241455,39.388797760009766,0
162,1619773,-0.05536366254091263,-0.02404189668595791,-1.010073184967041,-0.30952656269073486,0.17166687548160553,0.07846224308013916,29.67449378967285,-10.909709930419922,41.51639175415039,0
163,1629906,0.10042054951190948,0.04974581301212311,-0.989355742931366,-0.005784019827842712,-0.3655542731285095,0.30571115016937256,29.5418643951416,-9.189472198486328,38.11942672729492,0
164,1640140,-0.03948697820305824,-0.045908890664577484,-0.98358553647995,-0.1653248518705368,0.6689198017120361,0.5684106945991516,30.127248764038086,-10.457202911376953,41.88432693481445,0
165,1649778,0.054013222455978394,0.05784958600997925,-0.9879118204116821,0.17309974133968353,0.30050015449523926,-0.1789330542087555,31.31327247619629,-9.829915046691895,40.309444427490234,0
166,1659789,0.08470281213521957,-0.003284553764387965,-1.01752507686615,0.0531119778752327,-0.36006757616996765,0.9202329516410828,30.98979377746582,-9.599282264709473,39.84642791748047,0
167,1669993,-0.012040121480822563,0.07292275875806808,-0.9829820990562439,0.3884093463420868,0.2187352180480957,0.5974839329719543,30.564599990844727,-9.075885772705078,40.157684326171875,0
168,1680028,0.06815621256828308,0.015264592133462429,-0.9939290285110474,0.11493680626153946,-0.20237788558006287,0.6215204000473022,29.995441436767578,-9.419473648071289,39.920406341552734,0
169,1690000,0.1297433227300644,-0.08025141805410385,-1.0130031108856201,-0.8512740135192871,-0.020625781267881393,0.1235678493976593,29.37779426574707,-9.568164825439453,39.486663818359375,0
170,1700005,-0.02956968918442726,0.11960902810096741,-1.0051325559616089,0.1441062092781067,0.7867224812507629,-0.1770826131105423,29.32032585144043,-8.094381332397461,39.47848129272461,0
171,1710299,-0.00930325873196125,-0.0818670392036438,-1.0046857595443726,0.057255569845438004,-0.7441287040710449,1.5722222328186035,30.189685821533203,-10.048908233642578,40.391212463378906,0
172,1720034,0.07104518264532089,0.009636198170483112,-0.9955489039421082,0.029605461284518242,-0.11051689088344574,0.05190083011984825,30.65966033935547,-10.23094654083252,39.3179817199707,0
173,1729991,-0.08449872583150864,-0.057125531136989594,-0.9765586256980896,0.3028365671634674,-0.5952176451683044,-0.9683149456977844,29.595056533813477,-9.644033432006836,40.99813461303711,0
174,1739930,0.008592164143919945,0.0969313532114029,-0.9894981384277344,-0.5811780691146851,1.2028590440750122,-0.09715429693460464,30.03519058227539,-9.592028617858887,38.21599578857422,0
175,1749973,-0.055564749985933304,-0.020484967157244682,-1.024006724357605,-0.5151419043540955,0.21349115669727325,-0.16352564096450806,31.169836044311523,-9.578157424926758,38.842994689941406,0
176,1759849,0.00983306672424078,0.002806087490171194,-0.9841697812080383,-0.6229110360145569,-0.4404875934123993,-0.06732040643692017,29.078044891357422,-9.685523986816406,39.28569793701172,0
177,1769996,0.025617146864533424,-0.05765023082494736,-0.9935322403907776,-0.09838640689849854,-0.10760587453842163,-0.3243941366672516,29.173084259033203,-9.364177703857422,40.23896789550781,0
178,1780125,0.03329690918326378,0.028042860329151154,-0.9967317581176758,0.24478761851787567,-0.342059850692749,-0.09504293650388718,29.808815002441406,-10.490556716918945,41.48908615112305,0
179,1789859,0.07383372634649277,-0.035177577286958694,-1.0030138492584229,-0.4982586205005646,0.3241101801395416,-0.51946622133255,29.52629852294922,-7.73111629486084,39.179927825927734,0
180,1800033,0.10476937890052795,-0.04681159183382988,-1.0201447010040283,-0.4607763886451721,0.34848088026046753,-0.33227765560150146,28.928693771362305,-10.768277168273926,39.06629180908203,0
181,1810087,-0.06500347703695297,0.011710213497281075,-0.993535578250885,-0.05995095148682594,0.17528890073299408,-0.7114513516426086,31.32986831665039,-10.888046264648438,40.70640563964844,0
182,1819907,-0.01964617520570755,0.03802257403731346,-1.0167367458343506,-0.28484147787094116,-0.36850252747535706,0.26729127764701843,31.1513671875,-11.01403522491455,39.773773193359375,0
183,1830085,-0.016622811555862427,-0.08643875271081924,-0.9867573380470276,-0.8919077515602112,0.24924595654010773,0.05844537913799286,30.721315383911133,-8.775734901428223,40.049556732177734,0
184,1839883,-0.17784951627254486,0.023763593286275864,-1.016625165939331,-0.10614415258169174,0.4016748070716858,0.4783739149570465,30.98059844970703,-10.438858985900879,39.84913635253906,0
185,1849977,-0.09368957579135895,0.03808116167783737,-0.995884358882904,-0.00626359460875392,0.18177925050258636,0.4556325078010559,30.696958541870117,-10.611773490905762,41.027305603027344,0
186,1860096,0.11783641576766968,-0.016513051465153694,-0.9912756681442261,0.16227112710475922,-0.9642913341522217,0.794273853302002,31.642019271850586,-10.4287691116333,38.71025085449219,0
187,1869627,0.049845367670059204,-0.0008060041582211852,-0.9963289499282837,0.30112406611442566,-0.3630896508693695,-0.014129700139164925,28.65071678161621,-10.857040405273438,40.47473907470703,0
188,1880250,-0.031837303191423416,0.012992563657462597,-1.0187349319458008,-0.4047127366065979,-0.4707219898700714,0.18611688911914825,30.076053619384766,-10.072936058044434,40.714927673339844,0
189,1890063,-0.09610260277986526,0.025792021304368973,-0.9911836981773376,0.3680872619152069,0.8800087571144104,-0.07871156185865402,30.83041763305664,-10.811163902282715,40.40138244628906,0
190,1899981,-0.05847669020295143,0.03182573989033699,-0.9901354312896729,0.5157001614570618,0.3099716305732727,0.8044440746307373,30.44752311706543,-9.794814109802246,40.49833297729492,0
191,1909989,0.03536681830883026,-0.02576511539518833,-0.9639630317687988,0.19706305861473083,0.5758976936340332,-0.43915680050849915,30.279109954833984,-10.664117813110352,39.590797424316406,0
192,1919897,0.0445413701236248,0.089040607213974,-0.9380975961685181,0.37289413809776306,0.8082832098007202,0.3696199953556061,29.775365829467773,-9.146212577819824,39.184181213378906,0
193,1930011,0.025754062458872795,0.006047050468623638,-0.9687931537628174,0.8886343836784363,0.08457477390766144,-0.8995228409767151,30.08139419555664,-11.051140785217285,39.71285629272461,0
194,1939870,-0.04830460250377655,0.030027419328689575,-0.9799973368644714,1.028085708618164,0.5866230130195618,0.356939435005188,28.83563804626465,-8.301623344421387,40.21281051635742,0
195,1949844,-0.0683809295296669,-0.13981682062149048,-1.0154387950897217,-0.15055830776691437,0.756855309009552,-0.5419778227806091,30.89022445678711,-8.53161334991455,40.73511505126953,0
196,1959932,0.016487598419189453,0.004770815372467041,-1.024843454360962,-0.5442872047424316,0.4520125091075897,-0.4810422956943512,30.150278091430664,-9.007596015930176,41.127532958984375,0
197,1970232,0.068035788834095,-0.06876207888126373,-0.9739617705345154,-0.0888838842511177,1.052220106124878,-0.5172048807144165,30.140092849731445,-9.795414924621582,39.677696228027344,0
198,1980201,-0.07403925061225891,-0.06674401462078094,-1.0067654848098755,1.1606013774871826,-0.9351738095283508,0.08168891817331314,30.199970245361328,-10.132609367370605,41.55305862426758,0
199,1989788,-0.03634515777230263,-0.1776742786169052,-0.9996836185455322,-0.1084713488817215,0.3481850028038025,0.24151447415351868,29.626121520996094,-9.948288917541504,39.52262496948242,0
200,2000230,-0.029048802331089973,0.027614310383796692,-1.0015223026275635,0.4615159034729004,0.39622896909713745,-0.6337495446205139,29.820947647094727,-9.256917953491211,39.439212799072266,0
201,2009778,0.03199060261249542,-0.07157890498638153,-0.9980069398880005,-0.14796939492225647,0.6510390043258667,-0.12170282751321793,29.4708194732666,-12.83380126953125,42.45278549194336,0
202,2020113,-0.05200502276420593,-0.12017554044723511,-0.9970754981040955,0.5235691666603088,0.3248945474624634,-0.19444260001182556,30.250234603881836,-9.08306884765625,41.83403015136719,0
203,2030013,0.10229465365409851,0.03591495379805565,-0.9675677418708801,0.017014790326356888,0.09833920001983643,-0.055780429393053055,30.92830467224121,-11.187905311584473,40.612876892089844,0
204,2039814,-0.004249306861311197,0.0121097257360816,-1.0013391971588135,0.2874296009540558,0.5478130578994751,-0.2808142304420471,30.478086471557617,-9.058789253234863,40.086944580078125,0
205,2049950,-0.0055770003236830235,-0.002717826049774885,-0.975263774394989,-0.2192399650812149,-0.3117406666278839,0.3561951220035553,30.059307098388672,-10.88179874420166,40.79168701171875,0
206,2060188,0.016366904601454735,0.018041446805000305,-1.004663348197937,0.4778411090373993,-0.18755434453487396,-0.5040042400360107,30.04757308959961,-10.9160737991333,42.165428161621094,0
207,2069855,0.058593422174453735,0.07646510750055313,-0.9664835929870605,-0.26976409554481506,-0.794836163520813,-0.21153822541236877,28.47642707824707,-9.201400756835938,39.86654281616211,0
208,2080162,0.06851325184106827,-0.02783307246863842,-0.9860825538635254,0.4109610617160797,0.45562371611595154,0.41115593910217285,29.489526748657227,-11.421978950500488,39.569393157958984,0
209,2090044,0.07150787115097046,-0.0384867824614048,-1.024084210395813,0.4094259738922119,0.5082590579986572,0.6982974410057068,31.207536697387695,-8.895123481750488,40.668548583984375,0
210,2100363,-0.01221610326319933,-0.07568123191595078,-1.0193318128585815,-0.035679891705513,-0.37342122197151184,0.7586054801940918,30.061561584472656,-10.58099365234375,40.54299545288086,0
211,2110103,0.03473934903740883,-0.003618219867348671,-0.9749685525894165,0.0364866778254509,0.33596011996269226,-0.31358715891838074,28.377046585083008,-8.347567558288574,38.27171325683594,0
212,2120075,0.01984911784529686,0.013469608500599861,-0.9662405252456665,0.6303983926773071,0.14746882021427155,0.023827053606510162,29.473573684692383,-9.881531715393066,38.98390579223633,0
213,2129901,-0.05570574104785919,-0.09506367146968842,-1.0040494203567505,-0.40792784094810486,-0.34055575728416443,-0.078915074467659,32.21842575073242,-8.410003662109375,39.059818267822266,0
214,2139904,-0.033015478402376175,-0.026752272620797157,-1.0374267101287842,0.22801536321640015,0.8464890718460083,-0.2836468517780304,29.93622589111328,-10.993210792541504,38.57311248779297,0
215,2149889,0.1454286128282547,0.04547569900751114,-1.000356912612915,0.5919016003608704,0.36534661054611206,0.2818063795566559,28.696866989135742,-8.836804389953613,38.687957763671875,0
216,2159934,-0.026329530403017998,-0.032097797840833664,-1.003483533859253,-0.035906560719013214,-0.024710291996598244,0.45235708355903625,30.13220977783203,-9.464293479919434,39.12703323364258,0
217,2170087,-0.12877783179283142,-0.11339706927537918,-0.9942008256912231,-0.751158595085144,-0.6373974680900574,0.854316771030426,29.764890670776367,-9.90295124053955,40.6148796081543,0
218,2180158,-0.006672040559351444,0.07313595712184906,-0.9643750190734863,0.40564388036727905,-0.3885953426361084,0.04345400631427765,30.61197280883789,-11.8782958984375,42.174137115478516,0
219,2189798,-0.06050942465662956,-0.007817965932190418,-0.9918119311332703,0.282021701335907,-0.5358748435974121,-0.09464836120605469,29.733877182006836,-12.400958061218262,39.920597076416016,0
220,2200122,-0.011533323675394058,0.06481833010911942,-0.9726566672325134,0.10000267624855042,-0.15218593180179596,0.9517219662666321,28.38851547241211,-10.024125099182129,39.150001525878906,0
221,2209822,-0.007683774456381798,-0.06739211827516556,-1.0036520957946777,-0.087479367852211,-0.21347200870513916,0.34741124510765076,29.55486488342285,-9.049447059631348,40.08088302612305,0
222,2219710,0.04523835703730583,-0.1432185173034668,-1.0076816082000732,-0.5391861796379089,-0.8134902715682983,-0.2250576615333557,27.58771324157715,-8.751824378967285,38.41455078125,0
223,2230051,-0.004856993444263935,-0.0038933763280510902,-1.0028523206710815,-0.7360736727714539,-0.08763682842254639,0.2740745544433594,31.293258666992188,-10.288382530212402,39.45625686645508,0
224,2239850,-0.019284576177597046,0.022700663655996323,-1.0178930759429932,0.5533820986747742,-0.5625756978988647,-0.23333416879177094,30.389209747314453,-11.349803924560547,40.36829376220703,0
225,2249809,0.07168109714984894,-0.002812691032886505,-1.0000450611114502,-0.093235082924366,0.015464263036847115,0.2147471159696579,28.262367248535156,-12.17102336883545,39.7803840637207,0
226,2260238,-0.0945618525147438,0.07278086245059967,-1.010434627532959,0.799173891544342,-0.2816922962665558,-0.7303813695907593,29.6935977935791,-9.972150802612305,40.173553466796875,0
227,2269891,-0.05668722465634346,0.01918729580938816,-1.0019758939743042,0.09215796738862991,0.5959935188293457,0.4504311978816986,29.662675857543945,-8.528359413146973,39.501834869384766,0
228,2280310,0.055619049817323685,0.017640477046370506,-0.9996897578239441,-0.16972331702709198,-0.11419463902711868,-0.2122519165277481,29.124248504638672,-9.98210334777832,40.56544876098633,0
229,2290094,0.014309748075902462,-0.03455644100904465,-0.9965079426765442,-0.5686821341514587,0.31305381655693054,0.07842590659856796,28.878860473632812,-10.333245277404785,38.74100112915039,0
230,2300106,-0.07479900866746902,-0.018324395641684532,-0.9851601123809814,-0.17529296875,0.9072365760803223,0.20239904522895813,30.874006271362305,-11.310079574584961,40.53788757324219,0
231,2310032,0.08231306076049805,0.08273974806070328,-1.013920545578003,-0.09441650658845901,-0.6369645595550537,-0.7277151346206665,30.814083099365234,-9.76823616027832,39.334022521972656,0
232,2319989,0.04683241993188858,-0.068590447306633,-0.9926696419715881,-0.29781803488731384,-0.4389048218727112,0.8584160804748535,30.69466781616211,-9.386482238769531,41.13885498046875,0
233,2330014,-0.013022799976170063,0.020493321120738983,-1.004606008529663,0.2568528950214386,1.3366737365722656,0.20240052044391632,29.973159790039062,-10.350262641906738,38.4628791809082,0
234,2339846,0.06470061838626862,0.05521068349480629,-0.9822496175765991,1.0011484622955322,0.36285313963890076,1.2415077686309814,31.539234161376953,-10.95103645324707,41.18157958984375,0
235,2350271,0.0679096132516861,-0.07379346340894699,-1.0141522884368896,-0.12770961225032806,-0.42715951800346375,-0.4214242398738861,27.27076530456543,-11.611734390258789,40.41085433959961,0
236,2360182,0.03417181968688965,0.029457030817866325,-1.0132286548614502,-0.25908684730529785,-0.7829558849334717,-0.4782816469669342,29.638639450073242,-9.678458213806152,41.51506042480469,0
237,2370113,0.042702026665210724,0.019758909940719604,-0.9795011878013611,-0.5215553641319275,0.1825820654630661,-0.5482118129730225,29.603931427001953,-9.389703750610352,40.270626068115234,0
238,2379734,-0.09219560772180557,-0.045537833124399185,-0.9950425028800964,-0.10608797520399094,-0.7747949361801147,-1.12660551071167,28.44839096069336,-8.192276000976562,40.78685760498047,0
239,2389996,0.038485825061798096,-0.031169133260846138,-0.9923772215843201,0.9613166451454163,0.025519520044326782,0.31746697425842285,28.648107528686523,-9.284852027893066,38.06609344482422,0
240,2400112,-0.02557859569787979,-0.03219899162650108,-0.9729450345039368,0.04213887080550194,0.17481987178325653,0.3678169548511505,29.50803565979004,-10.679596900939941,38.23680877685547,0
241,2409769,-0.019302841275930405,0.027468105778098106,-0.9938788414001465,-0.2627309262752533,-0.16027644276618958,0.6429635286331177,30.944223403930664,-12.246030807495117,40.81549835205078,0
242,2419846,-0.03211231902241707,0.01754196174442768,-1.0105959177017212,-0.3419378101825714,0.407338947057724,-0.4082687795162201,30.696943283081055,-10.46633529663086,41.04733657836914,0
243,2429923,0.028406387194991112,0.013241189531981945,-0.9827086925506592,0.198665052652359,-0.4632711708545685,-0.18470600247383118,31.315773010253906,-9.368827819824219,40.12864303588867,0
244,2440116,-0.0719047412276268,-0.054000455886125565,-1.0010606050491333,-0.5847004652023315,-0.1416049599647522,0.12329688668251038,28.646129608154297,-9.33336353302002,39.318275451660156,0
245,2450298,0.021267810836434364,0.0780758410692215,-0.9989331960678101,0.8700464963912964,0.8461044430732727,0.18869543075561523,29.963821411132812,-9.562077522277832,40.30024337768555,0
246,2459915,0.08981181681156158,-0.010916884988546371,-0.9736022353172302,0.516790509223938,0.3940048813819885,0.5159487724304199,29.589643478393555,-10.655405044555664,40.028709411621094,0
247,2469869,-0.09633610397577286,0.028048032894730568,-0.9896934628486633,0.7722758650779724,0.4620034098625183,0.36061689257621765,29.070831298828125,-10.98642635345459,40.19331359863281,0
248,2480067,-0.04517648369073868,0.026202207431197166,-1.005123496055603,-0.2933800220489502,-0.03097533993422985,-0.43934333324432373,30.575105667114258,-9.728703498840332,40.61809158325195,0
249,2490081,0.03900620713829994,-0.06711731106042862,-0.9685623645782471,0.09526312351226807,0.22303813695907593,0.18242856860160828,29.375017166137695,-11.128780364990234,38.62889862060547,0
250,2500324,-0.06788303703069687,-0.005717836786061525,-0.9465188384056091,-0.06741038709878922,0.1078709065914154,0.2510160803794861,29.977073669433594,-9.478951454162598,38.94698715209961,0
251,2510027,-7.335971986321965e-06,-0.05966058000922203,-1.0214202404022217,-0.4379666745662689,0.090117909014225,-0.1517408788204193,30.460031509399414,-9.838725090026855,41.2794189453125,0
252,2520031,-0.056258417665958405,0.05087737366557121,-1.02543044090271,0.28297317028045654,-0.19472664594650269,0.2170584797859192,30.292346954345703,-10.22156047821045,38.253196716308594,0
253,2530101,0.019830120727419853,0.04901351407170296,-1.0082048177719116,-0.41265571117401123,0.39734894037246704,-0.3350817859172821,27.559125900268555,-9.124151229858398,39.528350830078125,0
254,2539835,-0.1339411586523056,-0.019980283454060555,-1.0162396430969238,0.4196617603302002,0.15907908976078033,0.27908995747566223,29.37806510925293,-11.156996726989746,40.83186721801758,0
255,2550182,0.002608264097943902,-0.05237564444541931,-1.0001739263534546,0.8133645057678223,-0.3228459656238556,-0.6895509958267212,30.685277938842773,-9.633480072021484,41.63068389892578,0
256,2560174,0.08470375090837479,0.1345500946044922,-0.9653264284133911,-0.5661872029304504,-0.5721268653869629,0.1410251259803772,29.903095245361328,-10.906736373901367,40.54188919067383,0
257,2569929,-0.11702941358089447,-0.09554411470890045,-0.9967544674873352,0.023391855880618095,-0.423795610666275,0.0515017956495285,30.21466636657715,-9.535183906555176,39.36429214477539,0
258,2579565,-0.001863598939962685,0.02738993614912033,-1.0053133964538574,-0.3896665871143341,0.23043641448020935,-0.04391436278820038,29.757715225219727,-10.096307754516602,40.08237075805664,0
259,2590165,-0.005329897161573172,-0.020202938467264175,-1.0294671058654785,-0.3011552095413208,0.3735179901123047,-0.2917934060096741,31.74647331237793,-11.824178695678711,38.9323844909668,0
260,2599834,-0.08277218788862228,-0.002729405416175723,-0.9841681122779846,0.3104119896888733,-0.4218701124191284,-0.16153071820735931,28.72651481628418,-9.114880561828613,39.28993606567383,0
261,2609802,0.005236890632659197,-0.07101034373044968,-1.012272834777832,-0.5901266932487488,-0.13212786614894867,-0.014265389181673527,29.21793556213379,-8.705547332763672,40.209434509277344,0
262,2619968,0.028176046907901764,-0.008821479044854641,-1.0163103342056274,0.14725562930107117,-0.6929171085357666,0.13725808262825012,30.66422462463379,-10.51923656463623,40.33549118041992,0
263,2629695,0.028657669201493263,0.03584752976894379,-1.0028151273727417,0.8810751438140869,-0.1397581696510315,0.7684321999549866,30.335588455200195,-9.88410472869873,38.58895492553711,0
264,2640133,-0.010990430600941181,0.12393856793642044,-0.9830224514007568,0.010563354939222336,-0.3169291317462921,0.11744441092014313,28.504602432250977,-10.84770679473877,40.80466079711914,0
265,2649898,-0.020898163318634033,0.041370052844285965,-0.9913815259933472,0.042823370546102524,-0.344805508852005,-0.03769729658961296,29.209957122802734,-11.221935272216797,39.35824966430664,0
266,2659826,-0.023592690005898476,-0.018619954586029053,-0.9791935682296753,0.2768919765949249,-0.5145472288131714,0.26376834511756897,30.70254135131836,-9.909109115600586,40.784873962402344,0
267,2669986,0.06779927760362625,-0.10037709027528763,-0.9959701299667358,0.1268453299999237,-0.6238191723823547,0.2619858682155609,28.915130615234375,-10.161871910095215,41.03404998779297,0
268,2679993,-0.07538418471813202,-0.010814436711370945,-1.0172955989837646,0.26283180713653564,-0.2464742511510849,-0.1514747589826584,30.277973175048828,-10.556668281555176,38.62947463989258,0
269,2690067,-0.03708033263683319,0.053954314440488815,-1.0136680603027344,0.3519771695137024,-0.2846226394176483,-0.3018723130226135,30.131641387939453,-9.812561988830566,38.39841842651367,0
270,2700391,0.007344740908592939,0.020333392545580864,-1.0229713916778564,-0.5486327409744263,0.2280527651309967,-0.9504650831222534,28.736928939819336,-9.891267776489258,40.26445388793945,0
271,2710033,0.034575432538986206,0.0392313189804554,-1.0215893983840942,0.3148653209209442,0.18102508783340454,-0.47582975029945374,30.626028060913086,-10.366002082824707,42.14390182495117,0
272,2720086,0.03966307267546654,0.017740603536367416,-1.0027436017990112,0.33921974897384644,-0.2877209782600403,-0.3358141779899597,30.490598678588867,-10.430456161499023,39.39520263671875,0
273,2729994,-0.04818843677639961,-0.09326320886611938,-0.951707124710083,-0.32275140285491943,0.26843827962875366,-0.3304789960384369,29.537822723388672,-10.333951950073242,39.469234466552734,0
274,2740153,-0.05626034364104271,-0.08739949762821198,-1.008112907409668,-0.19697411358356476,0.5159002542495728,0.8790224194526672,29.478567123413086,-9.736102104187012,40.4007682800293,0
275,2749682,0.013140900991857052,-0.10016833990812302,-1.0389866828918457,-0.13447608053684235,0.4436846077442169,-0.5155937075614929,30.41606903076172,-10.698813438415527,38.16517639160156,0
276,2760068,-0.01024665031582117,0.04780544340610504,-0.9817148447036743,-0.13338875770568848,0.25930100679397583,0.33479902148246765,30.763782501220703,-10.266014099121094,39.50584411621094,0
277,2770080,-0.03936547040939331,0.014925183728337288,-0.9836105108261108,-0.18025611340999603,0.41364312171936035,-0.018180400133132935,30.787418365478516,-8.74845027923584,38.9150505065918,0
278,2779609,-0.09330127388238907,0.027804579585790634,-1.0010186433792114,-0.1366119533777237,-0.29828786849975586,-1.351228952407837,30.766796112060547,-9.380318641662598,41.39813995361328,0
279,2790059,0.01769477128982544,-0.06747197359800339,-1.0306833982467651,-0.38133862614631653,-0.94576096534729,-0.48289939761161804,29.469341278076172,-10.086211204528809,39.87680435180664,0
280,2800297,0.04721467196941376,-0.018991613760590553,-0.9937078356742859,-0.41590145230293274,0.1650772988796234,-0.2788834273815155,29.15375518798828,-10.272011756896973,41.57718276977539,0
281,2809832,-0.11577179282903671,0.035735584795475006,-0.995908260345459,0.25661221146583557,-0.2839548885822296,-0.7425405383110046,29.23291778564453,-10.43688678741455,39.229713439941406,0
282,2820095,-0.004746158141642809,0.09868252277374268,-0.9795785546302795,0.7383210062980652,-0.15752357244491577,0.44364532828330994,29.472387313842773,-9.237384796142578,41.20115661621094,0
283,2830168,0.04831947013735771,-0.054985642433166504,-1.03011953830719,-0.6831061244010925,-0.4423843324184418,-0.5331818461418152,28.848350524902344,-11.18448257446289,39.49443054199219,0
284,2839997,0.03480326384305954,-0.042775869369506836,-1.0489596128463745,0.09891662746667862,-0.5012495517730713,0.47641536593437195,28.9937744140625,-9.683635711669922,37.65214538574219,0
285,2849849,-0.05708404257893562,-0.02726852148771286,-0.9930800795555115,-0.22660081088542938,0.30082789063453674,0.20881135761737823,28.15062713623047,-11.661354064941406,39.96547317504883,0
286,2859940,-0.042321860790252686,0.030605971813201904,-0.9870364665985107,-0.2821943759918213,0.3782323896884918,0.066304050385952,29.282455444335938,-8.753275871276855,41.5956916809082,0
287,2870025,-0.022770510986447334,0.05805583298206329,-0.980400025844574,-0.9104184508323669,-0.6528602242469788,0.0682300552725792,30.60137367248535,-9.616949081420898,38.9836311340332,0
288,2880023,0.006975176744163036,0.027173815295100212,-0.9482468962669373,1.0357619524002075,0.15911442041397095,-0.273190438747406,29.790485382080078,-10.244606971740723,38.948265075683594,0
289,2889979,-0.051205284893512726,0.028260013088583946,-0.9722563624382019,0.7529860138893127,-0.42808958888053894,0.23220551013946533,29.908639907836914,-10.31119441986084,38.124229431152344,0
290,2899891,-0.03980240970849991,0.04862996190786362,-1.013954520225525,0.36640065908432007,-0.2611273229122162,-0.7446722388267517,29.628583908081055,-11.351836204528809,38.382904052734375,0
291,2910185,-0.026759758591651917,-0.04522884264588356,-1.014365553855896,1.0965802669525146,0.018209414556622505,0.3170042335987091,30.741416931152344,-10.68683910369873,38.40686798095703,0
292,2920115,0.048379331827163696,0.0650787353515625,-1.0136650800704956,0.4611658751964569,0.4134340286254883,0.9910444021224976,30.71355628967285,-10.013704299926758,38.884395599365234,0
293,2929884,-0.033346451818943024,0.004674352239817381,-1.0104159116744995,0.5764374732971191,-0.5796489715576172,0.08232175558805466,27.50811195373535,-10.41263198852539,39.00811004638672,0
294,2940218,-0.012256932444870472,0.06140826642513275,-1.0052318572998047,0.7569774389266968,-0.10633493214845657,0.33098483085632324,30.522863388061523,-9.51594352722168,39.85985565185547,0
295,2950041,-0.07414793223142624,0.048013199120759964,-1.0326908826828003,0.4509004056453705,-0.49580276012420654,1.052736520767212,30.886999130249023,-8.6221923828125,40.24922561645508,0
296,2960034,0.025610510259866714,0.009364965371787548,-1.0062366724014282,0.15773388743400574,-0.8327242732048035,0.4116911292076111,30.098289489746094,-9.490039825439453,39.92842102050781,0
297,2970000,0.05065244808793068,0.019065560773015022,-0.9843393564224243,-0.0203055739402771,0.6331070065498352,0.20575237274169922,29.685956954956055,-10.346114158630371,39.249534606933594,0
298,2980113,-0.08889957517385483,0.006537111476063728,-0.9915745854377747,-0.4717933237552643,0.7690695524215698,-0.3794102668762207,30.249692916870117,-10.629267692565918,40.194862365722656,0
299,2990039,0.042275164276361465,0.06360380351543427,-1.0177726745605469,0.5285848379135132,0.09632005542516708,-0.11119571328163147,29.985897064208984,-11.205872535705566,41.615501403808594,0
300,3000205,-0.050695888698101044,0.067235067486763,-0.9887799024581909,0.08918149769306183,-0.31630587577819824,0.5151306986808777,28.628793716430664,-9.119827270507812,39.75164031982422,0
301,3010008,-0.0292224008589983,0.003092781873419881,-1.0215610265731812,0.1954728066921234,0.06207076087594032,-0.37485378980636597,28.769107818603516,-10.652471542358398,41.8040885925293,0
302,3019995,-0.016410810872912407,-0.02385368011891842,-1.0183058977127075,-0.4621073603630066,-0.4313295781612396,-0.22754262387752533,29.440210342407227,-11.074277877807617,41.933311462402344,0
303,3029945,-0.07430539280176163,0.07109378278255463,-1.0209976434707642,0.3605102300643921,-1.0278725624084473,0.16352929174900055,29.883127212524414,-10.027294158935547,41.12763595581055,0
304,3039997,0.028605420142412186,-0.011045639403164387,-0.9991252422332764,-0.09337517619132996,0.1525532305240631,0.1406691074371338,31.497835159301758,-8.175192832946777,41.343505859375,0
305,3049976,0.11538422852754593,0.044685352593660355,-0.978384256362915,-0.06995028257369995,0.7315018177032471,-0.27866995334625244,30.541292190551758,-8.712695121765137,39.63597869873047,0
306,3059842,0.05825987458229065,0.038088519126176834,-0.9933551549911499,0.024790264666080475,0.5504785776138306,1.2065225839614868,31.232995986938477,-8.894244194030762,38.45901870727539,0
307,3070110,-0.03766642510890961,0.018563076853752136,-0.9678387641906738,0.11651533842086792,-0.027943167835474014,-0.5256102085113525,28.368009567260742,-9.984111785888672,42.17695617675781,0
308,3079998,-0.019653476774692535,0.056962937116622925,-1.0173650979995728,0.1092376559972763,0.2704242169857025,0.45579296350479126,29.57952117919922,-9.906432151794434,41.32533264160156,0
309,3090081,-0.01915305107831955,-0.0352676659822464,-1.005189061164856,0.5994607210159302,0.25434181094169617,-0.8131245970726013,29.70334815979004,-11.206006050109863,40.83078384399414,0
310,3099985,0.05715998262166977,0.05982065200805664,-0.9888048768043518,0.039358947426080704,0.014965279027819633,-0.19267462193965912,29.874448776245117,-8.76070499420166,40.95033645629883,0
311,3110117,-0.037054989486932755,0.07956624776124954,-1.034842610359192,-0.3200962543487549,-0.08549264818429947,-0.35451722145080566,30.285106658935547,-10.30497932434082,38.22119903564453,0
312,3119905,-0.03507595509290695,0.057081107050180435,-1.0006613731384277,0.1351049393415451,-0.332074373960495,0.8619105219841003,28.947956085205078,-8.518476486206055,39.94797897338867,0
313,3130222,0.08534839749336243,0.039834778755903244,-0.9890058040618896,0.2851998507976532,0.18967168033123016,-1.3597041368484497,29.622140884399414,-10.547541618347168,39.122032165527344,0
314,3140135,0.0064117140136659145,-0.11443936079740524,-1.0323021411895752,0.5719890594482422,0.2590219974517822,-0.06942220032215118,31.221343994140625,-9.66738224029541,39.808250427246094,0
315,3150094,-0.016342859715223312,0.02386539988219738,-1.030704379081726,0.7165626287460327,-0.5754981637001038,-0.51454097032547,30.183324813842773,-10.312453269958496,38.03728485107422,0
316,3159779,-0.013775380328297615,0.037819575518369675,-0.9977245926856995,-0.3328157663345337,0.32890987396240234,0.34538236260414124,29.60918426513672,-7.763740062713623,41.666255950927734,0
317,3170235,0.040719062089920044,0.00920269824564457,-1.0061805248260498,0.36234790086746216,0.4876297116279602,0.11979341506958008,28.453500747680664,-11.083179473876953,40.469032287597656,0
318,3180084,0.02980947308242321,-0.00590461865067482,-0.996053159236908,-0.31841519474983215,-0.8134835362434387,-0.25458359718322754,29.32321548461914,-8.887910842895508,40.41526412963867,0
319,3190118,-0.04845554009079933,0.004755914676934481,-0.9858525395393372,-0.10223633050918579,0.5705606341362,-0.2693544030189514,30.498071670532227,-9.889680862426758,39.03583526611328,0
320,3199821,0.009519419632852077,0.1175701916217804,-1.0155855417251587,0.22312790155410767,-0.23787590861320496,-0.14206047356128693,28.93274688720703,-9.876605987548828,40.78660583496094,0
321,3210147,-0.11245129257440567,0.004450406413525343,-0.9950994849205017,0.8378400802612305,0.6514283418655396,-0.35414767265319824,30.423824310302734,-9.56942367553711,38.9881591796875,0
322,3219935,0.06967039406299591,0.03844229131937027,-1.0001300573349,0.1972026526927948,0.8228206634521484,-0.07487275451421738,29.143918991088867,-11.65060043334961,39.67555236816406,0
323,3229876,0.02963549643754959,-0.04637491703033447,-1.0228067636489868,0.22911898791790009,-1.009925127029419,0.15809842944145203,28.67917823791504,-9.783696174621582,39.14064025878906,0
324,3240149,0.011429375037550926,0.04203430190682411,-0.9785279035568237,0.11564032733440399,-0.005560269113630056,0.9741936326026917,30.651777267456055,-10.830031394958496,39.54094314575195,0
325,3249831,0.011525215581059456,-0.07520069926977158,-0.9848230481147766,0.7191622853279114,-0.032002709805965424,0.09704194217920303,29.25798797607422,-11.80663776397705,37.69329071044922,0
326,3260208,-0.020588010549545288,0.04237620159983635,-1.008229374885559,0.0034871145617216825,0.11197088658809662,-0.5783994197845459,30.095088958740234,-8.250870704650879,41.59133529663086,0
327,3270138,0.058344751596450806,0.06500154733657837,-0.9948630332946777,-0.34845319390296936,-0.38016578555107117,0.6809998750686646,31.08213996887207,-8.641963005065918,39.4328727722168,0
328,3280134,0.10588157176971436,-0.018238002434372902,-0.9790045022964478,0.45445728302001953,-0.37775421142578125,-0.43264055252075195,29.981462478637695,-10.102789878845215,40.87931442260742,0
329,3290049,-0.04881517216563225,0.024993915110826492,-1.0207390785217285,0.006650884635746479,0.2954130172729492,-0.16886569559574127,30.21843910217285,-8.258471488952637,40.92399215698242,0
330,3300015,0.02859160676598549,0.128590926527977,-1.030700445175171,0.15991666913032532,0.5313735604286194,-0.7002549767494202,29.758304595947266,-10.602937698364258,38.37629699707031,0
331,3309806,0.024648839607834816,-0.003927443642169237,-0.970261812210083,-0.853836715221405,0.10750004649162292,-0.34054791927337646,30.508831024169922,-11.033110618591309,41.456912994384766,0
332,3320059,-0.011598706245422363,-0.06883365660905838,-1.0002788305282593,-0.3279956579208374,0.14747877418994904,-0.3078692555427551,31.152143478393555,-10.01037883758545,39.56280517578125,0
333,3330104,0.07339958101511002,-0.05617646500468254,-0.9936496615409851,-0.7227923274040222,0.0598837248980999,0.7803280353546143,30.158945083618164,-11.151263236999512,40.259849548339844,0
334,3340330,-0.0038955293130129576,0.019296886399388313,-0.9801706671714783,0.1810503751039505,0.2212875783443451,0.27351072430610657,31.582555770874023,-8.17807388305664,39.746673583984375,0
335,3349775,-0.011769559234380722,0.03901776298880577,-0.9993151426315308,-0.09946058690547943,-0.46148884296417236,0.19977045059204102,29.06260871887207,-8.227479934692383,39.12092971801758,0
336,3360046,0.03537062555551529,0.02054757811129093,-0.9988148212432861,0.025684066116809845,-0.2196640968322754,0.7035129070281982,30.27736473083496,-9.685239791870117,38.33812713623047,0
337,3369740,0.01995362527668476,-0.048310812562704086,-1.0189051628112793,-0.42885419726371765,-0.9339136481285095,-0.15905232727527618,29.834747314453125,-10.203901290893555,40.22837829589844,0
338,3380107,0.07619868963956833,0.050285663455724716,-1.0104835033416748,0.2452394813299179,-0.7186195850372314,0.738051176071167,29.58771514892578,-10.247881889343262,38.84906768798828,0
339,3389831,-0.019219273701310158,0.01757681369781494,-0.9496996402740479,0.6851058602333069,0.2396869659423828,-0.16595673561096191,30.61407470703125,-9.385305404663086,41.21529769897461,0
340,3399993,-0.04261774569749832,0.03941791504621506,-1.005974531173706,-0.09916643053293228,-0.1913289576768875,0.8292073011398315,30.58059310913086,-10.457860946655273,40.034427642822266,0
341,3410076,0.01892569288611412,0.024226322770118713,-1.030513048171997,0.0737583264708519,0.6985058188438416,0.20758846402168274,32.67398452758789,-8.241122245788574,38.4957275390625,0
342,3420042,0.04000294581055641,0.07221736758947372,-0.998847484588623,1.0863673686981201,0.08066035062074661,-0.06273455917835236,29.719953536987305,-8.609418869018555,40.490692138671875,0
343,3429721,-0.030610328540205956,0.042048901319503784,-1.0000392198562622,-0.6163841485977173,0.6265251040458679,-0.6118770241737366,32.59367752075195,-8.733598709106445,37.980682373046875,0
344,3439654,0.028306519612669945,-0.009445307776331902,-0.9886202216148376,-0.2644992172718048,-0.2138502150774002,0.4290294349193573,31.375804901123047,-11.265580177307129,40.11837387084961,0
345,3450033,0.13862864673137665,0.06377992779016495,-0.9838155508041382,-1.3049945831298828,-0.41011208295822144,0.10572177916765213,28.3026123046875,-9.535714149475098,39.85136413574219,0
346,3459923,-0.11146329343318939,-0.01747376285493374,-1.0135300159454346,-0.353410005569458,-0.47571811079978943,0.3042081594467163,28.981441497802734,-9.580497741699219,40.5051383972168,0
347,3470043,-0.0039512282237410545,0.01684298925101757,-1.008294701576233,-0.12687355279922485,-0.6208446025848389,-1.0977084636688232,29.434595108032227,-10.034806251525879,40.143001556396484,0
348,3480116,0.008425721898674965,0.04078971594572067,-1.0089282989501953,0.25746238231658936,0.2600390613079071,0.20311741530895233,30.005626678466797,-10.92825984954834,40.4471549987793,0
349,3489978,-0.01035161130130291,0.013870367780327797,-1.0299347639083862,0.9492301344871521,-0.702509880065918,0.08952222764492035,29.52658462524414,-8.706339836120605,40.63792037963867,0
350,3499837,-0.044935476034879684,0.06216658651828766,-0.978661060333252,0.4800563156604767,-0.9209787249565125,-0.5149662494659424,30.585739135742188,-9.013564109802246,40.43560791015625,0
351,3510286,0.07352956384420395,-0.09053617715835571,-0.9799532890319824,0.03019077517092228,0.4547065198421478,-0.22615283727645874,29.783897399902344,-9.964066505432129,40.4813346862793,0
352,3519876,0.04937835782766342,-0.00028838287107646465,-1.045507788658142,0.25501999258995056,-0.001483061001636088,-0.4204249978065491,31.164995193481445,-9.682584762573242,38.277099609375,0
353,3529666,-0.018583036959171295,0.017303287982940674,-0.9826170802116394,-0.05515728145837784,0.660106360912323,-0.04916142672300339,29.272735595703125,-8.281764030456543,40.48754119873047,0
354,3540088,0.048298679292201996,-0.01272414717823267,-1.0109010934829712,0.013889559544622898,-0.20648959279060364,0.11529885232448578,29.03779411315918,-10.205114364624023,38.7179069519043,0
355,3549949,-0.05406807363033295,0.03614182025194168,-1.0072070360183716,-0.3671247959136963,0.011590925976634026,-0.7557641267776489,28.389156341552734,-9.436250686645508,39.78833770751953,0
356,3560032,-0.04109640046954155,0.005629252642393112,-1.0100704431533813,0.8871025443077087,0.07206656783819199,0.5665233731269836,31.26885414123535,-10.200882911682129,41.32282257080078,0
357,3569949,-0.012809964828193188,-0.028404686599969864,-1.008867621421814,0.7651945948600769,-0.002989822067320347,-0.4959506392478943,30.957489013671875,-9.294360160827637,40.926570892333984,0
358,3580121,0.07178400456905365,0.08958148211240768,-1.0038801431655884,-0.04609048366546631,-0.4686455726623535,-0.1836526244878769,30.918804168701172,-9.081918716430664,39.68610763549805,0
359,3589779,0.06148436665534973,0.03597133979201317,-1.008021593093872,-0.09395570307970047,-0.0789218321442604,-0.748496413230896,31.43170166015625,-9.194470405578613,38.16933822631836,0
360,3599671,0.026961766183376312,0.0570969395339489,-1.0070621967315674,-0.7854453325271606,-0.07168141007423401,-0.19519630074501038,27.97932243347168,-9.517580032348633,38.28433609008789,0
361,3610100,0.002944391453638673,0.0010612361365929246,-0.9922975897789001,-0.920587956905365,0.14909207820892334,0.7477810978889465,30.645339965820312,-11.095930099487305,39.65993881225586,0
362,3620038,0.030144568532705307,-0.10019499808549881,-0.9812501668930054,0.30697205662727356,-0.33382880687713623,-0.2307973951101303,30.575496673583984,-9.15343189239502,39.744876861572266,0
363,3630114,0.044277649372816086,0.08125805109739304,-0.9884306192398071,-0.378761351108551,0.28525179624557495,-0.9169556498527527,30.144927978515625,-11.324057579040527,39.84925842285156,0
364,3640213,0.08347716927528381,-0.05065546929836273,-0.9850125312805176,0.11635428667068481,0.11679510027170181,-0.1975991129875183,29.843828201293945,-9.730626106262207,42.64765930175781,0
365,3650016,-0.00609627878293395,0.03714143484830856,-1.0359286069869995,0.5162342190742493,-0.9648554921150208,-0.643103301525116,29.47296905517578,-8.912792205810547,39.17082595825195,0
366,3660294,0.07786142826080322,-0.07913562655448914,-1.0068944692611694,0.718468427658081,0.0733792632818222,-0.13585898280143738,28.666250228881836,-10.548069953918457,40.138431549072266,0
367,3669756,0.04977627098560333,0.01605740562081337,-1.015856385231018,-1.0738393068313599,-0.5552903413772583,-0.6982924342155457,31.668561935424805,-9.706297874450684,40.902305603027344,0
368,3680001,0.0017294487915933132,-0.033809199929237366,-1.0086520910263062,-0.02366017736494541,0.7617016434669495,0.7671151161193848,31.611370086669922,-9.412029266357422,39.62285614013672,0
369,3690064,-0.03521115705370903,0.06556107103824615,-1.0058567523956299,-0.7313979268074036,-0.4609411060810089,0.0683368593454361,31.244112014770508,-10.230854988098145,39.2662467956543,0
370,3700036,0.038219619542360306,0.027306200936436653,-0.9898339509963989,-0.06524468958377838,-0.21897518634796143,0.06523191928863525,30.494522094726562,-9.509224891662598,38.54767608642578,0
371,3710144,0.019644543528556824,-0.05501208454370499,-0.9813114404678345,-0.4228004515171051,-0.05991554632782936,-0.4630688726902008,29.61327362060547,-9.02949333190918,38.48680114746094,0
372,3719866,-0.012774486094713211,-0.05845394730567932,-1.0109561681747437,-0.3813561797142029,-0.10005553066730499,-0.3547847867012024,31.929203033447266,-10.743124961853027,39.711368560791016,0
373,3730274,-0.0710664689540863,0.03325602039694786,-1.0191197395324707,-0.18635976314544678,-0.10044413059949875,-0.19693392515182495,29.49131965637207,-9.733014106750488,38.66276550292969,0
374,3740087,0.05136807635426521,-0.04763735458254814,-0.9713459610939026,-0.13629552721977234,-0.4953666925430298,0.4637530744075775,27.694303512573242,-9.501165390014648,39.08821487426758,0
375,3750118,0.05430973321199417,-0.03403031453490257,-1.0062347650527954,-0.5853361487388611,-0.1299990564584732,0.3850342631340027,29.647024154663086,-8.7577486038208,39.04808807373047,0
376,3759794,-0.04615088179707527,0.03255978599190712,-0.9561973214149475,0.0010253990767523646,-0.5610347390174866,0.7147352695465088,29.87944984436035,-9.939208984375,39.72856903076172,0
377,3769967,-0.03403698652982712,-0.014725424349308014,-0.9758468866348267,0.42405080795288086,-1.3244552612304688,0.5814071297645569,31.30313491821289,-7.9488630294799805,40.957183837890625,0
378,3779745,-0.047958794981241226,0.004029138013720512,-1.021306037902832,-0.018784556537866592,-0.3181227147579193,-0.6903567910194397,27.996801376342773,-8.990911483764648,40.62381362915039,0
379,3789723,0.028125068172812462,0.04045344516634941,-1.0312893390655518,0.008738040924072266,-0.6486219167709351,0.031106241047382355,27.772768020629883,-10.751928329467773,39.60504150390625,0
380,3800141,-0.0003338024253025651,0.05128509923815727,-0.998799741268158,-0.28056690096855164,0.12020795792341232,-0.23406651616096497,29.347745895385742,-10.695164680480957,39.89955139160156,0
381,3810001,0.057112015783786774,-0.004763513803482056,-0.996566653251648,0.08049894124269485,-0.6398082971572876,-0.4726208746433258,29.99571990966797,-9.938213348388672,40.610801696777344,0
382,3820069,-0.06054746359586716,0.02088051103055477,-0.9879515767097473,-0.7139780521392822,-0.35421088337898254,-0.24325750768184662,30.20819854736328,-10.447395324707031,41.7271614074707,0
383,3830114,0.022485176101326942,-0.05678178742527962,-1.013109564781189,0.8603391647338867,-0.08813124150037766,-0.017476418986916542,30.025405883789062,-7.022684097290039,37.48850631713867,0
384,3839867,0.0578308179974556,0.022987263277173042,-0.9644155502319336,0.17179356515407562,0.1199098750948906,-0.6482520699501038,30.422836303710938,-8.686736106872559,40.331363677978516,0
385,3849963,-0.04211866855621338,-0.029195833951234818,-0.989707350730896,0.030147310346364975,0.6180950403213501,-0.898121178150177,30.21864128112793,-9.580822944641113,39.24873733520508,0
386,3859922,0.02381892502307892,-0.003083497518673539,-0.9720016121864319,0.2660779058933258,-0.4425628185272217,-1.070858359336853,30.683536529541016,-8.336347579956055,39.871063232421875,0
387,3870135,-0.03491000086069107,-0.032705456018447876,-0.9987677335739136,0.33084502816200256,0.035061608999967575,0.5508674383163452,29.67486572265625,-10.40224552154541,40.65935134887695,0
388,3879922,0.06788602471351624,0.03454199060797691,-1.0138041973114014,-1.3118730783462524,-0.8751384615898132,0.41661888360977173,30.722900390625,-8.73316478729248,39.20962142944336,0
389,3889950,0.02547146938741207,0.13001590967178345,-0.9841679334640503,-0.46387943625450134,-0.6641905307769775,0.2188321352005005,29.993152618408203,-10.848820686340332,38.66648864746094,0
390,3900143,-0.0036599738523364067,-0.0927828699350357,-0.9919442534446716,-0.18764135241508484,-0.05660772696137428,0.26964718103408813,30.874893188476562,-10.799942016601562,37.879356384277344,0
391,3909983,-0.04737754166126251,-0.010426998138427734,-0.9913931488990784,0.23265576362609863,-0.9137516617774963,-0.6234673261642456,28.86086654663086,-10.135847091674805,40.617881774902344,0
392,3920227,0.032336700707674026,-0.06658642739057541,-0.9978012442588806,-0.11428886651992798,-0.21995815634727478,0.5346006155014038,30.999515533447266,-9.482314109802246,38.8368034362793,0
393,3930046,-0.014390863478183746,-0.08835259824991226,-0.9583504796028137,1.1627367734909058,-0.42535191774368286,-0.23132072389125824,29.27141761779785,-9.993185997009277,40.09897994995117,0
394,3939954,-0.07092311978340149,-0.06115765869617462,-1.0171089172363281,-0.6555988788604736,0.49139609932899475,0.7897948026657104,30.203229904174805,-11.186452865600586,39.25123977661133,0
395,3950339,0.03805766999721527,0.02114211395382881,-0.9685452580451965,-0.42410731315612793,0.6572262644767761,-0.18102844059467316,30.87427520751953,-10.676494598388672,40.4918098449707,0
396,3959822,-0.00507335364818573,-0.0156784076243639,-0.9736940860748291,-0.24165575206279755,-0.6613315343856812,-0.9531878232955933,30.12191390991211,-10.21054458618164,39.750274658203125,0
397,3969773,0.05334233492612839,-0.06180354952812195,-1.0399256944656372,-0.26220381259918213,-0.1929449439048767,-0.03716254606842995,28.50211524963379,-11.563477516174316,37.15994644165039,0
398,3980087,-0.0009315197821706533,0.035517849028110504,-1.0111262798309326,0.19112640619277954,0.3151216506958008,0.33165720105171204,28.769493103027344,-11.091291427612305,41.180442810058594,0
399,3990157,-0.016619635745882988,-0.025610147044062614,-0.9622916579246521,-0.08533061295747757,-0.10408414900302887,0.22720743715763092,29.350011825561523,-11.82292366027832,40.325965881347656,0
400,4000429,-0.02070290967822075,0.009566974826157093,-1.0337337255477905,0.5232411623001099,0.4658169448375702,0.6160234808921814,30.76268768310547,-9.618791580200195,39.90504455566406,0
401,4010002,0.021351506933569908,0.038448624312877655,-1.0003513097763062,-0.718510627746582,0.22545336186885834,0.24525465071201324,28.599451065063477,-8.940186500549316,41.233890533447266,0
402,4020172,-0.020821750164031982,0.03664027526974678,-0.9834834337234497,0.9537776112556458,0.18421493470668793,-0.2598062753677368,29.19376564025879,-10.485054969787598,40.44559097290039,0
403,4030248,0.04242245480418205,-0.045094143599271774,-0.9900293946266174,0.2301553338766098,-0.06455329805612564,-0.6713227033615112,30.812585830688477,-8.154147148132324,40.83271408081055,0
404,4040092,0.04738076403737068,-0.05778597667813301,-0.9733720421791077,-0.45049425959587097,-0.3402843773365021,-0.3958905041217804,30.92310905456543,-11.495794296264648,40.52671813964844,0
405,4050229,-0.06334338337182999,0.0883399099111557,-1.0072119235992432,0.14824038743972778,-0.7056384682655334,0.5087320804595947,30.963319778442383,-11.227635383605957,40.137943267822266,0
406,4059815,0.007222543470561504,-0.047951437532901764,-0.9614724516868591,-0.9121705293655396,-0.2609616219997406,0.2692694365978241,30.3284854888916,-10.013519287109375,40.75464630126953,0
407,4070299,0.016093067824840546,0.026161445304751396,-0.9805874228477478,-0.608783483505249,-0.5060614943504333,-0.5778412818908691,31.574378967285156,-9.879453659057617,38.77924728393555,0
408,4079949,-0.052100785076618195,0.0077660479582846165,-0.9870733618736267,0.0482754148542881,-0.04380153492093086,0.5644782781600952,30.29851722717285,-9.962303161621094,41.15910339355469,0
409,4089562,-0.04878680035471916,-0.0017119224648922682,-1.010354995727539,0.06481875479221344,-0.18212831020355225,-0.7000342607498169,31.570049285888672,-10.551774978637695,41.249542236328125,0
410,4100151,0.01700206659734249,0.027277056127786636,-0.967716634273529,-0.320001482963562,-0.022489165887236595,0.003564471611753106,27.92078971862793,-9.232104301452637,40.96002197265625,0
411,4110110,-0.06707963347434998,-0.0629710778594017,-1.0002057552337646,-0.5909469127655029,0.43807920813560486,-0.2307634800672531,30.77408218383789,-10.25844669342041,40.21904754638672,0
412,4119997,-0.024533474817872047,0.004895647522062063,-0.9531594514846802,0.6529850363731384,0.49141910672187805,-0.30040639638900757,30.06170082092285,-9.439554214477539,39.89825439453125,0
413,4130045,-0.048758599907159805,0.04031379893422127,-0.975692093372345,-0.32741862535476685,0.2966529130935669,0.42197364568710327,30.345394134521484,-10.284114837646484,40.5123405456543,0
414,4139971,0.07667829841375351,-0.0002879811218008399,-0.9794448614120483,-0.09419933706521988,0.1092199981212616,-0.942902147769928,29.7529354095459,-10.686728477478027,40.23823928833008,0
415,4150194,0.09409252554178238,-0.002267882926389575,-1.0017439126968384,0.23518314957618713,0.24169699847698212,-0.1332320272922516,28.63020896911621,-9.810144424438477,40.94160461425781,0
416,4159905,0.04628041759133339,-0.08113870769739151,-1.0044074058532715,0.9145011305809021,0.09849206358194351,-0.38058018684387207,28.947040557861328,-11.666265487670898,40.15834045410156,0
417,4170042,-0.0690813809633255,-0.013718262314796448,-0.9563050270080566,0.6433511972427368,-0.7374024987220764,0.2795580327510834,28.42343521118164,-9.903220176696777,39.276222229003906,0
418,4180075,0.09516043961048126,0.04394273832440376,-0.9918532371520996,-0.2929500639438629,-0.16476482152938843,0.6325174570083618,30.394153594970703,-10.341890335083008,38.93669509887695,0
419,4190034,-0.07230904698371887,-0.0026288575027137995,-0.9838544130325317,-0.04008619859814644,-0.3179481625556946,0.6929843425750732,30.56804656982422,-10.593478202819824,39.363731384277344,0
420,4199856,-0.02830280177295208,-0.06682559102773666,-1.0189976692199707,0.10989946871995926,-0.22750508785247803,0.8557860255241394,29.426738739013672,-10.202033996582031,42.70751190185547,0
421,4209993,-0.009674368426203728,0.0934588685631752,-0.9563094973564148,-0.9714359641075134,0.18279896676540375,0.09689778089523315,30.01172637939453,-10.365226745605469,39.56623077392578,0
422,4219882,0.0446198508143425,0.03375161439180374,-0.9928246140480042,0.11216137558221817,-0.3784533739089966,0.15438435971736908,28.22140884399414,-10.823014259338379,38.18476104736328,0
423,4230128,0.015276780351996422,0.1357845962047577,-0.9971885681152344,0.23824980854988098,-0.6116783618927002,-0.2753393352031708,30.158981323242188,-7.274853229522705,39.71821212768555,0
424,4239752,0.03536251187324524,-0.03275630250573158,-0.9966374635696411,0.4515942335128784,0.13051839172840118,0.986887514591217,29.349180221557617,-10.137736320495605,39.634578704833984,0
425,4250044,-0.05965382605791092,-0.03863759711384773,-1.0337131023406982,0.3988385498523712,0.18420056998729706,0.08750584721565247,29.908382415771484,-9.19493293762207,39.87260437011719,0
426,4260513,-0.10431279987096786,-0.0615193173289299,-0.9894631505012512,-0.27002906799316406,-0.704531192779541,0.10661858320236206,28.998340606689453,-8.534796714782715,38.79376220703125,0
427,4269902,-0.0318211205303669,0.04294487088918686,-0.9994484782218933,-0.0008084094733931124,0.18854369223117828,0.32025501132011414,30.469463348388672,-9.406617164611816,40.630550384521484,0
428,4280141,-0.06996503472328186,0.002476249122992158,-1.0483264923095703,0.09676671773195267,-0.2665514349937439,0.7390509247779846,29.558063507080078,-10.388009071350098,39.294246673583984,0
429,4289979,-0.02955165132880211,0.003754616715013981,-1.0091254711151123,0.035371217876672745,-0.17388984560966492,-0.3024180829524994,31.09635353088379,-8.914362907409668,40.08714294433594,0
430,4300056,0.02822660654783249,-0.05290694534778595,-0.9748321771621704,-0.18126080930233002,0.05061125382781029,0.6726111173629761,29.314611434936523,-9.159520149230957,40.31635665893555,0
431,4309886,0.02067432552576065,-0.00042030058102682233,-0.9916543364524841,0.6975943446159363,-0.3476888835430145,0.18645328283309937,29.59836769104004,-11.814353942871094,41.720481872558594,0
432,4320084,0.03595701977610588,0.09376374632120132,-0.9842994809150696,0.018465867266058922,-0.1170816496014595,-0.30514708161354065,29.612361907958984,-9.643095970153809,39.52671813964844,0
433,4329836,-0.05096770077943802,0.08759131282567978,-1.0173379182815552,-0.06161448359489441,0.30479392409324646,-0.23248963057994843,29.884613037109375,-9.942167282104492,40.02085876464844,0
434,4340188,-0.0898810625076294,0.014104782603681087,-1.0091694593429565,0.3694908022880554,0.2812555134296417,-0.2442837357521057,29.355012893676758,-8.011909484863281,41.52173614501953,0
435,4350011,-0.010752670466899872,0.010990463197231293,-1.0123822689056396,0.0985952615737915,0.5665656328201294,0.18590617179870605,28.740812301635742,-10.537580490112305,41.02009963989258,0
436,4359940,0.03481316938996315,0.011408863589167595,-0.9813451170921326,-0.7609357833862305,0.5609257817268372,-0.6848663091659546,28.44933319091797,-8.298458099365234,40.2874755859375,0
437,4369997,-0.05567304790019989,-0.023801814764738083,-0.962870180606842,0.16495203971862793,0.16386151313781738,-0.21831633150577545,28.503339767456055,-8.848791122436523,40.28729248046875,0
438,4380135,-0.05821654573082924,0.052645377814769745,-0.9629272818565369,0.253560334444046,0.4565731883049011,0.037824247032403946,28.524568557739258,-11.147672653198242,37.992008209228516,0
439,4390191,-0.03101256862282753,0.04127996414899826,-0.979783296585083,0.07638846337795258,1.20792555809021,0.5256953239440918,28.78101348876953,-10.720586776733398,39.808536529541016,0
440,4400263,0.05560304597020149,0.014350674115121365,-1.0634403228759766,-0.17838594317436218,-0.1966949701309204,-0.5932704210281372,32.048763275146484,-9.52939510345459,42.35224151611328,0
441,4409829,0.021097484976053238,-0.0158302653580904,-0.9963490962982178,-0.28267207741737366,-0.3416036367416382,0.09281326085329056,27.507814407348633,-10.295159339904785,39.98316192626953,0
442,4419789,-0.058462388813495636,0.03875860571861267,-0.9939035177230835,0.9432631731033325,-0.44017282128334045,0.2773185968399048,28.755653381347656,-11.177224159240723,39.47191619873047,0
443,4430052,0.07721546292304993,-0.03404778987169266,-0.9564902782440186,-0.49620115756988525,-0.3485194146633148,0.11275818198919296,29.875652313232422,-8.977736473083496,39.352603912353516,0
444,4439774,0.05709902569651604,-0.030616719275712967,-1.0082632303237915,-0.09153950959444046,-0.5467347502708435,0.21647535264492035,29.76742172241211,-10.68242359161377,39.174034118652344,0
445,4450123,-0.01977749913930893,-0.024026479572057724,-1.0094094276428223,-0.4642408788204193,-0.4871724843978882,-0.3568422496318817,29.700550079345703,-10.484186172485352,39.285552978515625,0
446,4459739,-0.01697017066180706,-0.025971785187721252,-1.0192357301712036,0.40933823585510254,0.2550523281097412,-0.08390498161315918,29.120851516723633,-9.33102035522461,41.18982696533203,0
447,4470103,-0.0007206510053947568,-0.03576205298304558,-0.9797748923301697,0.22130264341831207,0.0020195385441184044,0.20247843861579895,30.779462814331055,-9.435937881469727,40.75497055053711,0
448,4479767,0.09689215570688248,0.01268188189715147,-0.9966073632240295,-0.11906519532203674,0.04834624007344246,0.12255013734102249,31.770870208740234,-9.214845657348633,40.90635299682617,0
449,4489863,-0.005720449145883322,0.04691513627767563,-0.9837064743041992,0.4068649709224701,0.30980822443962097,-0.6544716358184814,30.97444725036621,-9.528427124023438,39.168479919433594,0
450,4500117,0.01177599560469389,0.007653149776160717,-1.0162560939788818,-0.5801250338554382,-0.032925039529800415,-0.1446986347436905,29.839746475219727,-10.699470520019531,40.353946685791016,0
451,4509795,-0.021870020776987076,0.023899735882878304,-0.9823341965675354,0.16778376698493958,0.6904036998748779,-0.02698179893195629,30.0726375579834,-9.123788833618164,40.731624603271484,0
452,4519821,-0.015266964212059975,-0.0017610260983929038,-0.989746630191803,-0.0955076664686203,0.2484792023897171,-0.2571614682674408,28.422548294067383,-8.386954307556152,40.78147506713867,0
453,4529889,-0.0024826894514262676,0.014811219647526741,-0.9868322014808655,-0.21586395800113678,0.25869956612586975,0.09969842433929443,29.763347625732422,-9.008861541748047,40.219017028808594,0
454,4540078,0.07325337082147598,0.12819671630859375,-0.9945381879806519,-0.13998593389987946,-0.47309640049934387,0.5971705317497253,31.049358367919922,-10.521851539611816,40.85697555541992,0
455,4549881,0.06502179056406021,0.005583574064075947,-0.9821465015411377,-0.2782607078552246,-0.8319401741027832,-0.17905379831790924,28.43638038635254,-9.887434959411621,39.87794876098633,0
456,4560067,-0.029540127143263817,-0.08175627887248993,-1.0130177736282349,-0.6948397159576416,0.10148230940103531,-1.1203185319900513,29.694625854492188,-9.187956809997559,37.95736312866211,0
457,4570135,-0.018934287130832672,0.05884063243865967,-0.9770587086677551,-0.6871247291564941,-0.15864601731300354,-0.6925109624862671,29.520727157592773,-10.4845609664917,39.14743423461914,0
458,4579586,0.02687619812786579,-0.0012354593491181731,-0.9864016175270081,-0.3835163414478302,0.6333439350128174,-0.07498832046985626,29.034709930419922,-10.087634086608887,40.08976745605469,0
459,4589994,0.011816447600722313,0.0270638819783926,-0.97390216588974,0.34007054567337036,0.8746959567070007,0.1382560431957245,28.418094635009766,-8.793654441833496,39.263031005859375,0
460,4599969,0.0036427730228751898,0.02375607192516327,-1.0028022527694702,0.2155398428440094,0.7361575961112976,0.0854777842760086,31.69278335571289,-9.233170509338379,39.9432373046875,0
461,4610083,-0.056176282465457916,-0.014351650141179562,-0.9824188351631165,-0.34025445580482483,0.3896021842956543,-0.3540313243865967,31.132566452026367,-10.292354583740234,38.89089584350586,0
462,4619988,0.011387046426534653,0.04598122462630272,-1.006531000137329,0.0686836764216423,-0.538074254989624,0.22507070004940033,28.96759796142578,-9.624247550964355,39.5484733581543,0
463,4630079,-0.018897175788879395,0.043073710054159164,-0.9864002466201782,0.49431750178337097,0.5902883410453796,-0.2385648936033249,31.5648193359375,-10.639434814453125,39.76243209838867,0
464,4640168,0.07755503803491592,0.0013857909943908453,-1.0159423351287842,0.05614752322435379,-0.10841163247823715,-0.15151187777519226,29.915973663330078,-10.06852912902832,38.86790466308594,0
465,4649938,-0.020500171929597855,-0.011611790396273136,-1.001603603363037,-0.6468828320503235,-0.1751537173986435,0.569668710231781,29.260644912719727,-10.164238929748535,41.495216369628906,0
466,4660045,0.031488437205553055,0.021644769236445427,-1.0027880668640137,-0.14527814090251923,0.027006957679986954,0.1348041445016861,31.068025588989258,-10.114466667175293,41.38847732543945,0
467,4669935,0.04031061381101608,0.07425873726606369,-0.9839061498641968,0.636989414691925,-0.3482417166233063,0.4260408282279968,30.81133460998535,-9.776018142700195,39.38862228393555,0
468,4680204,0.08078864961862564,0.03290402516722679,-1.000680923461914,0.17119859158992767,-0.07553183287382126,0.4219546914100647,28.41718292236328,-9.831684112548828,40.88673782348633,0
469,4689909,-0.04075365513563156,-0.03790353238582611,-1.0097132921218872,0.10857976973056793,0.13824230432510376,0.24857133626937866,31.698781967163086,-7.4012675285339355,39.690155029296875,0
470,4700012,-0.033033158630132675,-0.08880815654993057,-0.9940515756607056,0.5297207832336426,-0.16752983629703522,0.009608403779566288,29.98676872253418,-11.079808235168457,41.809844970703125,0
471,4710041,-0.008563711307942867,-0.04229572415351868,-0.9756816625595093,-0.6921398043632507,0.406240314245224,0.45446598529815674,28.007749557495117,-9.816070556640625,40.37593460083008,0
472,4720122,0.010522955097258091,0.07457919418811798,-1.001146674156189,-0.12581494450569153,0.24238884449005127,-0.8896218538284302,29.961816787719727,-10.138794898986816,39.638458251953125,0
473,4729989,-0.041198112070560455,0.05377156287431717,-1.0215163230895996,0.13221615552902222,-0.002172766951844096,-0.11579395830631256,28.552677154541016,-10.350868225097656,40.412010192871094,0
474,4740242,0.07010718435049057,0.11621154844760895,-0.9815288782119751,-0.39239418506622314,0.34657227993011475,0.1999719738960266,29.45309829711914,-9.55057144165039,41.70380783081055,0
475,4749894,0.0390179306268692,0.029253773391246796,-1.0113229751586914,0.7609716653823853,-0.48753654956817627,-0.16188576817512512,29.79713249206543,-9.417207717895508,38.733489990234375,0
476,4759767,-0.07780435681343079,0.06830907613039017,-0.9981160759925842,0.24473115801811218,0.12298412621021271,0.20556187629699707,28.32672691345215,-9.10688304901123,41.05894088745117,0
477,4769746,-0.028486914932727814,0.08988146483898163,-0.9930962920188904,-0.6691256761550903,-0.16334235668182373,0.014993778429925442,28.474565505981445,-9.31171703338623,39.47343444824219,0
478,4780101,-0.0010258230613544583,-0.06944039463996887,-1.000382900238037,0.5742009878158569,0.10161233693361282,0.5862160325050354,28.650470733642578,-10.119250297546387,39.90290832519531,0
479,4789797,0.06682916730642319,-0.00959725771099329,-1.0093742609024048,-0.20147235691547394,0.033343374729156494,-0.02044571191072464,31.33061981201172,-10.74885082244873,41.17586135864258,0
480,4800040,0.024468468502163887,0.01304230559617281,-1.0269267559051514,0.4469747543334961,-0.9412358403205872,0.49192580580711365,29.55067253112793,-9.006799697875977,39.63221740722656,0
481,4809966,-0.05691693350672722,-0.011876745149493217,-1.0001288652420044,-0.02482692524790764,-0.31096184253692627,-0.1976422369480133,30.310335159301758,-11.817586898803711,39.686622619628906,0
482,4820233,-0.08974329382181168,-0.01078319177031517,-1.0332660675048828,-0.6571454405784607,0.5443008542060852,0.6811907887458801,31.302026748657227,-11.190515518188477,41.60017013549805,0
483,4829807,-0.017851578071713448,-0.02660331316292286,-1.003501057624817,-0.3008508086204529,-0.33893492817878723,0.8852156400680542,28.711711883544922,-8.904556274414062,39.59013366699219,0
484,4839955,-0.042886946350336075,0.04912798851728439,-1.0103411674499512,1.495667576789856,-0.235195592045784,1.301245927810669,30.467260360717773,-10.660292625427246,38.57094955444336,0
485,4850088,0.02751069702208042,-0.03345983847975731,-0.9982123970985413,0.002923194784671068,0.7262435555458069,-0.3760850131511688,29.101932525634766,-10.212586402893066,41.59310531616211,0
486,4860240,-0.008250671438872814,-0.13624976575374603,-1.015511393547058,0.6691729426383972,-0.29475557804107666,-0.3513784110546112,28.841703414916992,-8.677535057067871,37.997703552246094,0
487,4869985,0.059106823056936264,0.011409521102905273,-1.0243314504623413,0.3993751108646393,0.016269009560346603,0.08336971700191498,29.460411071777344,-10.661924362182617,40.1968879699707,0
488,4880101,0.07989531755447388,0.028005478903651237,-1.0291810035705566,-0.0004158775263931602,0.20763280987739563,-0.08964864164590836,27.653287887573242,-10.70819091796875,40.65581130981445,0
489,4889875,0.02423122152686119,-0.035639483481645584,-1.001096487045288,-0.28787878155708313,-0.25520142912864685,-0.24429649114608765,28.876672744750977,-9.687943458557129,40.16387939453125,0
490,4900041,0.009308326989412308,-0.052667342126369476,-1.0042943954467773,-0.343748539686203,0.29017379879951477,-0.46152037382125854,30.3409423828125,-9.134425163269043,40.63058853149414,0
491,4909920,0.05770287290215492,0.007161248940974474,-0.9813771843910217,-0.9454402923583984,-0.7080523371696472,-0.9759037494659424,30.19981575012207,-9.53127384185791,39.200225830078125,0
492,4919938,-0.05972551554441452,-0.054262224584817886,-1.0130786895751953,-0.2124158889055252,0.14145146310329437,0.3190998136997223,30.48564338684082,-10.646496772766113,41.10981750488281,0
493,4930079,-0.09283575415611267,-0.04138770326972008,-0.9953877925872803,0.5573364496231079,-0.2757907509803772,-0.06359387934207916,29.67630958557129,-11.36118221282959,39.09376525878906,0
494,4940044,0.044245291501283646,-0.051323842257261276,-0.9945418834686279,0.21915514767169952,0.6881113052368164,0.4844816029071808,30.269433975219727,-8.740222930908203,38.90442657470703,0
495,4949912,0.044793929904699326,-0.026618633419275284,-1.012850046157837,-0.19689887762069702,-0.4197692573070526,0.0859479010105133,28.732866287231445,-10.646151542663574,40.67546844482422,0
496,4959744,0.0086593022570014,-0.05936291441321373,-1.0116791725158691,-0.01619139313697815,-0.7256985306739807,0.6655858755111694,29.23861312866211,-9.020598411560059,41.864871978759766,0
497,4969881,-0.024419786408543587,0.006979026831686497,-1.0223993062973022,0.9348835945129395,0.1278330534696579,-0.13508018851280212,28.42352867126465,-10.484965324401855,40.04063034057617,0
498,4980278,0.015573752112686634,0.06114194914698601,-1.010099172592163,-0.2175460308790207,0.18363399803638458,-0.3053361773490906,29.65444564819336,-10.763262748718262,39.99677276611328,0
499,4989934,0.08929986506700516,-0.008514294400811195,-0.974341094493866,-0.07538500428199768,-0.6204783320426941,0.6957443356513977,29.525636672973633,-8.752920150756836,39.84794235229492,0
500,5000213,-0.010172477923333645,-0.01709653064608574,-0.9849463105201721,0.67942214012146,-0.2526821792125702,-0.5496950745582581,29.974525451660156,-9.45649528503418,38.93379592895508,0
501,5009805,0.042968738824129105,-0.031871624290943146,-1.0094579458236694,0.3726164698600769,0.2647860050201416,0.3116112947463989,29.158517837524414,-9.764399528503418,39.39375305175781,0
502,5019909,-0.020358989015221596,0.014530372805893421,-1.0017937421798706,-0.7840655446052551,0.17841358482837677,-0.47667384147644043,29.393198013305664,-12.220213890075684,39.406551361083984,0
503,5030105,-0.06134362518787384,0.04481066018342972,-0.9882721900939941,0.5274098515510559,-0.2137163281440735,0.4464302361011505,30.466106414794922,-10.804832458496094,38.270572662353516,0
504,5040184,-0.051946092396974564,-0.019962439313530922,-1.0161552429199219,0.5183120965957642,-0.14682386815547943,-0.09675192087888718,30.146923065185547,-11.09238338470459,39.6512451171875,0
505,5049878,-0.032105181366205215,-0.00421999953687191,-1.0205637216567993,0.10619034618139267,-0.751130223274231,-0.045012619346380234,29.894451141357422,-10.53738021850586,39.7734489440918,0
506,5059976,-0.01497217733412981,0.11205857247114182,-1.0032401084899902,-0.6245285868644714,-0.24011892080307007,0.7704102993011475,29.682016372680664,-9.840328216552734,40.06594467163086,0
507,5069815,0.053516536951065063,-0.0036925021559000015,-0.9972772002220154,0.4832972586154938,-0.12090945243835449,0.11641529202461243,30.19553565979004,-9.143471717834473,38.35977554321289,0
508,5079933,0.07060195505619049,0.026268595829606056,-1.0091315507888794,0.15393784642219543,-0.3859803378582001,0.8231390118598938,30.99561882019043,-9.565370559692383,40.26284408569336,0
509,5090079,0.12325923144817352,-0.04561359062790871,-1.0255118608474731,-1.0075308084487915,1.000246524810791,-0.41939860582351685,28.884349822998047,-11.069875717163086,38.323875427246094,0
510,5099862,-0.046499673277139664,0.028231775388121605,-0.9714826941490173,-0.2830023169517517,0.20848475396633148,-0.14915402233600616,27.865039825439453,-9.828023910522461,41.548038482666016,0
511,5109974,-0.02278386428952217,0.013575072400271893,-0.9698159694671631,-0.4779741168022156,-0.38931381702423096,-0.07279534637928009,29.618099212646484,-8.972269058227539,39.207191467285156,0
512,5119884,0.02990790084004402,-0.056487035006284714,-0.980844259262085,-0.8657798767089844,-1.4759467840194702,0.009052225388586521,30.854446411132812,-9.689837455749512,40.44115447998047,0
513,5129913,-0.006777357310056686,0.00912728812545538,-0.9973877668380737,0.3665578067302704,0.25901904702186584,0.21916192770004272,29.74697494506836,-11.034521102905273,41.79963684082031,0
514,5140091,0.0022811044473201036,0.014512217603623867,-0.9967912435531616,-0.34611231088638306,-0.22621700167655945,0.5221007466316223,29.987686157226562,-10.981609344482422,39.055843353271484,0
515,5149983,-0.029920123517513275,-0.012868967838585377,-0.9838107824325562,0.031813379377126694,-0.5569890141487122,0.30809685587882996,31.35530662536621,-10.547660827636719,40.29225540161133,0
516,5159943,0.014715270139276981,-0.006885920651257038,-1.020504355430603,-0.5757719874382019,-1.0659687519073486,-0.01194397546350956,32.33919143676758,-8.905029296875,41.05544662475586,0
517,5170003,0.019936883822083473,0.01801914907991886,-0.9856442809104919,-0.14934132993221283,0.6977108120918274,0.1060931459069252,31.475492477416992,-12.252059936523438,40.385738372802734,0
518,5180188,0.019649138674139977,-0.028336090967059135,-0.9918778538703918,0.39627501368522644,-0.3822692930698395,0.24117770791053772,29.39657211303711,-10.434013366699219,40.17393493652344,0
519,5190108,-0.03711323440074921,0.045756421983242035,-1.0335445404052734,-0.5380651950836182,-0.08487135171890259,0.14260359108448029,30.43870735168457,-9.77502727508545,37.018978118896484,0
520,5199984,0.0002841881650965661,0.04466823861002922,-0.9922628998756409,0.39852601289749146,-1.4138411283493042,-0.19630183279514313,27.77396011352539,-9.707076072692871,40.987491607666016,0
521,5210231,-0.03425818681716919,0.0036852648481726646,-1.0086452960968018,-0.49234849214553833,-0.4419599771499634,-0.2893349230289459,29.712575912475586,-11.0047607421875,40.02398681640625,0
522,5220003,-0.0420771986246109,-0.06043771281838417,-1.004228949546814,0.3556327521800995,-0.16301850974559784,-0.6630545258522034,31.012592315673828,-10.144135475158691,39.77708435058594,0
523,5229603,-0.00989518128335476,-0.016465438529849052,-1.0067492723464966,-0.6006284952163696,-0.4617406725883484,0.49644020199775696,30.151119232177734,-10.527698516845703,41.93777084350586,0
524,5239790,0.07388048619031906,0.020253032445907593,-1.0342551469802856,-0.19509762525558472,-0.5238723754882812,0.14198905229568481,29.845075607299805,-10.821791648864746,40.49858474731445,0
525,5249838,0.03121044859290123,-0.009702594950795174,-1.0151251554489136,-0.3857279121875763,-0.01606198400259018,0.20426911115646362,29.20661735534668,-10.135675430297852,40.05253219604492,0
526,5259965,-0.0874437764286995,-0.028722159564495087,-1.0392616987228394,0.6299836039543152,0.3712195158004761,-0.29066988825798035,28.9100399017334,-10.646879196166992,40.039459228515625,0
527,5269939,0.05066811665892601,-0.008688827976584435,-0.9968149662017822,0.8947144746780396,0.3192777931690216,-0.8352227807044983,30.118560791015625,-9.8475923538208,40.949058532714844,0
528,5279972,-0.1204909086227417,0.04151857644319534,-1.0231928825378418,0.03218138590455055,-0.8711003661155701,-0.05049147829413414,29.848800659179688,-10.577300071716309,41.52210235595703,0
529,5289997,-0.03143814206123352,0.14263707399368286,-1.0155737400054932,0.27585530281066895,1.0406700372695923,-0.3006868064403534,29.946325302124023,-10.16016674041748,39.99367904663086,0
530,5300000,0.023999502882361412,-0.007440777029842138,-1.0163856744766235,0.48801642656326294,-0.5652394890785217,0.09782815724611282,28.871498107910156,-10.77631950378418,40.893638610839844,0
531,5310084,0.11351411789655685,0.02621125802397728,-0.9770771265029907,0.2015029489994049,0.10112747550010681,0.041979916393756866,30.187297821044922,-9.641618728637695,40.5870475769043,0
532,5319892,0.06836418807506561,-0.026894329115748405,-1.011144757270813,0.3618169128894806,0.2254239171743393,-0.3204804062843323,31.118074417114258,-10.203978538513184,39.73124694824219,0
533,5329955,0.012015401385724545,-0.07827107608318329,-1.0099982023239136,0.007114863023161888,1.5888296365737915,-0.45235443115234375,29.861024856567383,-10.483502388000488,38.55231857299805,0
534,5339873,-0.04200213402509689,0.03207195922732353,-1.0148626565933228,0.4477227032184601,0.0018026273464784026,0.6118485927581787,28.281606674194336,-9.547903060913086,39.25639343261719,0
535,5349911,0.012197035364806652,0.018526487052440643,-0.9808353781700134,-0.4350804090499878,0.0002240969188278541,-0.06552647799253464,28.46277618408203,-11.112820625305176,38.01985549926758,0
536,5360017,-0.02159125544130802,0.004596085287630558,-1.0133459568023682,-0.9700791239738464,0.8618413209915161,0.1920050084590912,30.3582763671875,-9.361382484436035,39.52552795410156,0
537,5370405,-0.04209147021174431,0.07376513630151749,-1.0187935829162598,-0.0761503279209137,-0.0008355755708180368,0.18238680064678192,31.04319953918457,-10.228883743286133,39.31774139404297,0
538,5379906,-0.08276411145925522,-0.07621674239635468,-1.022702693939209,-0.5917820930480957,0.9041420221328735,0.5563561916351318,30.408504486083984,-8.881622314453125,37.46091079711914,0
539,5390044,0.08486330509185791,0.023717466741800308,-0.9885501265525818,0.41227155923843384,-0.511284351348877,-0.9845070242881775,32.50981521606445,-11.476430892944336,39.53959274291992,0
540,5399835,0.06745317578315735,0.06043501943349838,-0.9913507103919983,0.17163977026939392,-0.4121048152446747,0.15059073269367218,30.1142520904541,-10.246294021606445,38.528846740722656,0
541,5409961,-0.0455537810921669,-0.06300393491983414,-0.9964662790298462,0.24642327427864075,-1.2552913427352905,0.07833895087242126,29.875015258789062,-9.310005187988281,41.635337829589844,0
542,5419960,-0.08256351947784424,-0.13309389352798462,-0.9983917474746704,0.38543957471847534,0.082101970911026,0.9381430149078369,31.020448684692383,-9.369730949401855,38.82307052612305,0
543,5429953,-0.03319794312119484,-0.015739524737000465,-0.9613859057426453,-0.6674500107765198,0.012104116380214691,0.2246474027633667,28.682353973388672,-8.995983123779297,40.39242935180664,0
544,5439882,0.012800272554159164,-0.027926113456487656,-1.0029113292694092,-0.36492276191711426,-1.0550686120986938,-0.12342780828475952,28.378538131713867,-10.802159309387207,40.255226135253906,0
545,5449988,-0.027676042169332504,0.015964847058057785,-0.9790893197059631,-0.30060258507728577,-0.017109664157032967,-0.35235312581062317,31.237136840820312,-10.600213050842285,38.99993896484375,0
546,5459609,-0.019919050857424736,-0.014332353137433529,-1.0006264448165894,0.40966129302978516,0.512735903263092,0.2298499047756195,30.42621421813965,-11.426467895507812,40.25503158569336,0
547,5469932,0.010570184327661991,-0.024238457903265953,-1.0168638229370117,0.15507298707962036,-0.9469687342643738,-0.02842620387673378,31.452688217163086,-10.255102157592773,40.4229621887207,0
548,5479898,0.06944413483142853,-0.0024506859481334686,-0.9711923003196716,-0.4171256124973297,-0.7046013474464417,-0.7350925207138062,29.546010971069336,-9.498832702636719,41.29023361206055,0
549,5490111,0.03037947043776512,0.015172979794442654,-1.02005934715271,-0.04465692490339279,0.18476200103759766,-0.1715867966413498,30.880632400512695,-9.236236572265625,39.425384521484375,0
550,5499942,0.009648434817790985,0.0030426636803895235,-0.9984405040740967,0.30876851081848145,-0.056808970868587494,-0.6958938241004944,30.083969116210938,-11.476189613342285,39.57062911987305,0
551,5509984,0.03643522411584854,0.024808399379253387,-0.9962324500083923,-0.734677791595459,0.3601906895637512,0.4243181645870209,28.213531494140625,-9.574277877807617,40.30729675292969,0
552,5520144,-0.08756566792726517,0.05183634161949158,-1.0210014581680298,-0.09398901462554932,-0.18425831198692322,-0.043924301862716675,29.24205780029297,-11.173173904418945,39.70998764038086,0
553,5530530,0.039666369557380676,0.025330908596515656,-0.9850525856018066,0.44773173332214355,-0.04107488691806793,-0.8213564157485962,30.52869987487793,-10.950004577636719,39.943355560302734,0
554,5539875,-0.020288094878196716,-0.07388346642255783,-0.9906379580497742,0.33631831407546997,0.5651402473449707,0.34178122878074646,29.99951934814453,-10.339674949645996,40.136436462402344,0
555,5550215,0.13539615273475647,0.008273337036371231,-1.0256927013397217,0.21303977072238922,0.9253721237182617,-0.7990465760231018,29.93291664123535,-8.692750930786133,40.01204299926758,0
556,5559870,0.0352071188390255,0.01165724080055952,-0.9913780093193054,-0.5331106185913086,0.26812756061553955,0.5570806860923767,29.557666778564453,-8.673080444335938,40.12674331665039,0
557,5570089,-0.09251846373081207,-0.03848471865057945,-1.0039877891540527,-0.1424952745437622,-0.2985578775405884,0.25259310007095337,29.631441116333008,-10.2829008102417,39.667938232421875,0
558,5580147,-0.015868468210101128,0.08211182057857513,-1.0198767185211182,-0.494024395942688,-0.0662502571940422,-0.18079611659049988,29.708860397338867,-10.776589393615723,38.498268127441406,0
559,5590086,-0.0031294298823922873,0.03792377561330795,-0.9920784831047058,0.728566586971283,0.2949812710285187,-0.26817256212234497,30.071945190429688,-9.167001724243164,40.43612289428711,0
560,5600122,0.12828919291496277,0.04422036558389664,-0.9960668683052063,0.4152049124240875,0.5146722793579102,0.15688380599021912,29.73546600341797,-9.596060752868652,40.49336242675781,0
561,5609903,0.08723601698875427,0.016292696818709373,-1.0229438543319702,0.23068617284297943,-0.6676570177078247,-0.17982521653175354,28.832456588745117,-9.65832233428955,38.05564498901367,0
562,5620107,-0.01985849253833294,0.046608079224824905,-1.0030947923660278,-0.21013972163200378,-0.11334402114152908,0.07527203857898712,29.68126106262207,-9.992546081542969,39.73146438598633,0
563,5629856,-0.031981226056814194,-0.013094950467348099,-1.0112483501434326,-0.8255817294120789,0.05060769245028496,-0.2611956298351288,30.95537567138672,-10.89514446258545,39.21598434448242,0
564,5640041,-0.06269652396440506,-0.028971577063202858,-0.9615544080734253,-0.10047464817762375,0.24197162687778473,0.17603610455989838,29.391334533691406,-9.963586807250977,42.91139602661133,0
565,5649828,0.07166942954063416,-0.04279074817895889,-1.010271430015564,0.6229334473609924,0.15104104578495026,0.6454951763153076,29.498676300048828,-9.222719192504883,39.769622802734375,0
566,5659881,-0.09864532947540283,0.023877166211605072,-1.0009512901306152,-0.5200887322425842,-0.08782985061407089,-0.9315212965011597,28.90241050720215,-10.308505058288574,39.8770866394043,0
567,5670140,0.07502638548612595,0.05932130664587021,-0.9881777167320251,0.02887675352394581,0.14084777235984802,0.13558372855186462,29.958148956298828,-8.500813484191895,39.2363395690918,0
568,5679893,-0.030333852395415306,0.030595334246754646,-0.9716044664382935,0.04178772121667862,0.6926447153091431,0.4020211696624756,31.13312339782715,-9.467554092407227,40.5516357421875,0
569,5689792,0.021738022565841675,-0.06340005248785019,-1.0176455974578857,-0.055902667343616486,0.5164022445678711,-0.9548153877258301,30.383060455322266,-11.844210624694824,40.043582916259766,0
570,5700001,0.04902206361293793,0.09137634932994843,-0.9846805930137634,-0.20623472332954407,-0.24627794325351715,0.12087506800889969,30.444700241088867,-11.324338912963867,40.05937957763672,0
571,5709972,0.0014650928787887096,-0.024487821385264397,-0.9865468740463257,0.3462737202644348,-0.8876343965530396,-0.7461010217666626,30.006013870239258,-11.090896606445312,41.3750114440918,0
572,5720055,0.03005322255194187,0.06218760088086128,-0.9863449335098267,0.004870045930147171,0.5136462450027466,-0.99953693151474,30.359506607055664,-11.102648735046387,41.2114143371582,0
573,5729909,-0.00011621890735113993,0.039175696671009064,-1.0057140588760376,-0.31528782844543457,0.15598975121974945,0.30469003319740295,30.444786071777344,-8.844893455505371,38.40602493286133,0
574,5739942,0.06778699159622192,0.024865221232175827,-0.9716778993606567,0.13399575650691986,-0.8459196090698242,0.30318692326545715,30.519699096679688,-10.862353324890137,39.671546936035156,0
575,5750084,-0.0015870638890191913,-0.05867854878306389,-0.9951987266540527,-0.03818437084555626,0.9874964952468872,-0.17048059403896332,29.096925735473633,-10.664766311645508,39.89987564086914,0
576,5759865,0.07114869356155396,0.0249906275421381,-1.009032130241394,-0.1805240660905838,0.19683218002319336,-0.19085712730884552,29.928403854370117,-11.58853530883789,38.83343505859375,0
577,5770174,-0.028763942420482635,-0.00014826864935457706,-0.9728102087974548,-0.5834655165672302,-0.5996276140213013,0.8537090420722961,29.921545028686523,-10.04246997833252,41.21699142456055,0
578,5780008,0.007926316931843758,-0.05764125660061836,-1.0194880962371826,-0.6882298588752747,0.3732606768608093,-0.5715268850326538,29.95087242126465,-9.489686012268066,39.006099700927734,0
579,5789856,-0.009240154176950455,-0.024636544287204742,-1.03597092628479,-0.3926774263381958,0.7746625542640686,1.4603255987167358,30.00527000427246,-11.583479881286621,39.974098205566406,0
580,5800207,0.07470177859067917,0.002300755586475134,-0.9816659688949585,-0.13497401773929596,0.3481968343257904,0.4440902769565582,30.054771423339844,-10.54749584197998,39.37727737426758,0
581,5810050,-0.004894913639873266,-0.022762149572372437,-0.9371132850646973,0.11997611820697784,-0.7252563834190369,0.011874210089445114,29.649301528930664,-8.878927230834961,39.312744140625,0
582,5820103,0.05534880608320236,-0.0004353782278485596,-1.0264650583267212,0.151048943400383,-0.20330806076526642,-0.5931419134140015,29.619243621826172,-10.671332359313965,40.364105224609375,0
583,5829677,0.028853164985775948,0.016308849677443504,-1.0183179378509521,1.2652069330215454,0.32000860571861267,1.071473240852356,30.88555908203125,-9.763761520385742,40.328487396240234,0
584,5839945,-0.08562231808900833,0.019408129155635834,-0.9881371259689331,-1.1950998306274414,-0.04593324661254883,-0.6602537035942078,29.317424774169922,-10.752753257751465,40.04640579223633,0
585,5850234,0.031181523576378822,0.05330018326640129,-1.0100195407867432,0.6984333992004395,0.5139593482017517,0.34343162178993225,29.92506980895996,-9.61948013305664,39.80366897583008,0
586,5859818,-0.006683757528662682,0.03136696293950081,-1.0122923851013184,0.19940342009067535,0.22285787761211395,0.1174372062087059,30.810962677001953,-10.509450912475586,39.452083587646484,0
587,5869773,-0.01830320432782173,-0.061401672661304474,-0.9739328026771545,-0.1520039439201355,-0.35432514548301697,-0.08152343332767487,30.38690185546875,-9.278891563415527,41.21528244018555,0
588,5879789,0.08472811430692673,-0.040303800255060196,-0.9838589429855347,0.1983979344367981,0.8563916087150574,-0.5035189986228943,29.533584594726562,-9.386198997497559,41.894752502441406,0
589,5889943,0.03282119333744049,0.0019193743355572224,-0.9895492792129517,-0.4324280321598053,-0.7705152034759521,0.23655185103416443,30.28212547302246,-11.217819213867188,40.7562255859375,0
590,5899699,0.04691528156399727,-0.03561020642518997,-0.9897831678390503,0.43553975224494934,-0.10208746790885925,0.29925277829170227,29.570293426513672,-8.7794771194458,42.07094192504883,0
591,5910041,0.008587912656366825,0.02115793526172638,-1.0282607078552246,-0.05427863821387291,0.3754144012928009,0.3197580575942993,32.049224853515625,-10.325050354003906,41.68929672241211,0
592,5920117,0.006449785549193621,0.08397863805294037,-0.9669575691223145,0.634332001209259,-0.3968213200569153,0.3293258547782898,30.666980743408203,-9.920594215393066,40.246524810791016,0
593,5929574,0.0022971979342401028,0.019367126747965813,-0.9952873587608337,-0.1352716088294983,1.1464564800262451,-0.04557586833834648,28.599328994750977,-10.038058280944824,40.816593170166016,0
594,5939923,-0.07811495661735535,0.07200206816196442,-1.0178813934326172,0.1762494146823883,-0.4028734564781189,0.38166603446006775,31.167747497558594,-11.140085220336914,40.321285247802734,0
595,5950045,-0.029143761843442917,-0.02274778112769127,-1.0075914859771729,-0.5117303133010864,-0.04434008523821831,0.6616824865341187,30.30344581604004,-9.189871788024902,38.55349349975586,0
596,5960117,-0.04159720987081528,0.001072981976903975,-1.018093228340149,-0.6928274035453796,0.6090051531791687,0.24563293159008026,28.860475540161133,-10.623477935791016,42.23453903198242,0
597,5969924,-0.011226540431380272,-0.010935436934232712,-0.9736637473106384,-0.3997533917427063,0.15739752352237701,0.2669275999069214,29.943748474121094,-10.671759605407715,38.25587844848633,0
598,5980137,0.07758093625307083,-0.020699143409729004,-1.0011650323867798,0.15040165185928345,0.552681028842926,0.46589428186416626,29.95212173461914,-7.703746795654297,42.140872955322266,0
599,5989977,-0.011868453584611416,0.07306909561157227,-1.0254870653152466,0.7085352540016174,0.444011926651001,0.2731544077396393,29.42792320251465,-11.712328910827637,40.01411819458008,0
600,6000045,0.029025675728917122,0.04054518789052963,-1.0066452026367188,0.7400844693183899,0.08349297195672989,-0.40209171175956726,28.440143585205078,-11.44175910949707,39.76605224609375,0
601,6010043,0.06375274807214737,-0.09242801368236542,-0.9894193410873413,-0.8057675361633301,-0.5587250590324402,0.19047987461090088,30.494430541992188,-9.915714263916016,38.8845100402832,0
602,6020224,0.057465072721242905,-0.01678965985774994,-0.9902526140213013,-0.035212431102991104,0.6069942116737366,0.2568323016166687,29.95003890991211,-11.069079399108887,40.41714096069336,0
603,6030060,-0.0036120715085417032,-0.07523877918720245,-1.0006846189498901,0.7603466510772705,-0.002269159071147442,-0.9141912460327148,30.234025955200195,-7.97935152053833,40.52314758300781,0
604,6039937,0.12358662486076355,0.029563289135694504,-0.9672865271568298,0.05772318318486214,0.12601104378700256,-0.12110061943531036,31.831974029541016,-10.727526664733887,38.70444107055664,0
605,6049958,-0.031110189855098724,0.0059747761115431786,-0.9849827885627747,-1.115891456604004,0.7822327613830566,0.2866095006465912,31.40964698791504,-10.729134559631348,39.72241973876953,0
606,6059940,-0.013443316332995892,0.017972754314541817,-0.9815974235534668,-0.5693697333335876,0.16319742798805237,0.6252001523971558,31.391883850097656,-9.248740196228027,40.47459030151367,0
607,6070424,-0.046174775809049606,0.007038767449557781,-1.0121090412139893,-0.42305102944374084,-0.1969050019979477,0.7258003354072571,29.90762710571289,-11.391603469848633,38.733394622802734,0
608,6080035,-0.01896677538752556,0.0702608972787857,-1.0274142026901245,-0.3629532754421234,0.6974019408226013,0.008649813011288643,29.53285026550293,-9.582077026367188,39.34433364868164,0
609,6090067,0.003956973552703857,0.06659924983978271,-0.974636971950531,-0.02654697187244892,-0.19133654236793518,0.4237634539604187,29.39046287536621,-10.653541564941406,39.67656326293945,0
610,6100031,0.046570755541324615,0.03788039833307266,-1.0193824768066406,-0.6666485071182251,-0.08946764469146729,-0.34496429562568665,28.34398078918457,-11.14547348022461,38.904144287109375,0
611,6109905,0.026659924536943436,0.0036060574930161238,-0.9851290583610535,-0.009999966248869896,-0.09052258729934692,0.3310331404209137,29.673288345336914,-9.983264923095703,41.787025451660156,0
612,6119874,-0.012230673804879189,-0.011075146496295929,-1.000928521156311,0.25881728529930115,0.9844722747802734,1.2269845008850098,30.166805267333984,-11.098953247070312,40.9959716796875,0
613,6129749,-0.003105564508587122,-0.004744247067719698,-1.0216805934906006,-0.7642189264297485,0.20517918467521667,0.19506624341011047,31.759458541870117,-9.900233268737793,40.801551818847656,0
614,6139839,0.00481539499014616,-0.0017107262974604964,-1.028120756149292,-0.7429853081703186,-0.3764273524284363,-0.08581991493701935,29.3027286529541,-10.708756446838379,39.93013381958008,0
615,6149961,0.003685989184305072,0.0011227369541302323,-0.9960010647773743,0.03415103629231453,0.35600554943084717,0.02493303082883358,28.678678512573242,-9.796897888183594,40.696678161621094,0
616,6159807,0.024218633770942688,-0.015810703858733177,-1.0167666673660278,0.9712247252464294,-0.15651829540729523,0.20491395890712738,29.80940818786621,-8.905911445617676,39.502071380615234,0
617,6169984,0.012647893279790878,-0.12052290886640549,-0.9820336699485779,0.8167086243629456,0.8189842104911804,0.25741222500801086,27.580612182617188,-9.616565704345703,39.0863151550293,0
618,6180175,-0.05138380825519562,0.06062852218747139,-0.9784707427024841,-0.6761552095413208,-0.10900021344423294,0.5613483786582947,30.642059326171875,-9.718987464904785,40.578704833984375,0
619,6189883,-0.017541714012622833,-0.024283837527036667,-1.0088802576065063,0.4281393587589264,-0.4425406754016876,0.09736955910921097,28.40153694152832,-10.092212677001953,40.940574645996094,0
620,6199800,-0.02973347343504429,0.036221571266651154,-1.0348179340362549,0.09626171737909317,0.37960174679756165,0.3892807066440582,30.786890029907227,-8.916630744934082,38.76128005981445,0
621,6209812,0.10675402730703354,-0.04906138405203819,-1.0429668426513672,0.1411474496126175,0.23714320361614227,-0.42760416865348816,30.220516204833984,-9.425664901733398,41.07209777832031,0
622,6219807,-0.12123457342386246,-0.08122599869966507,-0.995582103729248,-0.4351620376110077,-0.395394504070282,0.3487434983253479,29.623899459838867,-10.341445922851562,39.40153121948242,0
623,6230092,0.007112098392099142,0.10318252444267273,-1.0209075212478638,-0.41361474990844727,-0.13190090656280518,0.16786238551139832,29.002748489379883,-6.955310344696045,39.689579010009766,0
624,6240010,-0.09265748411417007,0.058412469923496246,-0.9658744931221008,-0.03311176225543022,0.1585564911365509,1.0978769063949585,30.720516204833984,-10.917716979980469,41.31087875366211,0
625,6250010,-0.027305137366056442,0.021659839898347855,-1.0007809400558472,0.293658584356308,-0.049178291112184525,0.2582271993160248,30.17264175415039,-11.146276473999023,41.347198486328125,0
626,6260255,-0.12185739725828171,0.054084401577711105,-0.9784035682678223,0.23513449728488922,0.20479057729244232,-0.08612721413373947,29.095399856567383,-8.859869956970215,40.5930290222168,0
