seq,time_us,ax,ay,az,gx,gy,gz,mx,my,mz,drop_flag
0,45,0.04659505560994148,-0.015088246203958988,-1.0377466678619385,0.16503068804740906,0.42740803956985474,-0.0012429666239768267,30.255218505859375,-11.450072288513184,39.177730560302734,0
1,10078,-0.04071975499391556,-0.09237796068191528,-1.0153608322143555,0.46869611740112305,0.34553050994873047,0.6257835626602173,29.026342391967773,-10.02340316772461,37.985809326171875,0
2,19821,0.06656587868928909,-0.006975500378757715,-0.9765008091926575,0.5366309285163879,0.4416884481906891,-0.4909548759460449,32.10456085205078,-10.381871223449707,39.322505950927734,0
3,29917,0.07513187825679779,0.006545147392898798,-1.0177110433578491,0.15379758179187775,-0.10516905039548874,0.5365719199180603,31.112953186035156,-9.51999282836914,38.73640441894531,0
4,40039,0.057125527411699295,-0.060807500034570694,-0.9829179048538208,-0.2006734013557434,-0.8322307467460632,-0.5801889300346375,30.108280181884766,-10.016829490661621,39.15835189819336,0
5,49896,0.0442657507956028,0.024694375693798065,-0.9611542820930481,-0.25408661365509033,-0.8673859238624573,0.2596961259841919,31.944965362548828,-9.484761238098145,41.581153869628906,0
6,59646,-0.017973553389310837,0.06622067093849182,-0.9985334873199463,0.054184895008802414,-0.8775781393051147,0.5961646437644958,28.4276123046875,-10.291685104370117,39.93886947631836,0
7,69765,0.038573604077100754,0.018958289176225662,-0.9666563868522644,-0.09181641042232513,0.22107507288455963,0.09211032092571259,29.533910751342773,-8.359686851501465,40.478797912597656,0
8,80262,-0.014784866943955421,0.0007506395922973752,-1.0353821516036987,-0.3819214999675751,-0.26317766308784485,-0.010724404826760292,30.147354125976562,-11.580421447753906,41.880218505859375,0
9,89913,-0.04383526369929314,0.01954411156475544,-1.0032564401626587,-0.3086369037628174,0.13961480557918549,0.008602466434240341,28.75071907043457,-11.18309497833252,40.0449104309082,0
10,99993,0.06104159727692604,-0.03666272386908531,-0.9998906254768372,-0.28091925382614136,-0.3672269284725189,0.576253354549408,31.568767547607422,-10.642623901367188,38.90663146972656,0
11,109859,-0.030952855944633484,-0.06298176944255829,-1.0268970727920532,-0.8314508199691772,-0.18244953453540802,-0.05462338775396347,30.186559677124023,-8.456226348876953,37.93240737915039,0
12,120124,0.0038037674967199564,0.08007320761680603,-0.982100248336792,-0.21056103706359863,-1.9396919012069702,-0.3912985622882843,30.38936424255371,-10.261558532714844,39.7236328125,0
13,130005,-0.009827685542404652,-0.030751362442970276,-1.012663722038269,-0.2202540785074234,-0.026556048542261124,-0.023214880377054214,29.97052574157715,-8.977788925170898,38.563175201416016,0
14,139938,0.038098886609077454,-0.059404339641332626,-1.0067039728164673,-0.7544652819633484,-0.6789671182632446,-0.2875925600528717,29.420469284057617,-10.430150985717773,40.62533950805664,0
15,149934,-0.010831337422132492,0.05151119455695152,-0.9988414645195007,-1.6185686588287354,-0.13883960247039795,-0.2740348279476166,30.812833786010742,-10.634422302246094,37.70692443847656,0
16,160146,0.00286004482768476,0.013640721328556538,-1.0419625043869019,-0.2725157141685486,0.5413932204246521,0.33298826217651367,28.695819854736328,-8.586941719055176,39.833030700683594,0
17,170011,-0.09047461301088333,0.025198429822921753,-1.0442392826080322,0.2859080135822296,0.41537514328956604,0.6830053329467773,28.178041458129883,-9.933636665344238,38.903724670410156,0
18,180060,-0.012447803281247616,-0.03935976326465607,-0.9763213992118835,0.2777508497238159,-0.4982600510120392,0.4515190124511719,29.86766242980957,-9.915047645568848,41.54262924194336,0
19,190007,0.08740142732858658,-0.08875883370637894,-0.9758040308952332,-0.19324278831481934,0.3437293469905853,0.07989255338907242,28.864484786987305,-10.59402084350586,40.96455383300781,0
20,199908,-0.013423510827124119,-0.009721972979605198,-0.981821596622467,0.3841944932937622,-0.3161640465259552,-0.531360924243927,31.202730178833008,-9.544189453125,40.15555953979492,0
21,209792,0.039113469421863556,-0.0020859073847532272,-1.0123783349990845,1.2576898336410522,0.553149402141571,-0.1638546586036682,29.354307174682617,-11.181375503540039,42.103816986083984,0
22,219940,0.022019559517502785,-0.0686563104391098,-1.0306779146194458,0.19089996814727783,0.12637203931808472,0.35900285840034485,29.878833770751953,-9.50759506225586,39.2193603515625,0
23,229807,0.02173914760351181,-0.062371160835027695,-1.0301384925842285,-0.7185251116752625,0.038519591093063354,-0.37362056970596313,30.007789611816406,-12.196574211120605,40.5736198425293,0
24,240201,0.055535413324832916,-0.030825693160295486,-0.9983510375022888,0.5854135155677795,-0.25081443786621094,0.08505435287952423,30.188400268554688,-8.15533447265625,40.38871765136719,0
25,249864,0.03274565562605858,-0.0164378359913826,-0.9712425470352173,-0.49500757455825806,-0.2862393260002136,-0.3308843970298767,31.481420516967773,-12.153521537780762,41.214168548583984,0
26,259917,-0.017946038395166397,-0.032305069267749786,-0.9974887371063232,0.10802135616540909,-0.6571045517921448,-0.23611678183078766,29.948049545288086,-9.411931991577148,40.370418548583984,0
27,269695,0.0710836872458458,0.02410314790904522,-0.9918521046638489,0.2655859887599945,0.25781336426734924,-0.04930026829242706,28.70962905883789,-9.460245132446289,41.13895797729492,0
28,280029,-0.058796439319849014,-0.05184101313352585,-1.0036754608154297,0.3671845495700836,-0.29626959562301636,-0.5516940951347351,30.016895294189453,-10.600384712219238,41.83952713012695,0
29,290124,0.06507682800292969,0.010522441007196903,-0.9761362075805664,0.14155766367912292,-0.3248592019081116,-0.26825693249702454,30.13787078857422,-8.626494407653809,39.003597259521484,0
30,300226,0.03213493525981903,0.035755764693021774,-0.9752649664878845,-0.135890394449234,-1.0855575799942017,-0.37251102924346924,28.886259078979492,-8.725842475891113,39.594825744628906,0
31,309974,-0.0102685010060668,0.012905186042189598,-0.9843356013298035,0.2771426737308502,-0.10672298818826675,-0.33931708335876465,29.10300636291504,-9.506205558776855,40.74357604980469,0
32,319950,-0.03889854624867439,-0.025695988908410072,-0.9922508597373962,-0.30622121691703796,-0.20195823907852173,-0.12106116116046906,29.905813217163086,-9.568865776062012,39.708927154541016,0
33,330093,0.06953488290309906,0.05381454527378082,-0.9897292852401733,0.1756821870803833,-0.28824809193611145,0.8803302645683289,29.4583797454834,-10.779332160949707,40.22206497192383,0
34,340020,-0.043001919984817505,0.04753808304667473,-0.9914452433586121,-0.7542396187782288,-0.296673983335495,0.10219299793243408,30.52808380126953,-9.567219734191895,41.17859649658203,0
35,349998,0.027528773993253708,-0.08252615481615067,-1.0055216550827026,0.06818660348653793,-0.73956298828125,0.5018805265426636,28.815298080444336,-10.394977569580078,39.368186950683594,0
36,359992,0.039276447147130966,-0.005338060669600964,-1.0172635316848755,0.47153711318969727,0.7999987602233887,-0.5032351016998291,30.123178482055664,-10.190656661987305,39.99365997314453,0
37,370029,-0.0830153301358223,-0.049587544053792953,-0.9711775779724121,0.05288118124008179,0.45842245221138,0.421707421541214,29.34281349182129,-8.894026756286621,39.523433685302734,0
38,380118,-0.02163299173116684,0.06731913238763809,-1.033585786819458,0.9086171388626099,-0.34343117475509644,0.09463977068662643,30.778202056884766,-8.44946575164795,39.43329620361328,0
39,389930,0.05168147385120392,0.03859751671552658,-0.9939327239990234,-0.4782879054546356,0.04926067963242531,-0.5974687337875366,28.73809051513672,-9.847613334655762,40.512603759765625,0
40,400255,0.004225121811032295,-0.0578564889729023,-1.0108246803283691,0.08386140316724777,-0.36784136295318604,0.14286449551582336,28.88081169128418,-9.058956146240234,41.54975128173828,0
41,409680,-0.05032410845160484,0.02268022671341896,-0.9733111262321472,-0.9602118134498596,0.4616764187812805,-0.019737783819437027,30.997058868408203,-10.385985374450684,40.7273063659668,0
42,419838,0.05158141627907753,-0.018919963389635086,-1.0256651639938354,-0.386932373046875,-0.36750853061676025,0.6857739090919495,30.640512466430664,-9.273398399353027,39.46879196166992,0
43,429901,-0.03377038985490799,0.05674542859196663,-1.0006320476531982,-0.5613487958908081,-0.4160114526748657,-0.49798715114593506,30.67978286743164,-9.86981201171875,40.89677429199219,0
44,439868,0.07222755998373032,-0.013013315387070179,-0.986024022102356,0.35727357864379883,0.2556873559951782,0.1226864755153656,31.0176944732666,-10.063070297241211,38.62736129760742,0
45,449886,-0.016797563061118126,0.1037365272641182,-1.020290493965149,-0.5363298654556274,-0.4045790135860443,0.3957381844520569,30.426956176757812,-10.172174453735352,41.56425857543945,0
46,459984,0.03044065833091736,0.033736731857061386,-0.9931969046592712,-0.08174798637628555,0.49485617876052856,0.6755247116088867,29.770549774169922,-11.510510444641113,39.890865325927734,0
47,469948,0.004928292240947485,0.015400067903101444,-1.047203540802002,-0.38398510217666626,-0.17752385139465332,-0.040989939123392105,31.909841537475586,-9.846111297607422,40.67558288574219,0
48,480070,0.04490131139755249,-0.013309678062796593,-0.9943428039550781,0.03822029381990433,1.0901284217834473,0.46072614192962646,28.483549118041992,-10.276595115661621,39.45514678955078,0
49,489866,-0.03088591806590557,0.08636070787906647,-0.9926150441169739,-0.29239514470100403,-0.07274699211120605,0.71751868724823,30.970388412475586,-10.640396118164062,40.00583267211914,0
50,499842,-0.023707006126642227,0.011218381114304066,-1.0113166570663452,-0.19899322092533112,-0.3275219202041626,0.15616096556186676,30.520076751708984,-10.115640640258789,40.255104064941406,0
51,509731,0.05892942100763321,0.014561867341399193,-0.9852114915847778,0.11957521736621857,-0.670383632183075,0.32224875688552856,31.379085540771484,-9.419468879699707,39.151512145996094,0
52,519985,0.07205796241760254,-0.04577595368027687,-1.0132585763931274,0.6503745913505554,-0.21653103828430176,0.3032248616218567,29.90310287475586,-8.90363883972168,39.00214767456055,0
53,530072,0.0006696725613437593,0.06953383982181549,-0.9781022071838379,-0.7810731530189514,-0.2906860113143921,0.5165324807167053,28.789018630981445,-9.285056114196777,40.02216720581055,0
54,539841,-0.09128126502037048,-0.03965055197477341,-1.006392478942871,-0.11694957315921783,-0.26345983147621155,-0.10922851413488388,30.39500617980957,-11.251968383789062,41.007625579833984,0
55,549749,-0.07478660345077515,-0.001024494064040482,-0.9710003137588501,-0.1715235412120819,-0.9860818982124329,0.8246391415596008,31.05788803100586,-8.964850425720215,39.687843322753906,0
56,560121,0.0025804354809224606,-0.030929114669561386,-0.9836084842681885,-0.8501811623573303,-0.02484968677163124,0.30360135436058044,30.997568130493164,-10.01693344116211,40.05613708496094,0
57,569810,-0.04092928394675255,-0.034904882311820984,-1.0115885734558105,-0.535879909992218,0.1382843554019928,0.19390006363391876,30.207658767700195,-10.74101448059082,36.904884338378906,0
58,580043,0.022417359054088593,-0.04033903777599335,-0.9665706753730774,0.6530401110649109,0.2177380919456482,-0.7522560954093933,27.80476188659668,-9.343212127685547,40.89720153808594,0
59,590125,0.04815413057804108,0.08526960760354996,-1.0057694911956787,0.6694608330726624,0.35286596417427063,0.32449740171432495,29.308856964111328,-9.74968147277832,42.59621047973633,0
60,600132,-0.10834924876689911,0.035042453557252884,-0.9794909954071045,0.16653695702552795,0.7763918042182922,-0.3546636700630188,28.619497299194336,-9.16940975189209,40.465232849121094,0
61,610277,0.04694509133696556,0.04965042695403099,-0.9936318397521973,-0.01658514142036438,-0.0911945179104805,-0.15747886896133423,29.334606170654297,-9.048646926879883,39.930625915527344,0
62,620135,0.018882114440202713,-0.07046876847743988,-1.007946252822876,-0.06308325380086899,0.13186609745025635,-0.3956040143966675,29.729270935058594,-11.38635540008545,39.09168243408203,0
63,630377,-0.05797303840517998,0.016805114224553108,-0.9961708188056946,-0.2635628879070282,0.3120332658290863,-0.031116873025894165,30.817432403564453,-10.899564743041992,38.840538024902344,0
64,639938,-0.012232771143317223,0.01785876974463463,-0.9850237369537354,-0.396389901638031,-0.792142927646637,-0.010572628118097782,27.942564010620117,-11.794984817504883,39.448341369628906,0
65,650065,0.017517047002911568,0.03335977718234062,-0.9994714856147766,-0.061722103506326675,0.482054740190506,0.5955749750137329,30.466943740844727,-9.895708084106445,40.50408172607422,0
66,659948,0.03362299129366875,-0.10744651407003403,-0.980759859085083,-0.2720329761505127,-0.03918350860476494,0.4802772104740143,30.376163482666016,-8.344805717468262,39.770687103271484,0
67,670225,0.09646142274141312,-0.018465641885995865,-0.9978014230728149,0.13345804810523987,1.3672059774398804,-0.2875880300998688,30.610204696655273,-11.30130672454834,41.073734283447266,0
68,680060,-0.07189469039440155,0.0214792899787426,-0.9882252216339111,0.23367458581924438,-0.697036862373352,-0.25083041191101074,29.844486236572266,-12.376023292541504,39.07787322998047,0
69,689944,0.0037266723811626434,-0.01045015174895525,-0.9830963015556335,0.26001694798469543,-0.3147687017917633,-0.08243616670370102,31.848783493041992,-11.668532371520996,40.20342254638672,0
70,700164,-0.04504699259996414,-0.08329904824495316,-1.0425809621810913,-0.7243912816047668,1.0121558904647827,0.28290969133377075,30.009103775024414,-8.535185813903809,40.1374626159668,0
71,710123,0.05687467381358147,-0.008984290063381195,-0.9888764023780823,0.14643248915672302,-0.14038589596748352,-0.5558639168739319,29.1551570892334,-10.764140129089355,38.64961242675781,0
72,720298,-0.009943683631718159,-0.0006238504429347813,-0.9794071316719055,-0.32560494542121887,-0.23340031504631042,0.0420231930911541,29.955163955688477,-6.355422496795654,40.5638427734375,0
73,730020,-0.0957217738032341,0.02134169638156891,-1.0076873302459717,-0.5405627489089966,0.0887671709060669,0.49196910858154297,28.661535263061523,-8.797869682312012,38.82969284057617,0
74,740082,0.054575443267822266,0.013861631974577904,-0.9877881407737732,0.551855742931366,0.8286197781562805,0.3512207269668579,30.149934768676758,-10.365917205810547,38.93244171142578,0
75,750074,-0.010625743307173252,-0.010536272078752518,-1.0332947969436646,-1.0957244634628296,-0.21260207891464233,-0.768606424331665,30.988317489624023,-10.213226318359375,40.827247619628906,0
76,760147,0.03918847441673279,-0.003269052365794778,-0.9776595830917358,-0.7013055682182312,0.4770907759666443,-0.10668949037790298,28.99550437927246,-10.179779052734375,42.32328414916992,0
77,770229,0.02075842022895813,0.04719002544879913,-1.0479379892349243,0.033151112496852875,-0.04927755147218704,0.4747750759124756,32.17024612426758,-9.434331893920898,40.068851470947266,0
78,779868,-0.058023788034915924,-0.01993645541369915,-1.0162452459335327,0.30713093280792236,-0.016655223444104195,0.5119680166244507,31.20813751220703,-9.817033767700195,41.03876876831055,0
79,790092,0.07486757636070251,0.09314533323049545,-1.0068073272705078,0.7574188113212585,0.20778143405914307,0.6918379068374634,30.048816680908203,-12.825705528259277,38.8892936706543,0
80,800066,0.049788299947977066,-0.03252880647778511,-1.0362622737884521,1.0088506937026978,0.026734769344329834,-0.36857175827026367,29.759552001953125,-9.43297004699707,40.5417594909668,0
81,809960,0.0030341963283717632,0.038302943110466,-1.022794246673584,0.3580479919910431,0.4999348521232605,0.5734684467315674,29.184326171875,-10.664496421813965,39.40575408935547,0
82,819754,-0.08687877655029297,0.09588783979415894,-1.0012506246566772,-0.057839956134557724,-0.0540098175406456,-0.17062750458717346,28.28092384338379,-10.681981086730957,36.856136322021484,0
83,830035,-0.02202489599585533,0.07069800794124603,-0.9811263680458069,-0.10877291858196259,-0.5300582647323608,-0.5667372345924377,30.42865562438965,-10.534990310668945,40.776275634765625,0
84,840068,-0.03388160467147827,0.05194929614663124,-0.9771894812583923,0.6663055419921875,0.5100420713424683,-0.3920309543609619,29.45333480834961,-9.514204025268555,39.430938720703125,0
85,850250,-0.1367216855287552,-0.0009262581006623805,-1.0097233057022095,-0.15799514949321747,-1.1746350526809692,-0.27380385994911194,30.228307723999023,-11.808103561401367,39.27069854736328,0
86,860225,-0.00950705073773861,-0.025148093700408936,-1.0138314962387085,0.2427864372730255,0.1570878028869629,-0.3683110475540161,29.457326889038086,-9.29079818725586,37.98472595214844,0
87,869909,0.058819886296987534,-0.050660379230976105,-1.0055180788040161,0.5318421125411987,-0.39959582686424255,0.41849029064178467,30.65174102783203,-10.525065422058105,38.697811126708984,0
88,879993,-0.07474149763584137,0.0792897418141365,-0.9991300702095032,-0.8297260999679565,-0.30860453844070435,0.7696495056152344,29.540660858154297,-9.678305625915527,40.267173767089844,0
89,890170,-0.070217065513134,0.046141039580106735,-0.9870707988739014,-0.13217997550964355,-0.18211674690246582,-0.31634432077407837,28.89867401123047,-10.336716651916504,39.95534133911133,0
90,899854,0.012291387654840946,0.01154976524412632,-0.9857967495918274,0.034290000796318054,0.04774116724729538,-0.8496121764183044,30.784822463989258,-9.830399513244629,39.248077392578125,0
91,910128,-0.058252085000276566,0.10665112733840942,-1.0072067975997925,0.33122095465660095,0.16459091007709503,-0.12786343693733215,31.15545654296875,-9.769322395324707,40.94173812866211,0
92,919937,-0.056591205298900604,0.11409719288349152,-1.010532021522522,-0.895586371421814,0.3533187508583069,-0.591581404209137,27.432125091552734,-8.530060768127441,39.78340148925781,0
93,930101,-0.04084889963269234,0.015515860170125961,-0.9872437119483948,-0.13983549177646637,-0.650700032711029,0.5658164620399475,29.749448776245117,-10.410909652709961,40.77634048461914,0
94,939836,0.010340634733438492,-0.016745859757065773,-1.0436174869537354,0.2050308734178543,-0.8631889820098877,-0.33084556460380554,31.113096237182617,-9.544939041137695,41.26755905151367,0
95,949872,-0.005043970420956612,0.1645112931728363,-0.9720913171768188,0.4933406412601471,0.1851712465286255,-0.20795777440071106,29.085153579711914,-10.527477264404297,40.7007942199707,0
96,959979,-0.034364957362413406,0.0039344485849142075,-1.0384140014648438,-0.5307533144950867,0.15131862461566925,-0.4647943675518036,28.75309181213379,-11.582257270812988,42.476715087890625,0
97,969687,0.045803848654031754,0.016883814707398415,-1.012803077697754,-0.1995159238576889,0.1192600429058075,-1.1343207359313965,29.46131134033203,-7.911627292633057,41.02109146118164,0
98,979991,-0.059751030057668686,-0.06062572821974754,-0.9888615608215332,-0.031950902193784714,-0.221924290060997,1.1660571098327637,30.381650924682617,-9.993790626525879,40.338802337646484,0
99,989836,-0.05064349249005318,0.03227889910340309,-1.0326231718063354,0.20074917376041412,-0.4736630618572235,0.2285773754119873,28.72772789001465,-11.745482444763184,40.01113510131836,0
100,1000055,0.005991877987980843,-0.027901755645871162,-0.9764349460601807,0.34097304940223694,-0.022030886262655258,0.19600063562393188,28.912805557250977,-11.47775650024414,39.87798309326172,0
101,1010048,0.003205560613423586,0.023950137197971344,-0.9647940993309021,-0.5134473443031311,0.08159299939870834,-0.3573485314846039,29.942224502563477,-10.751730918884277,41.10334777832031,0
102,1020141,-0.09960897266864777,-0.025828758254647255,-1.0018385648727417,-0.0884111300110817,0.2745223939418793,-0.3698508143424988,31.35043716430664,-13.395390510559082,42.06663513183594,0
103,1030232,-0.07799941301345825,-0.05788661167025566,-0.9923511743545532,0.042504582554101944,-0.44468554854393005,0.11407120525836945,30.282669067382812,-11.706257820129395,42.122806549072266,0
104,1040000,0.03347120061516762,0.0637715607881546,-0.999163031578064,0.889119565486908,0.04337163642048836,0.10814305394887924,28.795381546020508,-9.573295593261719,40.52602767944336,0
105,1050091,-0.07680484652519226,-0.0443960502743721,-1.003583550453186,-0.5046956539154053,0.6529125571250916,0.1565190553665161,29.623228073120117,-9.842949867248535,41.57133865356445,0
106,1059963,0.02795238234102726,-0.01479888241738081,-1.0082296133041382,0.056531958281993866,-0.6718474626541138,0.20011253654956818,29.864641189575195,-9.00910758972168,39.697906494140625,0
107,1070052,-0.030054278671741486,-0.04083837568759918,-1.0144902467727661,0.10452612489461899,-0.43452051281929016,-0.6757950782775879,29.019500732421875,-9.175076484680176,40.08234786987305,0
108,1079794,-0.03182952478528023,-0.12351188063621521,-0.9795852899551392,0.20901843905448914,-0.7524276375770569,-0.0705602690577507,30.47544288635254,-9.889172554016113,40.42677307128906,0
109,1090051,-0.030510373413562775,0.0405222624540329,-0.990380585193634,-0.26652002334594727,0.1602104902267456,0.5785044431686401,30.901443481445312,-8.894512176513672,40.44045639038086,0
110,1099746,-0.014964284375309944,-0.04473526030778885,-0.9964032173156738,-0.3560855984687805,-0.18356864154338837,0.33307981491088867,29.421600341796875,-10.721757888793945,41.008785247802734,0
111,1109887,0.04754574969410896,0.029932480305433273,-1.004048228263855,0.4883512854576111,-0.057510048151016235,-0.14468108117580414,31.575864791870117,-11.457197189331055,39.485252380371094,0
112,1119935,-0.05021703615784645,-0.012194524519145489,-1.012906551361084,-0.29356321692466736,0.11652066558599472,0.6249956488609314,28.129497528076172,-11.395853996276855,39.45315933227539,0
113,1130064,-0.07912800461053848,0.006625568959861994,-1.0052640438079834,0.44546496868133545,-0.3628758192062378,0.7571793794631958,29.097440719604492,-10.330249786376953,39.67085647583008,0
114,1140092,0.09069740772247314,0.01966017112135887,-0.9998786449432373,-0.19874174892902374,1.0361138582229614,0.07211009413003922,28.693944931030273,-8.315176963806152,41.45973587036133,0
115,1149880,-0.013240087777376175,-0.03927084431052208,-1.0249996185302734,0.00922020711004734,-0.34441882371902466,-0.6691417694091797,29.162195205688477,-9.482672691345215,40.74628829956055,0
116,1160003,-0.05847027897834778,-0.040206845849752426,-0.9699835181236267,0.4569886028766632,0.14017438888549805,0.82317054271698,30.794729232788086,-10.516952514648438,40.24615478515625,0
117,1169737,0.03490184620022774,-0.007143646012991667,-0.9801887273788452,-0.3875464200973511,0.4831342101097107,-0.8397731184959412,31.275766372680664,-10.860479354858398,40.89098358154297,0
118,1180047,0.023375028744339943,-0.018310019746422768,-1.0338339805603027,0.36977288126945496,0.051183637231588364,-0.017737502232193947,30.2155818939209,-8.938741683959961,40.263671875,0
119,1189963,0.02761060558259487,0.038901131600141525,-0.9873186945915222,0.13121649622917175,0.4019671380519867,0.21108713746070862,31.715633392333984,-8.558269500732422,41.598426818847656,0
120,1199895,0.0030293837189674377,0.09410503506660461,-0.9772948026657104,0.2387053370475769,-0.5537875294685364,-0.7191998958587646,28.94745445251465,-9.60884952545166,41.041080474853516,0
121,1210463,-0.0018863630248233676,-0.009498108178377151,-1.0325870513916016,0.13412562012672424,-0.4031085968017578,0.21715737879276276,30.921812057495117,-9.114880561828613,39.32948303222656,0
122,1219966,0.02285834588110447,0.06633182615041733,-0.9772093892097473,0.27895379066467285,0.4959695339202881,0.10539963096380234,30.414989471435547,-10.257403373718262,38.5372200012207,0
123,1229941,0.09407730400562286,0.1042245477437973,-1.0047615766525269,0.5538359880447388,-0.6994574666023254,0.8162489533424377,29.60970687866211,-10.711254119873047,41.98896789550781,0
124,1239993,0.020849792286753654,0.04014819487929344,-1.0021780729293823,0.3038063049316406,0.24240100383758545,-0.41913333535194397,29.142436981201172,-9.252666473388672,39.9282341003418,0
125,1250018,0.050040245056152344,0.14179927110671997,-0.975881814956665,0.283515602350235,-0.023197857663035393,-0.3485322594642639,28.749086380004883,-10.999679565429688,40.87826156616211,0
126,1260113,0.03848372399806976,0.027400877326726913,-0.9916701316833496,0.03409116342663765,-0.04712449386715889,-0.956384003162384,31.47134780883789,-11.824156761169434,40.47404098510742,0
127,1270078,0.0023288701195269823,0.008558660745620728,-0.9944727420806885,0.23103436827659607,-0.9251569509506226,-0.3751181662082672,31.58376121520996,-8.592748641967773,39.40596389770508,0
128,1279876,0.014272673055529594,-0.007768601179122925,-1.0062735080718994,-0.20942924916744232,-0.07529478520154953,0.8157557845115662,28.674287796020508,-11.177614212036133,41.411563873291016,0
129,1290318,0.003149103606119752,0.01765698380768299,-1.0244324207305908,0.11482300609350204,-0.1493266522884369,0.5884965658187866,30.82384490966797,-9.759211540222168,40.12422180175781,0
130,1300242,0.040018230676651,-0.004065777640789747,-1.0326777696609497,0.046828750520944595,-0.6835705041885376,-0.3761182129383087,29.349464416503906,-10.854235649108887,40.52671432495117,0
131,1310060,-0.012429007329046726,0.017778068780899048,-0.9892511367797852,0.2912266254425049,0.8841699361801147,-0.03665566071867943,29.993560791015625,-8.831853866577148,40.28324508666992,0
132,1320328,0.007013723719865084,0.0013366455677896738,-1.013640284538269,-0.07662538439035416,-0.022381531074643135,-0.5164133310317993,28.989608764648438,-9.262224197387695,40.806819915771484,0
133,1330085,-0.09362344443798065,-0.040033936500549316,-1.0347442626953125,-0.6580778956413269,0.131632000207901,-0.08360551297664642,30.43061065673828,-8.578092575073242,40.088016510009766,0
134,1340151,0.047367390245199203,-0.024851325899362564,-1.0157464742660522,-0.16524484753608704,-0.3178871273994446,0.49060389399528503,31.45244026184082,-10.611187934875488,41.1888313293457,0
135,1350102,0.009683633223176003,0.060969192534685135,-0.9759811758995056,0.3238355219364166,0.5835559368133545,-0.0397782027721405,31.354562759399414,-9.09119701385498,39.767677307128906,0
136,1359792,-0.07264295965433121,-0.010020657442510128,-0.9908984899520874,0.46947181224823,-0.5575408935546875,0.15324987471103668,31.60285186767578,-10.906338691711426,39.00543212890625,0
137,1370159,-0.08260789513587952,-0.034006472676992416,-1.0265964269638062,-0.8066417574882507,-0.1600625067949295,-0.3278164565563202,29.9400691986084,-9.3457670211792,40.624359130859375,0
138,1380028,-0.0864226445555687,0.043622035533189774,-1.0266703367233276,-0.1491202414035797,-0.6658546328544617,-0.2774874269962311,30.23826026916504,-10.891440391540527,39.42767333984375,0
139,1390027,-0.01585143618285656,-0.010095549747347832,-1.05213463306427,0.06232084333896637,-0.7331274151802063,0.10844018310308456,29.95559310913086,-9.671066284179688,41.40427780151367,0
140,1400096,-0.005499371327459812,0.014624636620283127,-1.007508635520935,0.7143072485923767,0.06617940962314606,0.7144755721092224,29.84772491455078,-10.016717910766602,39.630462646484375,0
141,1409726,0.10282756388187408,0.17293256521224976,-0.9849879741668701,-0.18835577368736267,-0.3953166902065277,-0.2593793272972107,30.389841079711914,-9.020636558532715,39.08828353881836,0
142,1420204,-0.04931940883398056,0.07697448879480362,-0.9957678318023682,0.36717286705970764,0.5501448512077332,0.1546427458524704,28.85004997253418,-8.023069381713867,40.949920654296875,0
143,1429830,-0.00998435914516449,-0.0363769456744194,-0.9680730700492859,0.28386184573173523,0.5450955033302307,-0.7355656027793884,29.446821212768555,-9.408649444580078,39.61723709106445,0
144,1439995,0.0062073273584246635,0.02099710889160633,-0.9614675641059875,0.47575101256370544,-0.08849809318780899,-0.08429982513189316,29.5037841796875,-8.99040699005127,40.452049255371094,0
145,1450138,0.027737129479646683,-0.062382493168115616,-0.9913567304611206,-0.792096734046936,-0.5805843472480774,0.46423837542533875,28.391979217529297,-10.706604957580566,39.47782516479492,0
146,1460027,0.004628351889550686,-0.014688925817608833,-0.9699420928955078,-0.0791807770729065,0.261862188577652,0.12157761305570602,31.236757278442383,-10.140693664550781,39.2383918762207,0
147,1469981,-0.0981040671467781,0.12124782800674438,-0.9807730913162231,0.1886117160320282,-0.4703200161457062,0.06658176332712173,29.041748046875,-9.670211791992188,40.688560485839844,0
148,1480126,0.05818822234869003,-0.024222854524850845,-0.9853312969207764,-0.33477190136909485,0.6410954594612122,0.08949661999940872,30.3114013671875,-8.818055152893066,39.4301872253418,0
149,1490049,-0.06525404006242752,0.038033612072467804,-1.010349154472351,-0.015743622556328773,-0.19187794625759125,-0.883071780204773,30.657045364379883,-9.803345680236816,40.791259765625,0
150,1499891,-0.00396769680082798,-0.020889637991786003,-1.0004713535308838,-0.5096482038497925,-0.16659262776374817,-0.4312649965286255,28.890472412109375,-10.735830307006836,39.99526596069336,0
151,1510113,-0.10450159758329391,0.02727477252483368,-0.9770543575286865,-0.0403413288295269,-0.1594354808330536,0.033526454120874405,28.342161178588867,-10.571475982666016,40.58140182495117,0
152,1520033,-0.035775307565927505,0.005828082095831633,-0.9940956830978394,-0.09089589864015579,-0.8473128080368042,0.02027832344174385,30.177032470703125,-10.22677230834961,40.963111877441406,0
153,1530084,0.007880125194787979,-0.12682147324085236,-1.0044677257537842,-0.17338736355304718,-0.7471811175346375,0.292007714509964,30.320348739624023,-8.755331993103027,40.25418472290039,0
154,1539723,0.0188506580889225,0.062140341848134995,-0.9919561743736267,0.3530384600162506,-0.4874347746372223,0.008609260432422161,29.385467529296875,-9.858623504638672,39.997554779052734,0
155,1549990,-0.0030312752351164818,-0.07685258984565735,-0.9861343502998352,-0.14754819869995117,0.7103278040885925,0.3649580180644989,30.333417892456055,-8.816110610961914,39.885318756103516,0
156,1559895,-0.06347232311964035,-0.006053738761693239,-0.9862698316574097,0.19270768761634827,0.5667202472686768,-0.36234256625175476,30.283588409423828,-10.036827087402344,39.851280212402344,0
157,1570124,-0.01641334407031536,-0.009692728519439697,-1.0011327266693115,-0.9902628064155579,0.1060580164194107,0.36786335706710815,29.642475128173828,-11.441876411437988,40.505577087402344,0
158,1579927,-0.016407594084739685,-0.008158531971275806,-1.0280786752700806,-0.3310788869857788,-0.3613685667514801,-1.145402193069458,29.814207077026367,-9.882858276367188,40.43921661376953,0
159,1589984,-0.10534323006868362,-0.05044936388731003,-1.0245704650878906,-0.4899245500564575,0.44898077845573425,-0.02849358692765236,30.67165184020996,-11.565909385681152,40.117183685302734,0
160,1599843,0.04458490014076233,0.0776328593492508,-1.0148506164550781,-0.31544229388237,-0.5223168134689331,0.6814086437225342,29.99905776977539,-10.422995567321777,39.43507766723633,0
161,1610093,0.06721606105566025,0.02770901285111904,-0.9909657835960388,0.5197879076004028,0.7442598938941956,-0.19216252863407135,30.58710479736328,-9.985733985900879,39.95589828491211,0
162,1619942,-0.050807978957891464,-0.0631183534860611,-0.9830996990203857,-0.04679937660694122,-0.7737451791763306,-0.4353969693183899,29.974788665771484,-9.029760360717773,40.900508880615234,0
163,1629752,-0.0950150266289711,-0.05807889252901077,-1.0107845067977905,0.210462749004364,0.6303648948669434,-0.01576683670282364,30.079023361206055,-11.331903457641602,38.97067642211914,0
164,1639994,-0.1041809618473053,0.023878388106822968,-1.0091825723648071,0.24651089310646057,0.5742762088775635,-0.16240480542182922,29.874305725097656,-11.37365436553955,40.803714752197266,0
165,1649984,-0.06518407166004181,-0.04425148665904999,-0.9886468052864075,0.5809935927391052,-0.38721778988838196,1.260816216468811,29.73833656311035,-9.581284523010254,39.766910552978516,0
166,1660007,-0.061576373875141144,-0.05846671387553215,-0.9752563834190369,-0.3740244209766388,-0.46342718601226807,0.4985407888889313,30.53847885131836,-9.640288352966309,41.2456169128418,0
167,1670058,0.05836628004908562,0.006192404311150312,-0.9844557046890259,0.0653524249792099,0.49104228615760803,0.2016671895980835,29.393356323242188,-10.146293640136719,38.0742301940918,0
168,1680279,0.011573405005037785,0.02703631855547428,-0.9694710969924927,0.5327929854393005,0.46399882435798645,0.45598918199539185,28.568326950073242,-9.94028377532959,39.207942962646484,0
169,1689832,-0.07092362642288208,0.04653220996260643,-0.9950439929962158,0.46625304222106934,-0.007914567366242409,-0.43079841136932373,30.543703079223633,-8.766382217407227,38.938209533691406,0
170,1699722,0.04278600215911865,0.02922729402780533,-1.013523817062378,-0.638672947883606,-0.014522811397910118,-0.32603394985198975,29.76753044128418,-11.012373924255371,41.367427825927734,0
171,1709875,-0.11662574857473373,0.021758075803518295,-1.0206799507141113,-0.3980478346347809,-0.3615291118621826,-0.3635205328464508,30.717609405517578,-10.370023727416992,39.06302261352539,0
172,1720183,-0.011746312491595745,-0.03636894375085831,-0.9603114128112793,-0.6121008396148682,-0.6646706461906433,-0.096575066447258,30.602771759033203,-9.434860229492188,40.118621826171875,0
173,1729737,0.049603115767240524,0.015561622567474842,-1.0486589670181274,0.02391311712563038,0.8214297294616699,-0.24869753420352936,33.051239013671875,-9.970352172851562,40.867401123046875,0
174,1739811,0.07639434933662415,0.027174480259418488,-0.9982609748840332,1.1765981912612915,-0.35751843452453613,-0.11444401741027832,31.008333206176758,-9.381386756896973,38.48038101196289,0
175,1750024,-0.010378043167293072,-0.051471609622240067,-1.0056203603744507,-0.9513736963272095,0.9116480946540833,0.4000946879386902,28.416946411132812,-8.969701766967773,40.15920639038086,0
176,1759896,-0.017196081578731537,0.009492491371929646,-0.992941677570343,0.5401845574378967,-0.2018912434577942,-0.2086048126220703,30.8190975189209,-11.426183700561523,41.177608489990234,0
177,1769883,0.014655403792858124,0.08685050159692764,-0.988815188407898,-0.23576228320598602,0.6133105158805847,-0.19870801270008087,29.265600204467773,-10.829771995544434,39.42124938964844,0
178,1780050,0.06791608035564423,-0.02544531226158142,-0.9761188626289368,-1.0015151500701904,-0.09890979528427124,-0.18774360418319702,30.55479621887207,-9.929546356201172,40.16484832763672,0
179,1790086,-0.02314932271838188,-0.035526078194379807,-1.0079377889633179,-0.00012859808339271694,-0.13859272003173828,0.4547334909439087,28.633831024169922,-10.003387451171875,41.533348083496094,0
180,1800163,0.012859499081969261,-0.036929015070199966,-0.9912101030349731,0.14420105516910553,0.24383343756198883,-0.01870705746114254,27.84235191345215,-10.254932403564453,39.88146209716797,0
181,1810179,0.0333176851272583,0.0027120925951749086,-1.0137312412261963,-0.01698370650410652,-0.003530246438458562,0.2525597810745239,30.818296432495117,-8.632314682006836,40.0666389465332,0
182,1819751,0.03939201682806015,0.0363641120493412,-1.004662036895752,-0.3200399875640869,-0.3947595953941345,-0.016157232224941254,28.81670570373535,-9.756509780883789,39.09161376953125,0
183,1830117,-0.07357799261808395,-0.01658036932349205,-0.982166051864624,0.3811977207660675,0.14877429604530334,0.26477599143981934,31.31428337097168,-10.260364532470703,41.38441467285156,0
184,1839892,0.013997565023601055,0.04968184232711792,-1.0186914205551147,-0.21291396021842957,0.6004655361175537,-0.3254459500312805,30.630212783813477,-10.192971229553223,39.33549880981445,0
185,1849715,-0.05642284080386162,0.013400456868112087,-0.9769441485404968,-0.7456938624382019,-0.12845933437347412,-0.05204686522483826,29.1700496673584,-10.886857986450195,42.690250396728516,0
186,1859861,0.06178774684667587,-0.025293918326497078,-0.9861984252929688,-0.382718950510025,0.6650631427764893,-0.09305479377508163,29.435457229614258,-10.865804672241211,39.330718994140625,0
187,1870057,0.019373442977666855,0.05237392708659172,-0.9887065887451172,0.0018073203973472118,0.15021279454231262,0.21373015642166138,32.002952575683594,-10.697425842285156,38.92020034790039,0
188,1879923,-0.08367034047842026,0.10662466287612915,-0.9964962005615234,-0.14586402475833893,0.1329715996980667,-0.4967113733291626,30.639657974243164,-8.993444442749023,39.85034942626953,0
189,1889997,-0.01808178797364235,-0.04989372938871384,-0.9974555969238281,0.2459862381219864,-0.22008314728736877,-0.5270609855651855,29.299327850341797,-9.61761474609375,41.54866027832031,0
190,1900008,0.04775810241699219,0.001981993205845356,-0.9712887406349182,-0.634925365447998,0.034993939101696014,0.0873696431517601,29.576709747314453,-11.694069862365723,38.817535400390625,0
191,1909917,-0.0071716029196977615,0.02574995346367359,-1.0440465211868286,0.46432435512542725,-0.22649060189723969,-0.17411577701568604,30.7164249420166,-10.961166381835938,42.03584289550781,0
192,1919933,-0.00739515433087945,0.039321452379226685,-1.0419154167175293,-0.4313185513019562,-0.27163711190223694,-0.25667425990104675,28.8137264251709,-11.140939712524414,39.89883041381836,0
193,1929824,0.0763695016503334,-0.029049552977085114,-0.99318927526474,0.7134451270103455,0.14360441267490387,-0.1679118424654007,30.078981399536133,-10.330448150634766,39.918758392333984,0
194,1939835,0.10041992366313934,-0.03290699049830437,-1.0235538482666016,-0.39408743381500244,0.32751572132110596,-0.2985706627368927,28.800365447998047,-9.446730613708496,40.7957763671875,0
195,1949754,0.06363867968320847,0.03537479415535927,-1.0319846868515015,0.5826746225357056,0.15699557960033417,-0.3772740364074707,28.978553771972656,-7.571295738220215,40.81767272949219,0
196,1960012,-0.04234443977475166,-0.0006995267467573285,-1.0011625289916992,0.5938498973846436,-0.6135466694831848,0.20449484884738922,30.29844093322754,-8.58645248413086,41.72842025756836,0
197,1970130,-0.02152777463197708,0.047071535140275955,-1.0499347448349,0.6785683035850525,0.2516312301158905,-0.3584023118019104,31.57276725769043,-10.629005432128906,39.224212646484375,0
198,1979771,0.08688139170408249,-0.007914629764854908,-0.9922311305999756,-0.758415699005127,-0.4415815770626068,-0.10855669528245926,29.768856048583984,-9.59062671661377,41.9161262512207,0
199,1989912,-0.0193297378718853,0.006048159673810005,-1.0120035409927368,-0.6335785984992981,-0.09288371354341507,-0.2574029266834259,30.50208854675293,-10.925694465637207,40.129974365234375,0
200,1999980,0.06953917443752289,0.03561384603381157,-0.9867767095565796,0.39844316244125366,-0.20743894577026367,-0.5471372008323669,31.06390953063965,-9.575699806213379,38.87413024902344,0
201,2009910,0.04366099089384079,0.02585013397037983,-0.9990277886390686,-0.566018283367157,0.7767265439033508,-0.22320422530174255,29.590919494628906,-9.170390129089355,39.24823760986328,0
202,2019954,-0.07682805508375168,0.031593065708875656,-0.9850419759750366,0.0731525719165802,-1.0643413066864014,-0.491153359413147,30.269514083862305,-10.162792205810547,41.120849609375,0
203,2030156,-0.035671837627887726,0.02515135519206524,-1.0148433446884155,1.1995532512664795,0.2543095052242279,0.5516543984413147,31.9058780670166,-9.8322114944458,39.47882080078125,0
204,2039872,0.0006360393017530441,-0.000799601140897721,-1.0172946453094482,1.0076868534088135,0.48306116461753845,0.43273329734802246,29.52504539489746,-9.373947143554688,38.860382080078125,0
205,2049737,0.03762499988079071,0.07907873392105103,-1.0076615810394287,-1.2345620393753052,0.4669494926929474,0.18144084513187408,29.687013626098633,-9.991678237915039,40.6905632019043,0
206,2059877,0.003052391344681382,0.030697433277964592,-1.0048737525939941,0.40937691926956177,-0.6335337162017822,-0.5154865384101868,29.481618881225586,-10.547174453735352,39.891693115234375,0
207,2070014,0.007512724958360195,0.040841683745384216,-0.9812292456626892,-0.32353249192237854,-0.11395584046840668,0.2142283320426941,30.6437931060791,-8.640951156616211,40.822288513183594,0
208,2079722,-0.018694182857871056,0.063744455575943,-0.9832296371459961,-0.0386936217546463,-0.5606625080108643,0.39800769090652466,30.033559799194336,-10.054741859436035,38.535091400146484,0
209,2089971,0.0841117724776268,-0.01185363344848156,-0.9793835282325745,-0.21658733487129211,0.3303163945674896,0.039605315774679184,30.49078941345215,-10.694896697998047,39.78271484375,0
210,2099899,-0.026053335517644882,-0.024193689227104187,-0.9861159324645996,-0.6448686718940735,-0.6575414538383484,0.5354029536247253,29.790061950683594,-10.965643882751465,40.531063079833984,0
211,2109678,-0.05465349927544594,0.0121493861079216,-0.9806419014930725,0.38963356614112854,0.15503209829330444,0.053864240646362305,30.438995361328125,-8.812418937683105,40.65485382080078,0
212,2120019,0.04418721795082092,0.0006815764936618507,-0.9748378992080688,-0.3827703595161438,-0.866320013999939,-0.19301269948482513,28.65798568725586,-9.431918144226074,38.12614822387695,0
213,2130165,0.06286370754241943,-0.06302136927843094,-0.9791443347930908,-0.027249595150351524,0.08692717552185059,0.23491626977920532,29.606735229492188,-9.384514808654785,40.25431442260742,0
214,2140028,0.004699626937508583,-0.06389777362346649,-1.0016366243362427,0.03887660428881645,-0.4982721209526062,0.42915844917297363,28.777511596679688,-11.064352989196777,38.87542724609375,0
215,2150013,0.0602850466966629,0.058272186666727066,-0.9880551099777222,-0.2131248563528061,0.15763305127620697,-0.04846129193902016,29.804548263549805,-11.620878219604492,39.37648010253906,0
216,2160233,-0.07250801473855972,0.007933841086924076,-1.0165770053863525,0.2150280624628067,-1.2002087831497192,-0.9337132573127747,28.47287940979004,-9.832446098327637,40.93171691894531,0
217,2169859,-0.004493726883083582,0.05396755412220955,-0.9765636920928955,-0.051471635699272156,-0.3483634293079376,0.7004481554031372,31.324644088745117,-8.684606552124023,39.58098220825195,0
218,2179869,-0.008252098225057125,-0.027721624821424484,-1.0111192464828491,-0.2504778206348419,-1.2319551706314087,0.900456964969635,30.42337417602539,-11.795133590698242,39.70848083496094,0
219,2190100,0.05887708067893982,0.038342468440532684,-0.9757664203643799,-0.03881668299436569,-0.8709120154380798,-0.4775313138961792,30.793506622314453,-9.978114128112793,39.54952621459961,0
220,2199883,-0.02481089159846306,-0.05753110349178314,-1.0192298889160156,0.8715509176254272,0.7108957767486572,0.13694509863853455,30.222396850585938,-10.7973051071167,39.43016815185547,0
221,2210137,-0.05651414766907692,0.019408252090215683,-1.0131497383117676,0.7990089654922485,-0.5105052590370178,0.21606555581092834,31.00933074951172,-10.722371101379395,39.780853271484375,0
222,2220192,0.003788613947108388,0.03195364400744438,-0.9876860976219177,-0.4954480230808258,0.18237394094467163,-0.7991508841514587,29.8602294921875,-9.283685684204102,38.410980224609375,0
223,2230097,0.10557907819747925,0.019407393410801888,-0.9651533961296082,0.21707451343536377,0.2912367284297943,-0.3116322159767151,31.873472213745117,-10.138764381408691,40.001041412353516,0
224,2240085,-0.0878969356417656,0.05837579071521759,-1.000165581703186,0.23864823579788208,0.5292139649391174,0.1413479745388031,31.946048736572266,-9.98086929321289,39.995052337646484,0
225,2249935,-0.02150702103972435,-0.006203078664839268,-1.0389832258224487,0.21753250062465668,0.6586567163467407,0.21651440858840942,28.67266082763672,-10.99653148651123,40.778385162353516,0
226,2260036,-0.04732517525553703,-0.03251436725258827,-1.0127166509628296,-0.08016853034496307,0.567170262336731,-0.3509049117565155,29.5538330078125,-10.589973449707031,40.18354415893555,0
227,2270156,-0.002685985993593931,0.021581711247563362,-1.0044875144958496,-0.04955510422587395,-0.15574343502521515,0.4882120192050934,29.800888061523438,-10.590791702270508,39.163326263427734,0
228,2280040,-0.01768389530479908,-0.03546049818396568,-1.0247710943222046,-0.10534810274839401,0.25293511152267456,0.26982277631759644,29.19188117980957,-9.769530296325684,41.04555892944336,0
229,2290139,0.12375175952911377,0.054891228675842285,-0.9925265908241272,-0.33138468861579895,-0.35932955145835876,-0.028091292828321457,28.198863983154297,-9.898737907409668,39.16737365722656,0
230,2299907,0.04800465330481529,0.08581371605396271,-1.013432264328003,0.04083804413676262,-0.2927325367927551,-0.8152741193771362,30.493671417236328,-9.374914169311523,42.024200439453125,0
231,2310350,0.07650957256555557,0.07671560347080231,-0.9637275338172913,0.4082934856414795,0.2846453785896301,-0.5073047876358032,30.158309936523438,-10.73898696899414,38.60612487792969,0
232,2320167,0.04134008288383484,0.02535255253314972,-0.9837731719017029,-0.24300025403499603,-0.49242469668388367,0.39680352807044983,31.050399780273438,-9.092041015625,37.61653518676758,0
233,2330079,0.06562649458646774,0.04219306260347366,-1.00580894947052,-0.02290240116417408,-0.36743563413619995,0.2066938579082489,30.768468856811523,-10.412790298461914,40.05867385864258,0
234,2339811,0.0429963655769825,-0.030428487807512283,-0.994367778301239,0.6312914490699768,0.10371658205986023,-0.233281210064888,31.888399124145508,-9.905595779418945,40.77323532104492,0
235,2350031,-0.017902271822094917,0.028886564075946808,-0.9849570989608765,0.09225555509328842,1.3503780364990234,-0.11082784086465836,29.9534854888916,-10.023602485656738,39.57449722290039,0
236,2360158,-0.13288944959640503,-0.020270437002182007,-0.9979424476623535,0.21744757890701294,0.10250139236450195,0.06300581246614456,29.331602096557617,-9.493659973144531,39.90534210205078,0
237,2370082,-0.06193801015615463,-0.08106854557991028,-0.9947124719619751,-0.39740386605262756,-0.0753081738948822,-0.6939555406570435,30.12346839904785,-10.990113258361816,40.02898025512695,0
238,2380122,-0.006228971295058727,0.012034368701279163,-1.0329575538635254,-0.13020101189613342,-0.16613268852233887,0.7538609504699707,29.680118560791016,-10.430191993713379,39.542938232421875,0
239,2389768,-0.09630803763866425,-0.022101422771811485,-1.0207536220550537,0.5404515266418457,0.6603584289550781,0.13589248061180115,31.407373428344727,-9.604474067687988,40.507957458496094,0
240,2399912,-0.05095668509602547,-0.11985073983669281,-1.0427484512329102,-0.5021663308143616,0.515633225440979,-0.9090108871459961,28.233009338378906,-9.412108421325684,41.495277404785156,0
241,2410181,0.022393494844436646,-0.020313413813710213,-1.0093125104904175,0.5008590221405029,0.16242912411689758,-0.003148845862597227,32.075469970703125,-9.478936195373535,39.757789611816406,0
242,2419916,-0.03737854212522507,0.0824773907661438,-1.0079392194747925,-1.155287504196167,-0.07090109586715698,-0.8748852610588074,29.764148712158203,-10.70260238647461,39.16397476196289,0
243,2429943,-0.020288024097681046,0.027204643934965134,-0.9460795521736145,0.626619815826416,0.6467365026473999,0.4137037992477417,30.131011962890625,-10.885982513427734,41.10918426513672,0
244,2439779,0.061719492077827454,-0.03572774678468704,-1.0137231349945068,-0.5392550826072693,0.7232254147529602,1.0974780321121216,29.84149742126465,-10.36349105834961,39.784515380859375,0
245,2449740,0.0721607580780983,0.01865680329501629,-1.0062180757522583,-0.18481619656085968,-0.3606562614440918,-0.09511157870292664,30.686031341552734,-10.007258415222168,38.80082702636719,0
246,2460072,-0.046167194843292236,-0.018005210906267166,-0.9888082146644592,0.06032431870698929,0.7396644353866577,0.2278582900762558,31.14551544189453,-10.336057662963867,40.3267707824707,0
247,2469952,0.11833635717630386,-0.07881951332092285,-0.9696763753890991,0.06656771153211594,0.19298098981380463,-0.09808889776468277,29.918615341186523,-10.256564140319824,41.45958709716797,0
248,2480023,-0.04219675064086914,0.0604858472943306,-1.0290708541870117,0.20530831813812256,0.010266383178532124,-0.1773969829082489,30.04912757873535,-9.216405868530273,38.96704864501953,0
249,2489829,-0.03909933567047119,-0.017368050292134285,-1.0508849620819092,0.22461335361003876,0.4607803225517273,0.025357641279697418,30.542142868041992,-8.463651657104492,40.840476989746094,0
250,2499952,0.08407197147607803,0.04955039918422699,-0.9917609095573425,1.7171127796173096,0.44966980814933777,-0.09218351542949677,31.04481315612793,-10.570759773254395,39.97420883178711,0
251,2510170,-0.005837138742208481,0.01229874137789011,-1.0079185962677002,-0.13782989978790283,-0.43902087211608887,-0.8756505846977234,29.721240997314453,-8.580191612243652,41.573055267333984,0
252,2519845,0.04823620244860649,-0.11856424063444138,-0.9636306762695312,-0.5656610131263733,-0.9326620101928711,0.9004524350166321,31.24940299987793,-8.68320083618164,40.29884719848633,0
253,2530016,-0.0407123938202858,0.038309596478939056,-1.02778160572052,-0.6265929937362671,0.2201547920703888,-0.27031609416007996,29.344133377075195,-9.272165298461914,41.459877014160156,0
254,2540077,-0.03850041702389717,0.024630650877952576,-1.00785493850708,0.2828931510448456,-0.015563556924462318,0.872002124786377,28.086318969726562,-9.543427467346191,41.27946090698242,0
255,2549839,-0.07388423383235931,0.10504946112632751,-1.019183874130249,0.47602686285972595,0.5132484436035156,0.23107416927814484,30.191452026367188,-10.939366340637207,39.98877716064453,0
256,2560129,0.00905650109052658,-0.009074365720152855,-1.011902093887329,-0.374297171831131,-0.9114583730697632,0.30603957176208496,29.649555206298828,-8.852429389953613,41.31328201293945,0
257,2570416,-0.043003518134355545,-0.008899407461285591,-0.9919816255569458,0.6476328372955322,-0.4462912082672119,-0.15953126549720764,28.564556121826172,-8.913455963134766,42.911991119384766,0
258,2579888,-0.028233211487531662,-0.02969277836382389,-1.0109920501708984,0.027940906584262848,0.0974547415971756,0.2296028584241867,29.7345027923584,-8.358904838562012,41.0413932800293,0
259,2590118,-0.03594997897744179,-0.06404288858175278,-1.0123637914657593,-0.09052611142396927,0.4437214136123657,0.7257035374641418,30.44845962524414,-8.686528205871582,39.49599838256836,0
260,2600204,0.029575107619166374,0.0030602614860981703,-0.9955589771270752,-0.6542873978614807,-1.6858627796173096,0.6405162215232849,31.52669906616211,-11.20715618133545,38.33800506591797,0
261,2609898,0.07368329167366028,-0.05454741045832634,-1.0262188911437988,-0.5622033476829529,0.34956225752830505,-0.14788256585597992,30.169193267822266,-9.906843185424805,41.15718078613281,0
262,2620012,0.054887235164642334,0.02836291864514351,-1.0156563520431519,0.32039874792099,-0.34912195801734924,0.784846842288971,31.75406265258789,-9.962547302246094,41.36056137084961,0
263,2629750,0.09841663390398026,-0.04851982370018959,-0.993468701839447,-0.15205560624599457,0.27132919430732727,0.1733832061290741,29.970619201660156,-11.305808067321777,41.109222412109375,0
264,2640056,0.0007810566457919776,-0.005572805181145668,-1.013167381286621,-0.30614134669303894,0.17816683650016785,0.44200727343559265,30.167463302612305,-11.105534553527832,40.531681060791016,0
265,2650001,-0.040677230805158615,0.10022693872451782,-1.0081467628479004,-0.15324003994464874,-0.7684752345085144,0.08263988047838211,28.30984878540039,-8.43816089630127,40.73291778564453,0
266,2659971,0.02102810889482498,0.006641912739723921,-1.0033643245697021,-0.17417041957378387,-0.5089065432548523,-0.5100691318511963,31.259296417236328,-9.658858299255371,41.755279541015625,0
267,2669954,0.08050745725631714,-0.03709185868501663,-0.9877663254737854,0.40186014771461487,1.380686640739441,0.4686425030231476,30.325233459472656,-8.041097640991211,39.43519592285156,0
268,2680189,-0.007188366260379553,-0.0656633973121643,-0.9809955954551697,-0.8753058910369873,-0.0026733200065791607,0.2189326286315918,30.494903564453125,-10.705933570861816,41.155948638916016,0
269,2689987,-0.07777862250804901,0.059121664613485336,-1.0010442733764648,-0.20197513699531555,0.28109976649284363,-0.2654505670070648,31.400981903076172,-9.88478946685791,37.3443717956543,0
270,2700257,-0.03366256505250931,-0.08147003501653671,-0.9717313051223755,-0.07321599870920181,-0.03485463187098503,-0.6037472486495972,28.417879104614258,-8.974231719970703,40.630157470703125,0
271,2709742,-0.02809058502316475,-0.02368551678955555,-1.0058387517929077,-0.34281861782073975,-0.6139730215072632,0.34357750415802,31.30945587158203,-8.825993537902832,41.582759857177734,0
272,2720289,-0.06874959915876389,0.011549013666808605,-1.0210074186325073,0.44289344549179077,-0.08710046857595444,-0.7858408093452454,30.843856811523438,-8.298491477966309,39.86335754394531,0
273,2729953,-0.05270581692457199,0.056196633726358414,-0.9928353428840637,-0.47273486852645874,0.7831315398216248,0.3594619929790497,28.07215690612793,-11.00407600402832,39.585716247558594,0
274,2740161,0.033639222383499146,-0.11953070759773254,-0.9928022027015686,-0.668293833732605,0.03731752932071686,1.2641124725341797,30.33860969543457,-10.475296020507812,40.29603958129883,0
275,2750119,-0.0044207386672496796,0.025044843554496765,-1.012191891670227,-0.16817887127399445,0.1484239101409912,0.06983810663223267,30.635833740234375,-9.808358192443848,40.883941650390625,0
276,2760112,0.05338083207607269,-0.011114019900560379,-0.9962509274482727,-0.2615952789783478,0.16461187601089478,0.330049991607666,31.252695083618164,-9.075114250183105,39.0377311706543,0
277,2769910,-0.04121166840195656,-0.01302222441881895,-0.9826352000236511,0.030122309923171997,-0.34645363688468933,-0.7701246738433838,30.284807205200195,-7.843068599700928,39.92966079711914,0
278,2780129,-0.009372139349579811,-0.002831102581694722,-0.9941102266311646,0.20107503235340118,0.724145770072937,0.27230969071388245,29.851863861083984,-9.72695255279541,40.276023864746094,0
279,2789967,0.0023855280596762896,-0.022653305903077126,-1.003380537033081,-0.34924736618995667,0.4215734302997589,0.5024197101593018,30.077810287475586,-10.312283515930176,40.23838806152344,0
280,2800036,-0.11807922273874283,0.003224607091397047,-1.0069279670715332,0.2867385447025299,0.4015369117259979,-0.454074501991272,28.412647247314453,-9.687382698059082,38.63103485107422,0
281,2810220,0.0031299549154937267,-0.04883057251572609,-1.0150704383850098,0.4260101318359375,-0.8091090321540833,0.5534802079200745,29.608901977539062,-11.2788724899292,40.460540771484375,0
282,2820034,-0.01031813770532608,0.044605884701013565,-0.9872769713401794,-0.21616581082344055,-0.3394449055194855,-0.028976695612072945,30.506425857543945,-9.428727149963379,42.66154098510742,0
283,2829911,-0.014365366660058498,0.06640774011611938,-0.9768606424331665,-0.18994654715061188,0.02559300698339939,0.9051326513290405,30.77952003479004,-8.85914134979248,40.47481918334961,0
284,2840010,-0.018778249621391296,0.02579229511320591,-1.0182874202728271,-0.22395092248916626,0.2786504328250885,-0.0037466951180249453,30.30784034729004,-8.893289566040039,40.981689453125,0
285,2850074,0.020853260532021523,-0.03476805239915848,-1.0275408029556274,-0.11843510717153549,0.09265930950641632,0.45367977023124695,30.598947525024414,-11.209920883178711,40.875736236572266,0
286,2860001,0.0398249626159668,-0.0038859564810991287,-1.0196278095245361,0.20094916224479675,0.3286086916923523,-0.35358864068984985,31.43151092529297,-10.321619987487793,41.235572814941406,0
287,2870046,-0.07186922430992126,0.057355884462594986,-1.0014243125915527,0.5392466187477112,-0.5883004665374756,0.3797398507595062,29.897571563720703,-11.809908866882324,41.28329086303711,0
288,2880036,0.006374867632985115,-0.049041856080293655,-0.9976801872253418,0.44492200016975403,0.11857733130455017,0.6238004565238953,31.500303268432617,-10.051633834838867,40.148162841796875,0
289,2889969,-0.03399328514933586,-0.12921273708343506,-0.966977596282959,0.13739357888698578,-0.5174228549003601,-0.19534935057163239,29.865846633911133,-10.85904312133789,38.83098220825195,0
290,2899642,0.014387346804141998,0.03677551448345184,-0.9956372380256653,0.0804920345544815,-0.06031836196780205,-0.7479048371315002,28.476608276367188,-9.693246841430664,41.35243225097656,0
291,2909952,-0.003259755438193679,-0.10418590158224106,-0.964201033115387,-0.2882693409919739,0.4731060862541199,0.7370825409889221,28.725263595581055,-9.153657913208008,40.848915100097656,0
292,2919708,-0.007601449731737375,-0.0010620224056765437,-1.008438229560852,0.5244100689888,0.5072908401489258,-0.15283071994781494,30.497188568115234,-7.737310409545898,41.548736572265625,0
293,2929966,-0.024080928415060043,0.06347977370023727,-1.0635380744934082,0.1796227991580963,0.44705867767333984,0.8642948269844055,29.26444435119629,-9.29851245880127,40.1243896484375,0
294,2940121,0.000787570548709482,0.05137815698981285,-1.0120612382888794,-0.019936848431825638,0.8739069104194641,1.0957766771316528,29.867387771606445,-10.176687240600586,39.327598571777344,0
295,2950026,0.051354631781578064,0.015103599987924099,-1.036958932876587,-0.01952674239873886,-0.039432063698768616,0.5912529826164246,30.452091217041016,-10.563305854797363,41.57181167602539,0
296,2959944,0.03714800253510475,0.12440063804388046,-0.9825794696807861,0.19883698225021362,-0.3569883108139038,0.0002787024131976068,28.8172550201416,-10.364094734191895,40.04790115356445,0
297,2969806,-0.04315686225891113,0.019133390858769417,-0.9774794578552246,-0.49914979934692383,0.09998270124197006,0.32423195242881775,32.07286834716797,-12.536723136901855,39.779056549072266,0
298,2979964,-0.010067138820886612,0.010044229216873646,-0.9903703927993774,-0.6272356510162354,1.3527871370315552,-0.6232564449310303,28.44611167907715,-10.924456596374512,40.636009216308594,0
299,2989970,0.06297392398118973,0.07883347570896149,-1.0367748737335205,0.5413584113121033,-0.06705888360738754,0.7623454928398132,28.283462524414062,-11.584702491760254,40.453094482421875,0
300,3000120,-0.0670354887843132,-0.03509720414876938,-0.9842556118965149,-0.32326796650886536,-1.011931300163269,-0.5397785305976868,27.8785457611084,-9.304842948913574,41.6040153503418,0
301,3009820,-0.01140215341001749,-0.021899541839957237,-0.992997944355011,0.23981158435344696,-0.0037198676727712154,1.08765709400177,31.428739547729492,-9.80400276184082,42.620670318603516,0
302,3020180,-0.05365143343806267,0.04231256619095802,-0.9772404432296753,0.1347767561674118,0.40170133113861084,-0.7358777523040771,29.964754104614258,-9.79748821258545,40.41126251220703,0
303,3029992,0.03166111558675766,0.013057852163910866,-0.9791691303253174,0.20857974886894226,-0.3031373620033264,0.2716086804866791,31.33649444580078,-8.306611061096191,39.999813079833984,0
304,3039945,-0.04724552482366562,-0.02796952985227108,-1.024978518486023,0.0030188316013664007,-0.11613216251134872,0.17892156541347504,29.606525421142578,-8.04450511932373,41.34394454956055,0
305,3049966,0.027244947850704193,-0.020301491022109985,-1.0309498310089111,0.5527943968772888,-0.36856546998023987,1.3227540254592896,29.15920639038086,-10.463842391967773,40.964542388916016,0
306,3060166,0.036834467202425,-0.05234059318900108,-0.9944650530815125,-0.5571767687797546,-0.4780670702457428,0.020986407995224,28.251972198486328,-11.169663429260254,40.457401275634766,0
307,3070008,0.028728876262903214,0.05269932374358177,-0.9966061115264893,-0.5824590921401978,0.5552159547805786,0.3567613363265991,27.542980194091797,-10.407846450805664,39.376220703125,0
308,3080156,0.045357994735240936,0.07133486866950989,-0.997802197933197,0.2689071595668793,0.08238644152879715,-0.29265910387039185,29.02247428894043,-8.433768272399902,39.143341064453125,0
309,3090161,0.05709110572934151,-0.023480193689465523,-0.9701110124588013,0.008200587704777718,0.5404579639434814,-0.3226754367351532,26.57886505126953,-10.526419639587402,40.80835723876953,0
310,3100001,0.030547920614480972,0.05059472471475601,-0.9761927723884583,0.45989492535591125,0.4529547095298767,0.13281013071537018,27.266563415527344,-10.073335647583008,41.11382293701172,0
311,3109863,-0.00607176823541522,-0.015099123120307922,-0.9907297492027283,-0.09778303653001785,-0.3542659282684326,0.3180234730243683,28.71521759033203,-10.407084465026855,39.813907623291016,0
312,3119962,-0.09294718503952026,0.04418741166591644,-0.982678234577179,0.3876956105232239,0.536870002746582,0.3516778349876404,31.471805572509766,-11.226181030273438,39.28144836425781,0
313,3130209,0.07495903223752975,0.04259965196251869,-1.0011848211288452,-0.4220327138900757,-0.05296532064676285,-0.23887468874454498,30.559534072875977,-9.63212776184082,40.84064483642578,0
314,3139820,-0.0043243826366961,0.016645006835460663,-0.9889892935752869,-0.320039302110672,-0.3687697649002075,0.2816412150859833,31.186491012573242,-8.567955017089844,39.24525833129883,0
315,3149800,0.06092926859855652,0.04505851864814758,-1.0001952648162842,-0.29576215147972107,0.3069183826446533,-0.15502901375293732,29.889314651489258,-11.659768104553223,38.97600555419922,0
316,3159934,-0.007405472453683615,-0.076960988342762,-0.9981532692909241,-0.05329874902963638,-0.17017501592636108,0.30561530590057373,29.043725967407227,-9.272319793701172,40.31396484375,0
317,3170247,0.035412270575761795,-0.0066245608031749725,-0.954886794090271,0.08817898482084274,-0.222188800573349,-0.8342101573944092,30.063928604125977,-8.778761863708496,42.07415008544922,0
318,3180004,-0.022330818697810173,-0.0720711350440979,-1.024129033088684,-0.5696311593055725,0.1940355896949768,0.14537841081619263,30.755701065063477,-11.152790069580078,39.86257553100586,0
319,3190211,0.016548771411180496,0.050391148775815964,-1.0045543909072876,-0.28634577989578247,1.2551519870758057,0.10626348853111267,31.979862213134766,-10.609243392944336,39.30998992919922,0
320,3200007,-0.01208141352981329,0.07769481092691422,-1.0026525259017944,-0.059160470962524414,0.9145597219467163,-0.6789853572845459,32.92266845703125,-10.378610610961914,39.69417190551758,0
321,3209879,-0.024627871811389923,0.07776428014039993,-0.9880796670913696,0.054714687168598175,0.6822114586830139,0.7226848006248474,30.206735610961914,-10.160648345947266,39.67265701293945,0
322,3220041,0.07278627157211304,0.03537849709391594,-0.9999562501907349,0.4295269846916199,-0.03434199467301369,0.4449993669986725,28.96229362487793,-11.27120304107666,40.20537185668945,0
323,3230141,0.02830101177096367,-0.00025369503418914974,-1.0133724212646484,0.30501723289489746,0.49680259823799133,0.2294253408908844,31.130939483642578,-9.966835021972656,41.03102493286133,0
324,3239917,-0.0418829470872879,0.01630576327443123,-0.9919674396514893,-0.4297844171524048,0.026893261820077896,0.2521974444389343,29.819589614868164,-10.427854537963867,42.27233123779297,0
325,3249989,-0.08270522207021713,0.08830831944942474,-1.009986162185669,0.3522413372993469,0.4406822621822357,-0.4074147641658783,31.21506118774414,-9.277325630187988,40.04866027832031,0
326,3259870,-0.016694651916623116,0.0532231368124485,-1.0011886358261108,0.12416563183069229,-0.4306495487689972,0.2559826672077179,30.7965145111084,-10.045225143432617,39.32179641723633,0
327,3270071,-0.06243310496211052,-0.00777292950078845,-0.9784077405929565,-0.11786171793937683,-0.1086810901761055,-0.042297862470149994,31.531007766723633,-8.960989952087402,39.88912582397461,0
328,3279551,0.10215537995100021,0.1067262589931488,-0.9858704209327698,0.027392739430069923,-0.11884946376085281,-0.6437259912490845,31.254884719848633,-8.625319480895996,39.760555267333984,0
329,3290090,-0.021203961223363876,-0.01595410145819187,-1.0111122131347656,-0.5759364366531372,-0.19676265120506287,-0.16702458262443542,29.740209579467773,-10.623638153076172,40.67426681518555,0
330,3299811,0.003023433731868863,-0.023136908188462257,-1.0097007751464844,-0.2638130187988281,0.20523221790790558,-0.3092902600765228,30.970352172851562,-11.553226470947266,41.703392028808594,0
331,3309965,-0.0034790080972015858,0.037422746419906616,-1.0025863647460938,0.17290140688419342,-0.09555276483297348,0.27404969930648804,31.032011032104492,-10.44997501373291,40.234703063964844,0
332,3320055,-0.03264538198709488,-0.004779685288667679,-0.9988865852355957,0.6564586758613586,-0.04569760710000992,0.2433665692806244,29.890464782714844,-10.841023445129395,41.643646240234375,0
333,3330116,-0.025108613073825836,-0.018402837216854095,-0.982509434223175,0.2525300979614258,0.7424253225326538,0.3999899625778198,31.27651023864746,-8.944626808166504,40.69965744018555,0
334,3339919,0.040894076228141785,0.02143518626689911,-0.9806895852088928,0.015514079481363297,0.8428092002868652,-0.18377156555652618,29.428693771362305,-10.584108352661133,40.324703216552734,0
335,3350120,0.033897094428539276,0.026248078793287277,-0.9853696227073669,0.20191538333892822,0.3565473258495331,0.36225825548171997,28.151809692382812,-10.2604398727417,41.7020263671875,0
336,3360304,0.016512330621480942,0.0784187987446785,-0.984627366065979,0.5295723080635071,0.20573309063911438,0.28601929545402527,29.893177032470703,-6.9711995124816895,40.27823257446289,0
337,3370104,-0.03681407496333122,-0.03718506544828415,-1.0103816986083984,-0.1516115367412567,-0.2837240993976593,-0.7366937398910522,31.658140182495117,-7.434455394744873,42.220218658447266,0
338,3380164,-0.06253097951412201,-0.006926878355443478,-1.0270482301712036,0.8194345235824585,1.208602786064148,0.6790475249290466,30.435585021972656,-9.77554988861084,40.0589599609375,0
339,3389985,0.13792823255062103,0.012456773780286312,-0.9720766544342041,-0.19273732602596283,-0.2637927830219269,-0.2697072923183441,29.99685287475586,-9.270499229431152,40.918251037597656,0
340,3399855,0.042883653193712234,-0.05325717851519585,-0.998988926410675,0.17870751023292542,0.7286863327026367,1.265006422996521,29.72272491455078,-9.279847145080566,41.374046325683594,0
341,3409910,-0.0001864408259280026,0.023791061714291573,-1.0101447105407715,-0.06701561063528061,0.23187455534934998,-0.30614665150642395,28.751310348510742,-10.50488567352295,39.698211669921875,0
342,3419635,-0.0140055101364851,0.0195576511323452,-0.9985274076461792,0.9263753890991211,0.385461688041687,-0.027513321489095688,30.780746459960938,-9.01441764831543,40.521995544433594,0
343,3429997,-0.024238986894488335,0.005916460417211056,-1.0215809345245361,-0.35437893867492676,-0.3297385275363922,-0.1117824986577034,29.191251754760742,-10.21277141571045,40.89446258544922,0
344,3439760,0.09928898513317108,-0.019920695573091507,-1.008254051208496,0.3360169529914856,0.2943720519542694,0.6442149877548218,30.675352096557617,-11.564104080200195,39.31513977050781,0
345,3449583,0.020809024572372437,-0.019699865952134132,-0.9692249894142151,0.2760181128978729,-0.7784533500671387,0.4997296631336212,30.3123836517334,-8.572407722473145,42.3541145324707,0
346,3459863,-0.0451391339302063,-0.07917947322130203,-0.981840968132019,-0.032246123999357224,-0.14775408804416656,0.813114583492279,28.80256462097168,-9.580702781677246,39.669612884521484,0
347,3469742,0.0043704211711883545,0.0015043093590065837,-1.0196624994277954,0.3510032594203949,-1.0421068668365479,0.1814781278371811,30.40264129638672,-8.562223434448242,40.42343521118164,0
348,3480236,0.01629912666976452,0.03731013834476471,-1.0122146606445312,-0.5764033198356628,-0.45202094316482544,-0.3782408833503723,29.822067260742188,-9.835942268371582,38.84696960449219,0
349,3490081,-0.039331045001745224,0.0907372310757637,-1.0087374448776245,0.7244012355804443,0.4031820595264435,-0.8025746941566467,29.35037612915039,-10.97711181640625,40.088050842285156,0
350,3500019,0.08616042882204056,0.03802334889769554,-0.9988541603088379,-0.20656296610832214,-0.7012807130813599,-0.8820383548736572,30.14607048034668,-9.509139060974121,40.34389877319336,0
351,3510011,0.08468811213970184,0.03217652440071106,-0.9942246675491333,0.293143093585968,0.19935524463653564,0.4131568372249603,30.49675750732422,-9.428479194641113,39.60440444946289,0
352,3519801,-0.012778153643012047,0.04064824432134628,-0.9725047945976257,0.3313560485839844,-0.2571032643318176,-0.20381999015808105,31.249008178710938,-10.320859909057617,39.24632263183594,0
353,3530287,0.041638296097517014,0.020871618762612343,-1.023838996887207,1.0479518175125122,0.039864882826805115,0.2092260867357254,31.38705825805664,-13.380019187927246,39.08332443237305,0
354,3540329,-0.03729363903403282,-0.05283920094370842,-0.9762464761734009,-0.2359848916530609,0.5725541710853577,-0.3600958585739136,33.81503677368164,-8.993372917175293,40.11915588378906,0
355,3550185,0.10481525212526321,-0.08328843861818314,-1.0314732789993286,-0.22079846262931824,0.1386529952287674,-0.8269309997558594,29.266042709350586,-9.276494026184082,39.95060729980469,0
356,3559819,-0.010095270350575447,0.033294208347797394,-1.0032109022140503,0.17687232792377472,0.01151938084512949,0.657058835029602,29.53769874572754,-9.835352897644043,39.93518829345703,0
357,3570091,0.07504548132419586,0.010384048335254192,-1.0332703590393066,-0.4382450580596924,-0.5176458954811096,0.11749705672264099,29.46810531616211,-12.146553039550781,39.03499221801758,0
358,3579946,-0.018506797030568123,0.01678972877562046,-1.0100500583648682,-0.2026596963405609,1.0216816663742065,-0.49455150961875916,29.74315071105957,-8.007367134094238,38.86593246459961,0
359,3589780,0.0664810985326767,0.10552117973566055,-0.9495754241943359,-0.6229533553123474,0.034570712596178055,-0.16646164655685425,30.59575080871582,-7.862011432647705,39.14534378051758,0
360,3600145,0.02157115563750267,-0.020956188440322876,-0.9955683946609497,-0.33752211928367615,-0.5009539723396301,-0.3420966863632202,29.521160125732422,-9.916021347045898,40.87118911743164,0
361,3610018,0.08613801747560501,0.04810880869626999,-1.0121227502822876,0.10982204973697662,0.23924195766448975,-0.23804663121700287,31.420869827270508,-10.068604469299316,40.09465026855469,0
362,3619911,-0.021532880142331123,-0.01782475970685482,-1.0235260725021362,0.19698205590248108,0.037795379757881165,0.17459848523139954,29.973953247070312,-10.06524658203125,40.17374801635742,0
363,3630018,0.048748645931482315,0.019185662269592285,-0.999714732170105,0.7437506914138794,0.3371307849884033,-0.24512092769145966,28.35505485534668,-11.007902145385742,39.47563552856445,0
364,3639996,0.04869287088513374,-0.09508529305458069,-1.0087532997131348,0.6316278576850891,-0.4059199392795563,0.22449785470962524,28.81162452697754,-9.988097190856934,38.85125732421875,0
365,3650276,-0.014938651584088802,-0.03708533197641373,-0.9965320825576782,0.050294965505599976,-0.5008090138435364,0.7038928866386414,31.822444915771484,-10.9019193649292,39.98752975463867,0
366,3659978,0.06149040162563324,-0.006016530562192202,-1.0142230987548828,0.27706968784332275,-0.48289164900779724,0.0073251547291874886,28.597089767456055,-10.160577774047852,40.897003173828125,0
367,3670347,-0.044203899800777435,-0.011533371172845364,-1.037201166152954,0.18799753487110138,-0.40184471011161804,0.4054572284221649,29.88605499267578,-10.044519424438477,38.30869674682617,0
368,3679965,-0.03326817601919174,-0.006939054932445288,-0.9623185992240906,0.9631980061531067,-0.0815369263291359,-0.12653425335884094,29.744037628173828,-9.930941581726074,41.335628509521484,0
369,3689859,0.013299116864800453,-0.041707657277584076,-0.9811096787452698,-0.054769568145275116,-0.8453664183616638,-0.6604259610176086,29.090801239013672,-9.682929039001465,40.078697204589844,0
370,3700031,-0.020085826516151428,-0.006412956397980452,-0.9826170802116394,0.40531912446022034,-0.275344580411911,0.4736536741256714,29.34813117980957,-8.960915565490723,41.85611343383789,0
371,3710198,-0.01010231301188469,0.03586515784263611,-1.015836238861084,-0.08207973837852478,0.5269817113876343,-0.6792033314704895,31.0101261138916,-11.014537811279297,40.95201873779297,0
372,3719995,0.014287413097918034,-0.03295782208442688,-1.0202564001083374,-0.6687898635864258,0.2718488574028015,-0.47694262862205505,30.060365676879883,-9.056059837341309,40.47823715209961,0
373,3729899,0.03338098153471947,0.0775982141494751,-1.0012189149856567,0.4242642819881439,0.05886828526854515,0.15569446980953217,30.893234252929688,-8.390751838684082,41.4810905456543,0
374,3740102,-0.006865170318633318,0.03322773799300194,-1.0084108114242554,0.0067748865112662315,0.7738483548164368,-1.1913834810256958,29.127742767333984,-10.822793960571289,39.447608947753906,0
375,3749928,-0.1051010712981224,-0.036215703934431076,-0.9869699478149414,-0.28985676169395447,0.4737266004085541,-0.49403131008148193,29.4273681640625,-11.833549499511719,38.62959289550781,0
376,3760181,-0.04648912325501442,-0.029973197728395462,-0.9675517082214355,-0.46691957116127014,0.08970660716295242,0.07492685317993164,30.47747039794922,-8.280800819396973,38.950870513916016,0
377,3770223,-0.0076224664226174355,-0.03135112673044205,-0.9951414465904236,-0.1317341923713684,-0.19330628216266632,-0.7361257672309875,30.379730224609375,-9.81257438659668,37.54899978637695,0
378,3780089,0.022856881842017174,-0.008303691633045673,-1.0104116201400757,-0.3946292996406555,-0.742892861366272,0.13045771420001984,30.348739624023438,-9.409326553344727,39.640113830566406,0
379,3790108,0.013448081910610199,-0.007528308779001236,-0.9857321977615356,0.8593563437461853,0.07733586430549622,0.3379850387573242,28.337175369262695,-9.470402717590332,40.19289779663086,0
380,3799886,0.11157075315713882,0.0129594961181283,-1.003806710243225,0.7929946184158325,0.1297643631696701,-0.42062515020370483,30.61839485168457,-8.521854400634766,41.301570892333984,0
381,3810131,0.03742135688662529,-0.048231735825538635,-0.9619196653366089,-0.1505516618490219,0.5200260877609253,0.6052833199501038,29.81224250793457,-9.142593383789062,38.376956939697266,0
382,3819938,0.012502932921051979,0.033134669065475464,-1.0319883823394775,0.16401048004627228,1.2576854228973389,1.1298565864562988,30.224246978759766,-9.204997062683105,40.861083984375,0
383,3830050,0.02876555360853672,-0.04043034836649895,-0.9788040518760681,0.36416077613830566,0.06339000165462494,-0.6200295090675354,30.453304290771484,-10.557755470275879,39.33554458618164,0
384,3840019,0.041676342487335205,0.03322025388479233,-1.0066471099853516,-0.05739542469382286,-0.8677645921707153,-0.08612560480833054,28.952611923217773,-8.037694931030273,40.56425094604492,0
385,3849987,-0.002387975575402379,0.01591549441218376,-0.9957191944122314,0.2365390509366989,0.5473228693008423,0.33488544821739197,29.78352928161621,-9.502592086791992,39.53775405883789,0
386,3860009,0.08786419034004211,0.034671567380428314,-0.9642515778541565,0.08458871394395828,0.3344452381134033,0.5605765581130981,30.82729148864746,-8.988999366760254,40.608306884765625,0
387,3869918,0.13605166971683502,-0.030050430446863174,-1.0278193950653076,0.06242693215608597,0.22670550644397736,-0.1304258555173874,29.092655181884766,-8.836318016052246,41.490352630615234,0
388,3879693,-0.009213447570800781,-0.049943409860134125,-1.0294378995895386,-0.6843785047531128,0.3377554416656494,-0.4847180247306824,29.953292846679688,-11.2887601852417,39.836280822753906,0
389,3890005,0.047504574060440063,0.036912206560373306,-0.9899923205375671,0.0909484475851059,-0.6019144058227539,0.019444337114691734,30.835777282714844,-9.77109146118164,40.102142333984375,0
390,3899861,-0.09688430279493332,0.0044076587073504925,-1.01656973361969,0.36525964736938477,-0.3916943669319153,0.8688492178916931,29.774791717529297,-9.697552680969238,38.19097900390625,0
391,3909821,0.061113204807043076,-0.022444449365139008,-1.0172600746154785,0.34211838245391846,0.1192794069647789,0.8705407977104187,29.935365676879883,-9.321736335754395,41.41988754272461,0
392,3919968,-0.08962488174438477,-0.015962081030011177,-0.9995869398117065,0.7755577564239502,0.04130683094263077,0.7244043946266174,29.708166122436523,-10.61288833618164,39.714271545410156,0
393,3929972,-0.01625142991542816,-0.07457437366247177,-1.0204205513000488,-0.12439482659101486,0.011624819599092007,-0.8820112943649292,30.639102935791016,-10.027971267700195,40.628047943115234,0
394,3940077,-0.02051917091012001,0.045339640229940414,-0.9918910264968872,-0.16273102164268494,-0.06354879587888718,0.02882901392877102,30.364795684814453,-9.24816608428955,39.074588775634766,0
395,3950129,0.06311727315187454,0.03086990676820278,-0.9949674606323242,0.6723862886428833,0.2516949772834778,-0.11141455173492432,29.82346534729004,-11.644908905029297,39.61027145385742,0
396,3959959,0.05276243016123772,0.015253953635692596,-1.020521640777588,0.06127379089593887,0.08906617760658264,-0.47766149044036865,30.8347110748291,-10.115358352661133,40.4879035949707,0
397,3970218,0.03359876573085785,-0.01803779788315296,-0.9801827073097229,0.5779141187667847,0.5060033202171326,0.8674940466880798,27.396358489990234,-9.473517417907715,39.80035400390625,0
398,3979861,-0.03468173369765282,-0.03066040389239788,-0.985873281955719,0.37940388917922974,0.19885331392288208,0.640462338924408,29.7491397857666,-9.769098281860352,40.142303466796875,0
399,3990102,-0.03669988363981247,0.014549278654158115,-0.9737328886985779,-0.03103616274893284,-0.2324807047843933,0.3598442077636719,29.449115753173828,-11.021561622619629,40.69346618652344,0
400,4000154,0.014967730268836021,0.09333128482103348,-1.0476741790771484,0.7143920660018921,0.26046988368034363,0.5427924394607544,30.64817237854004,-9.887872695922852,40.219337463378906,0
401,4010072,-0.056179728358983994,0.02520814538002014,-0.9545889496803284,-1.3994466066360474,0.09721336513757706,-0.10193303227424622,30.909595489501953,-10.169944763183594,39.33274841308594,0
402,4020043,0.006475858390331268,0.04043592885136604,-1.0024528503417969,-0.6508637070655823,-0.3366333842277527,-0.12393354624509811,29.488767623901367,-10.564388275146484,41.23019027709961,0
403,4030025,-0.06909195333719254,0.019313452765345573,-1.0176925659179688,-0.12477167695760727,0.6300073862075806,0.16096419095993042,29.897947311401367,-9.625280380249023,38.3580207824707,0
404,4039948,0.08075408637523651,0.03821088746190071,-1.015431523323059,0.543623149394989,-0.5745717287063599,0.7825501561164856,31.00548553466797,-10.719152450561523,40.14302444458008,0
405,4049745,0.044563863426446915,-0.15489275753498077,-0.9785701036453247,0.4055255651473999,0.4187708795070648,-0.9943317174911499,30.08063316345215,-9.780686378479004,40.27865982055664,0
406,4059972,-0.028510909527540207,-0.09814294427633286,-1.0063223838806152,-0.13507762551307678,0.15654531121253967,-0.19462177157402039,29.930246353149414,-10.397674560546875,42.25324630737305,0
407,4069959,-0.11194643378257751,-0.028163842856884003,-1.017136812210083,-0.20948532223701477,-1.40623939037323,0.5269978046417236,27.218669891357422,-10.111101150512695,41.21681213378906,0
408,4080123,-0.0013427811209112406,0.017309317365288734,-1.0291179418563843,-0.6478156447410583,0.46239200234413147,-0.297542005777359,30.474733352661133,-10.072210311889648,39.44511795043945,0
409,4089978,0.039444245398044586,0.02753327786922455,-1.010583758354187,0.3841135501861572,-1.1705350875854492,0.2483191192150116,30.976133346557617,-8.673824310302734,40.55732727050781,0
410,4099976,-0.0259651280939579,-0.02664387784898281,-1.0205222368240356,-0.2723076045513153,0.7539533376693726,-0.8925091028213501,31.56417465209961,-8.646807670593262,40.155216217041016,0
411,4110275,0.02610679715871811,-0.00248877820558846,-1.0003917217254639,-0.6632082462310791,-0.7999405264854431,-0.15794877707958221,28.565908432006836,-9.48595142364502,39.651039123535156,0
412,4119772,-0.011376832611858845,0.030039796605706215,-1.0007457733154297,-0.8545161485671997,0.1973826140165329,-0.35676109790802,27.583110809326172,-11.186458587646484,38.776878356933594,0
413,4129958,0.03229793161153793,-0.023182621225714684,-1.0088253021240234,0.44019225239753723,-0.22334270179271698,0.5490431785583496,29.092905044555664,-10.240971565246582,41.81986618041992,0
414,4139952,0.007968354038894176,0.10032926499843597,-0.9796628952026367,0.11242680251598358,0.4224560558795929,-0.2958116829395294,32.264095306396484,-10.460186004638672,40.64120864868164,0
415,4149920,0.025730866938829422,-0.048164501786231995,-1.0142543315887451,0.12595292925834656,0.7692498564720154,1.0417484045028687,29.816064834594727,-10.126544952392578,41.20153045654297,0
416,4160035,-0.046754684299230576,0.017974289134144783,-0.9876027703285217,0.3733929991722107,0.9809662103652954,0.40449845790863037,31.377229690551758,-9.843422889709473,40.44505310058594,0
417,4169653,0.013332377187907696,-0.0026613182853907347,-1.014215350151062,-0.01403055153787136,0.3835521936416626,0.9912698268890381,30.777666091918945,-10.82721996307373,41.051307678222656,0
418,4179849,-0.04134010151028633,0.03679125756025314,-1.0044888257980347,0.07365581393241882,0.19980597496032715,0.913972020149231,30.889554977416992,-9.092026710510254,40.692386627197266,0
419,4189997,-0.04832827299833298,0.03999953344464302,-1.0085760354995728,-0.24849513173103333,-0.5162439346313477,-0.06766032427549362,31.547895431518555,-8.681185722351074,39.92206954956055,0
420,4199644,0.059308264404535294,-0.022947324439883232,-0.9944522976875305,-0.27763521671295166,-0.5878580808639526,0.7468281388282776,28.998929977416992,-10.268543243408203,39.26332473754883,0
421,4210180,-0.03290029615163803,-0.0458698570728302,-0.9761292934417725,0.057414885610342026,1.0134985446929932,-0.3713884949684143,29.920726776123047,-8.665352821350098,39.856971740722656,0
422,4220110,-0.07525623589754105,0.057474326342344284,-1.003213882446289,-0.6368808746337891,-0.6571255326271057,0.25178152322769165,28.325559616088867,-9.688286781311035,40.662601470947266,0
423,4230186,-0.009992916136980057,0.13498112559318542,-0.9924445152282715,0.5673316121101379,0.14598654210567474,-0.7535441517829895,31.05093765258789,-9.031153678894043,37.94743728637695,0
424,4239876,0.03239279240369797,0.04555491358041763,-0.9841448068618774,0.002308292081579566,0.861211359500885,-0.027795132249593735,30.90323257446289,-10.864644050598145,39.93375778198242,0
425,4250190,0.01352634746581316,-0.05070129781961441,-0.9894882440567017,0.6313070058822632,-0.5864580869674683,0.5210257768630981,28.950532913208008,-12.159457206726074,41.196468353271484,0
426,4259673,0.06318680197000504,0.020255044102668762,-1.0235956907272339,0.049869224429130554,0.4434257745742798,-0.5602625608444214,32.50236511230469,-9.23968505859375,40.76304626464844,0
427,4270163,-0.0810151919722557,0.03742601349949837,-1.0036545991897583,-0.35225972533226013,0.768172025680542,0.4071698486804962,30.096534729003906,-9.172611236572266,40.31401062011719,0
428,4279772,0.0279929768294096,-0.043015316128730774,-0.9919351935386658,0.8392612934112549,-0.7067562937736511,-0.5855003595352173,31.031030654907227,-9.19705581665039,39.39155960083008,0
429,4289894,0.027990760281682014,-0.038186199963092804,-0.9885140657424927,-0.3112647235393524,-0.06435917317867279,0.49066653847694397,30.2034854888916,-8.809996604919434,39.956886291503906,0
430,4300236,-0.03784600645303726,0.048110030591487885,-1.017798900604248,0.5818553566932678,0.09385034441947937,-0.37279459834098816,30.708049774169922,-8.499958992004395,39.17197799682617,0
431,4310094,-0.014003798365592957,-0.07263431698083878,-1.017669439315796,-0.6551415324211121,0.11955206841230392,-0.3176332712173462,29.378768920898438,-10.557890892028809,40.78700637817383,0
432,4320076,0.029090898111462593,0.06120195984840393,-0.9920437932014465,-0.24419386684894562,-1.252028226852417,0.40344348549842834,29.53547477722168,-10.409356117248535,39.46242904663086,0
433,4329982,0.002648669760674238,0.06314139068126678,-1.0094265937805176,-0.3336804211139679,-0.086611308157444,-0.26214924454689026,29.53374671936035,-8.074731826782227,39.098304748535156,0
434,4340256,0.0030233953148126602,-0.05137823894619942,-0.996778130531311,-0.5722333192825317,0.13277976214885712,-0.674451470375061,30.40596580505371,-10.813653945922852,40.7194938659668,0
435,4349935,0.010665697045624256,-0.052319642156362534,-0.9715553522109985,0.046791113913059235,-0.0290511567145586,-0.14733846485614777,32.0417366027832,-10.71757984161377,41.10232162475586,0
436,4359856,-0.005274711176753044,0.005528225563466549,-0.9801676869392395,0.502837598323822,0.6164805293083191,-0.005288254469633102,29.22134780883789,-8.72376823425293,40.43131637573242,0
437,4370062,-0.056297291070222855,0.0670129582285881,-1.0195939540863037,-0.10814763605594635,0.48682746291160583,0.019041981548070908,28.423986434936523,-8.155037879943848,40.26239013671875,0
438,4379801,-0.028335221111774445,0.04026519134640694,-1.014875888824463,-0.4027869701385498,-0.3592212200164795,-0.9384127259254456,32.679405212402344,-8.553028106689453,39.19509506225586,0
439,4389994,-0.05190189182758331,0.039836328476667404,-1.0135127305984497,-0.7871311902999878,-0.8903619050979614,-0.5572859048843384,30.9938907623291,-11.342126846313477,39.550575256347656,0
440,4399748,0.09458771347999573,-0.03389308601617813,-0.9908259510993958,-0.37435710430145264,0.49631983041763306,0.23181836307048798,28.64861488342285,-9.51629638671875,38.75005340576172,0
441,4410108,-0.0077176704071462154,0.05496571213006973,-1.0256736278533936,-0.5133849382400513,0.09137997776269913,-0.7822240591049194,29.714372634887695,-11.099234580993652,39.88401794433594,0
442,4420109,0.023846309632062912,-0.025359680876135826,-0.9870279431343079,0.3834046423435211,-0.18733704090118408,0.4980786442756653,31.041471481323242,-10.785065650939941,37.820335388183594,0
443,4430110,0.09414664655923843,-0.0003915371489711106,-1.0111453533172607,-0.388336181640625,-0.7303379774093628,0.1563464254140854,29.37908363342285,-10.848155975341797,39.10649108886719,0
444,4440227,0.03978695347905159,0.01845349557697773,-1.027260661125183,0.6409724354743958,-0.4390130043029785,-0.319689005613327,30.613475799560547,-11.125066757202148,39.18362808227539,0
445,4449746,-0.03663427382707596,0.03226526826620102,-1.026282548904419,-0.15706387162208557,-0.09325733780860901,0.26681384444236755,29.964853286743164,-10.548096656799316,39.78349685668945,0
446,4460372,0.000978843541815877,-0.025465650483965874,-1.0298656225204468,-0.4734936058521271,-0.08288516104221344,-0.8596707582473755,27.824317932128906,-8.851968765258789,41.204010009765625,0
447,4469985,-0.0019752124790102243,-0.034386612474918365,-1.021474003791809,-0.15490412712097168,0.06714296340942383,-0.257662296295166,29.68115997314453,-10.240575790405273,42.377017974853516,0
448,4480226,0.05476094409823418,-0.0722588300704956,-1.0306750535964966,-0.21671843528747559,-0.5960345268249512,0.11952871829271317,27.686307907104492,-7.588883399963379,39.75367736816406,0
449,4489983,0.052925970405340195,0.01041738037019968,-0.975967526435852,-0.5335761308670044,0.5675429701805115,0.14164325594902039,29.164112091064453,-10.787126541137695,40.44662857055664,0
450,4500177,-0.08680344372987747,-0.03142908215522766,-1.002264380455017,0.011815447360277176,-0.3584812581539154,0.2931702435016632,29.163049697875977,-11.375276565551758,39.2672119140625,0
451,4510100,-0.04860159009695053,-0.04860977828502655,-0.9839781522750854,0.3070908486843109,-0.16412262618541718,-0.2825842797756195,30.98826789855957,-10.936834335327148,40.51387405395508,0
452,4520064,0.03034893050789833,-0.05765194818377495,-0.9870840311050415,0.5665588974952698,-0.653972864151001,-0.32841551303863525,31.44455337524414,-8.949175834655762,39.279212951660156,0
453,4530134,-0.013979771174490452,-0.05030975490808487,-0.9992121458053589,-0.933857262134552,0.4004281461238861,0.2817447781562805,29.42721939086914,-9.418540000915527,40.331180572509766,0
454,4539817,0.03322283551096916,0.031107429414987564,-1.0257518291473389,0.8040823936462402,-0.4914628863334656,0.12871041893959045,28.72452735900879,-8.136645317077637,41.05009078979492,0
455,4549948,0.027679327875375748,-0.03951362147927284,-1.0145506858825684,-0.6492735743522644,0.5886741876602173,-0.2678343653678894,30.548688888549805,-11.382709503173828,39.17976379394531,0
456,4560051,-0.026634415611624718,0.04731924086809158,-1.0072619915008545,0.5818073153495789,-0.5535616278648376,-0.06517932564020157,28.752792358398438,-9.92070484161377,39.923423767089844,0
457,4569879,0.056787312030792236,-0.04565073549747467,-1.0231162309646606,0.11723144352436066,-0.8041377663612366,-0.673429548740387,30.638172149658203,-9.313810348510742,39.81003952026367,0
458,4580122,-0.06529655307531357,-0.07870796322822571,-0.9904992580413818,0.6585803031921387,0.3730247914791107,-1.0864628553390503,30.84356117248535,-8.436742782592773,40.62239456176758,0
459,4589853,0.005974863655865192,-0.011934936046600342,-1.0251057147979736,0.02949078381061554,-0.7811096906661987,0.3608907163143158,30.95510482788086,-10.33928108215332,41.67241287231445,0
460,4600011,0.10337965190410614,-0.007265214342623949,-0.9638473987579346,0.2936669588088989,-0.6943210959434509,0.5708025693893433,28.74569320678711,-10.332663536071777,41.306636810302734,0
461,4610101,0.050815679132938385,-0.0023082501720637083,-0.9583572149276733,0.3903295397758484,0.0874486044049263,-0.1307784914970398,31.024681091308594,-9.57066822052002,40.30134582519531,0
462,4620132,-0.014634846709668636,-0.056821100413799286,-1.027909755706787,0.18252921104431152,-0.5532024502754211,0.4333382248878479,28.644155502319336,-10.0249662399292,38.42869567871094,0
463,4630172,0.007479995023459196,0.07769818603992462,-0.9912201762199402,0.9347386360168457,0.05398419871926308,-0.18629781901836395,30.463539123535156,-11.074721336364746,40.20961380004883,0
464,4640001,0.07400695979595184,-0.08442103117704391,-1.0005561113357544,0.04685099050402641,1.0223239660263062,0.7585693001747131,29.706933975219727,-8.520572662353516,41.224971771240234,0
465,4649949,-0.02210676297545433,-0.029095403850078583,-0.99825519323349,0.32735440135002136,0.7078368663787842,-0.00987184140831232,30.671348571777344,-10.362873077392578,40.190860748291016,0
466,4660304,0.006127944216132164,-0.007447068579494953,-1.0008021593093872,0.345660537481308,0.014965000562369823,-0.5108761191368103,30.652530670166016,-8.408801078796387,39.23798751831055,0
467,4669794,-0.07396659255027771,0.026466868817806244,-0.9931948184967041,-0.0145880077034235,-0.06401167064905167,0.11089260876178741,29.602447509765625,-8.865104675292969,41.95722961425781,0
468,4680049,0.07829855382442474,0.004079063422977924,-1.0086901187896729,0.09701061248779297,1.4261209964752197,-0.03745809942483902,30.314830780029297,-9.104848861694336,39.61947250366211,0
469,4689886,0.010597370564937592,-0.02331406995654106,-1.0120664834976196,0.04244627803564072,-0.5965085625648499,0.08816651254892349,29.595291137695312,-10.51680850982666,40.42089080810547,0
470,4699900,-0.03953913599252701,0.04383038729429245,-1.038306713104248,0.5284326076507568,0.24223831295967102,-0.03860088065266609,28.892805099487305,-10.619895935058594,38.33563232421875,0
471,4710000,0.0021868606563657522,-0.017480721697211266,-0.9848440885543823,-0.024145763367414474,-0.49782660603523254,-0.7223029136657715,30.0052490234375,-9.621888160705566,40.42826461791992,0
472,4719923,-0.06307511776685715,-0.06012995168566704,-1.0126514434814453,-0.28597769141197205,-0.2528039813041687,-0.33550095558166504,30.566123962402344,-9.746955871582031,39.67314910888672,0
473,4730040,-0.03815349563956261,-0.030726607888936996,-1.0281875133514404,0.00702959019690752,-0.26290714740753174,-0.2268347591161728,32.07444381713867,-9.944546699523926,39.344058990478516,0
474,4740142,0.007570129353553057,0.017012936994433403,-0.983883798122406,-0.7570217251777649,-0.30857086181640625,-0.8686829805374146,29.36623191833496,-10.507309913635254,39.64012908935547,0
475,4749989,-0.04355806112289429,0.017539946362376213,-1.0010517835617065,-0.10119950026273727,0.30745503306388855,0.34186023473739624,28.771650314331055,-10.93587875366211,39.84773254394531,0
476,4759734,0.11433032900094986,0.010358227416872978,-0.9960790872573853,-0.41641855239868164,-0.3126472532749176,-0.7204297780990601,30.759550094604492,-11.727092742919922,41.19015884399414,0
477,4769993,0.050572410225868225,0.059849273413419724,-1.009116768836975,-0.9346545338630676,-0.3074394762516022,-0.8459292054176331,30.06262969970703,-10.601947784423828,40.164222717285156,0
478,4779937,-0.05214766412973404,0.06238391622900963,-0.9743282198905945,0.4866091012954712,-0.48406219482421875,0.8814123868942261,31.619762420654297,-10.890828132629395,41.8008918762207,0
479,4789960,0.041117481887340546,0.03731996938586235,-0.9993302822113037,-0.32521894574165344,-0.361854612827301,-0.13402776420116425,27.749492645263672,-9.306355476379395,40.23506164550781,0
480,4799919,0.02983376570045948,0.0750296413898468,-1.0067400932312012,0.030004216358065605,-0.6691502928733826,0.7023143172264099,31.045604705810547,-12.496723175048828,37.436683654785156,0
481,4810357,-0.015783511102199554,0.055077116936445236,-1.0092566013336182,0.24253936111927032,0.212643101811409,1.0044074058532715,30.46604347229004,-10.922110557556152,38.400699615478516,0
482,4820126,-0.04518492892384529,-0.07166720181703568,-1.0014598369598389,0.3427691161632538,0.3768123388290405,-0.7085440754890442,28.7437801361084,-10.021355628967285,40.863033294677734,0
483,4829978,-0.047773778438568115,0.020339200273156166,-0.9887421131134033,-0.28673815727233887,-0.2239157259464264,-0.09234993904829025,30.07761001586914,-9.129158973693848,37.983028411865234,0
484,4840176,-0.0038074690382927656,-0.04015286639332771,-0.9921005964279175,-1.1215447187423706,-0.27434495091438293,-0.24767476320266724,30.25676918029785,-10.579980850219727,39.99885559082031,0
485,4849889,0.04703810065984726,-0.09195626527070999,-1.0141584873199463,0.08921513706445694,0.26804155111312866,0.2226308137178421,28.78047752380371,-8.373978614807129,39.04255676269531,0
486,4859853,-0.08830192685127258,0.1078338623046875,-0.9620068073272705,0.325046181678772,0.02772219479084015,0.006473856512457132,30.035240173339844,-9.287762641906738,39.7886962890625,0
487,4869974,-0.10323846340179443,-0.047741495072841644,-0.9776426553726196,-0.08648733794689178,-0.4487588107585907,-1.2092304229736328,30.970317840576172,-10.39047908782959,39.40910720825195,0
488,4879857,-0.08261749893426895,0.021242082118988037,-1.0119478702545166,-0.7138991355895996,-0.1357041299343109,0.1167856827378273,29.145721435546875,-9.939141273498535,39.85833740234375,0
489,4889919,-0.0043596611358225346,-0.06794043630361557,-0.9947964549064636,0.08130832016468048,-0.2895151376724243,0.5614035129547119,30.912641525268555,-10.00798225402832,38.48515701293945,0
490,4900330,0.09706732630729675,0.055137958377599716,-1.0207985639572144,-0.05665313079953194,-0.11836032569408417,-0.7048187255859375,29.943674087524414,-8.787805557250977,40.98446273803711,0
491,4910094,0.013581247068941593,-0.07999136298894882,-1.0112755298614502,-0.07545237243175507,0.5841057300567627,0.11084508895874023,28.106470108032227,-9.257360458374023,39.53961181640625,0
492,4920023,0.04070824012160301,-0.031141631305217743,-0.9973772764205933,-0.32671090960502625,-0.45828455686569214,-0.12003464996814728,30.251916885375977,-12.419113159179688,40.18779754638672,0
493,4930026,-0.0007776326383464038,-0.03791801631450653,-0.9995032548904419,1.1895276308059692,-0.048490483313798904,-0.49978020787239075,30.356369018554688,-11.061521530151367,39.28464126586914,0
494,4939952,0.050331585109233856,0.07982197403907776,-1.0128180980682373,0.5151227712631226,-0.010752116329967976,0.26505932211875916,28.9815616607666,-9.76436710357666,40.031982421875,0
495,4950194,-0.02968301996588707,0.012615722604095936,-1.0345439910888672,0.5023180246353149,-0.17678318917751312,-0.6467833518981934,29.40007209777832,-9.50779914855957,39.35525894165039,0
496,4960107,0.03586829826235771,-0.05369550362229347,-0.9849013090133667,-0.3395750820636749,0.7462337017059326,0.19077777862548828,29.327451705932617,-7.861206531524658,39.09921646118164,0
497,4969686,-0.054239869117736816,-0.16832326352596283,-1.0101735591888428,-0.3479286730289459,0.6031052470207214,-0.6850919723510742,29.03425407409668,-9.33095645904541,39.69448471069336,0
498,4979944,-0.028423015028238297,0.057482291013002396,-1.0074344873428345,0.1392606645822525,-0.18387997150421143,0.985751211643219,28.2303524017334,-9.162979125976562,38.98727798461914,0
499,4989890,0.06100784242153168,-0.015219271183013916,-1.0064246654510498,-0.28338029980659485,-0.14263591170310974,0.9150615334510803,30.888643264770508,-8.521306991577148,39.789794921875,0
500,4999837,-0.013721889816224575,0.03891430050134659,-0.9751039743423462,0.08423332870006561,0.23280872404575348,0.33539915084838867,29.8520450592041,-10.630724906921387,39.87977981567383,0
501,5009996,-0.03845064342021942,0.0167232658714056,-0.9407614469528198,0.6259863972663879,-0.4036201238632202,0.46009594202041626,30.081682205200195,-11.76303768157959,41.03009796142578,0
502,5020360,0.07810984551906586,-0.03666631504893303,-0.9719225764274597,-0.8082784414291382,-0.1614312082529068,0.7115693092346191,30.973661422729492,-8.272659301757812,40.426727294921875,0
503,5029881,0.06324904412031174,0.04547811672091484,-1.0028176307678223,-0.8897948265075684,0.4817470610141754,-0.14393389225006104,31.080074310302734,-9.805450439453125,41.738155364990234,0
504,5039961,-0.07270937412977219,-0.05327571555972099,-0.9910655617713928,-0.014776154421269894,-0.7362838983535767,-0.41506239771842957,28.654460906982422,-8.897662162780762,39.51975631713867,0
505,5050049,-0.027048425748944283,0.10806755721569061,-1.012428879737854,0.9400426745414734,0.1787450760602951,-0.21414655447006226,29.109201431274414,-9.336811065673828,37.53582763671875,0
506,5060189,-0.01017227303236723,-0.04852376505732536,-0.9944882392883301,-0.1326754093170166,0.020361756905913353,0.013087891042232513,30.44924545288086,-10.50979232788086,40.753662109375,0
507,5069777,0.0631275475025177,-0.03453183174133301,-0.9928837418556213,0.9902523756027222,0.6288870573043823,0.5383613705635071,30.252559661865234,-9.344974517822266,39.5319938659668,0
508,5080038,-0.04446127265691757,-0.08977895230054855,-1.0289946794509888,-0.9679340720176697,0.05033859610557556,1.0559484958648682,28.58213996887207,-10.290326118469238,41.18501663208008,0
509,5090259,-0.028250841423869133,0.0926223173737526,-0.9975828528404236,0.44578295946121216,-0.31765520572662354,0.9952689409255981,31.6124267578125,-8.162309646606445,40.10689926147461,0
510,5099895,-0.022363396361470222,-0.0217897929251194,-1.0398094654083252,-0.46605825424194336,0.22652487456798553,0.7297009825706482,29.578767776489258,-10.305208206176758,39.2789306640625,0
511,5110094,-0.06210256367921829,0.01219994854182005,-0.9947367906570435,0.07790017127990723,-1.7450101375579834,-0.1058277040719986,31.209854125976562,-8.483478546142578,41.93674850463867,0
512,5119955,-0.009920579381287098,0.040041081607341766,-0.9836694002151489,-0.2029026597738266,0.28962138295173645,-1.1449315547943115,31.139583587646484,-9.360270500183105,39.876712799072266,0
513,5130156,0.06678786873817444,-0.024348115548491478,-0.9837775826454163,-0.5035262703895569,0.2471250593662262,0.6603263020515442,29.677021026611328,-10.123444557189941,39.774723052978516,0
514,5139884,0.052388474345207214,0.04460751637816429,-0.9939518570899963,0.9494587182998657,0.5214088559150696,0.1469101905822754,29.40536880493164,-12.446723937988281,39.98815155029297,0
515,5149785,-0.15357951819896698,0.09078540652990341,-1.0218534469604492,-0.994388222694397,0.14396223425865173,0.37834852933883667,30.265981674194336,-9.759450912475586,40.29069137573242,0
516,5160183,-0.09044545888900757,0.06380074471235275,-0.9854205846786499,-0.14359943568706512,0.05231662839651108,-0.17841272056102753,29.689144134521484,-11.612849235534668,39.61504364013672,0
517,5170016,0.0491301566362381,0.059718430042266846,-0.9750726819038391,0.4809463620185852,0.8960851430892944,-1.0260132551193237,29.749250411987305,-10.819036483764648,40.51813507080078,0
518,5180146,0.003224706742912531,0.013190502300858498,-1.0245717763900757,0.4262702763080597,0.3155110478401184,-0.12318353354930878,29.659717559814453,-11.52983570098877,39.86030960083008,0
519,5189880,0.033928729593753815,-0.03759725019335747,-0.9568428993225098,-0.1467914581298828,0.3382737338542938,1.1457335948944092,29.50138282775879,-10.20718002319336,40.46145248413086,0
520,5199794,0.01914781518280506,0.04025856405496597,-0.9811724424362183,0.08742405474185944,0.08520540595054626,-0.32222703099250793,29.50452423095703,-10.299936294555664,39.17247772216797,0
521,5209771,-0.051732245832681656,-0.04878242313861847,-0.9971645474433899,-1.442932367324829,0.7258768081665039,-0.8168946504592896,31.685152053833008,-10.78409481048584,40.5716438293457,0
522,5220021,0.04012760519981384,-0.04414188489317894,-0.970849335193634,0.3306420147418976,-0.05994672328233719,0.37397515773773193,28.75540542602539,-10.308374404907227,40.82673645019531,0
523,5229911,-0.04673886299133301,-0.04004966840147972,-0.9686387181282043,-0.8052123188972473,0.21147730946540833,0.4987935423851013,29.857114791870117,-10.865388870239258,39.22688293457031,0
524,5239990,-0.023644810542464256,-0.07335057854652405,-0.9901050925254822,-0.4830734431743622,0.7290307879447937,0.03792153298854828,31.524198532104492,-9.733720779418945,38.96641159057617,0
525,5250093,-0.0045787859708070755,0.016468515619635582,-0.9650195240974426,0.056396350264549255,0.280599981546402,0.712899923324585,31.42973518371582,-9.73278522491455,38.502601623535156,0
526,5259868,-0.0706811398267746,-0.015384477563202381,-0.99123215675354,-0.49243608117103577,0.33835265040397644,-0.22351065278053284,29.637428283691406,-10.88182544708252,42.867557525634766,0
527,5270141,0.017643366008996964,-0.0068796733394265175,-0.9869211316108704,0.3939981162548065,-0.1523718237876892,-0.22737064957618713,27.31036949157715,-8.61085033416748,41.378639221191406,0
528,5279892,-0.06374623626470566,0.002258825348690152,-1.018473744392395,-0.5321057438850403,0.31895673274993896,0.21099750697612762,28.86138343811035,-9.837909698486328,39.645084381103516,0
529,5290104,-0.00477599585428834,-0.018566379323601723,-1.0190666913986206,-0.5929074287414551,0.7734664678573608,0.5253276228904724,29.953147888183594,-8.818687438964844,39.023231506347656,0
530,5300046,0.05574474856257439,-0.007061237469315529,-1.0075607299804688,-0.6227033138275146,-0.4848448932170868,-0.31350353360176086,30.905860900878906,-11.252171516418457,40.150047302246094,0
531,5309955,0.07536403089761734,0.06515611708164215,-0.9890984892845154,-0.6932411789894104,0.05770953744649887,0.16928622126579285,30.36237907409668,-9.235812187194824,39.87166976928711,0
532,5320265,0.03310149908065796,0.036309223622083664,-1.0315523147583008,-0.039088089019060135,0.012278738431632519,-0.06268351525068283,29.228010177612305,-10.65875244140625,39.99435806274414,0
533,5329977,0.028499288484454155,-0.06403633952140808,-0.9907971620559692,-0.5554500818252563,0.1941741555929184,0.5738272070884705,30.13748550415039,-11.716938972473145,40.345157623291016,0
534,5340002,0.06631828844547272,0.029020238667726517,-0.9805207252502441,-0.4360252618789673,0.24978910386562347,-0.37742310762405396,29.471240997314453,-11.928046226501465,40.09503173828125,0
535,5350012,-0.020689478144049644,0.0038322799373418093,-0.9982700347900391,0.06732573360204697,-0.005629782564938068,-0.2305101454257965,29.150741577148438,-9.504352569580078,39.27726364135742,0
536,5359886,-0.02509564720094204,-0.0526985339820385,-1.0004284381866455,-0.02418404631316662,0.07073687016963959,0.19026800990104675,29.09532928466797,-8.682459831237793,38.79709243774414,0
537,5369953,-0.12396866083145142,-0.0362052358686924,-1.0036025047302246,0.5071946978569031,-0.28781312704086304,0.32478389143943787,30.355634689331055,-8.65786075592041,40.23902130126953,0
538,5379735,-0.0443594865500927,-0.02515527419745922,-1.0385490655899048,-0.3479270040988922,0.3276931941509247,-0.16054345667362213,30.33907699584961,-10.56442642211914,39.963600158691406,0
539,5390144,-0.007651843596249819,0.07987756282091141,-1.008502721786499,0.3004595935344696,-0.09460712969303131,-0.45598724484443665,29.568836212158203,-8.50255012512207,38.68862533569336,0
540,5400046,0.021003926172852516,0.022917035967111588,-1.0375914573669434,-0.2791520953178406,0.3738192319869995,-0.31270885467529297,30.772125244140625,-9.871310234069824,40.127410888671875,0
541,5410031,-0.0853179395198822,-0.0007721636211499572,-0.9829338192939758,-0.07013805210590363,0.4655085504055023,-0.07917337119579315,28.86444854736328,-9.900503158569336,40.04594802856445,0
542,5420107,0.041895683854818344,-0.003990440163761377,-1.0145957469940186,-0.25685590505599976,0.1601504385471344,0.132999986410141,30.6051082611084,-8.773820877075195,39.45622634887695,0
543,5430103,-0.061357282102108,0.020245376974344254,-0.9949231147766113,0.023076456040143967,0.41137099266052246,0.433571457862854,31.0629940032959,-9.886411666870117,39.15093994140625,0
544,5439691,-0.13019618391990662,0.04603063315153122,-1.0147143602371216,0.17413568496704102,0.5032418966293335,-0.2160092294216156,29.075790405273438,-9.41373062133789,39.81675720214844,0
545,5449961,0.031211454421281815,0.016177263110876083,-0.9960067272186279,0.4924238324165344,-0.383197546005249,-0.48517587780952454,29.991077423095703,-11.12942123413086,40.462249755859375,0
546,5460041,0.020662890747189522,-0.03804303705692291,-0.9980944395065308,-1.0379165410995483,0.01721358671784401,-0.03361436724662781,30.54597282409668,-11.621505737304688,40.8696174621582,0
547,5469949,0.05871088057756424,0.05737562105059624,-1.0101932287216187,0.545802891254425,-0.34952008724212646,0.5282921195030212,30.619298934936523,-11.795904159545898,39.6566047668457,0
548,5480139,0.012106631882488728,0.018683873116970062,-1.0354301929473877,0.4442380368709564,0.4630569815635681,-0.2267329841852188,30.31584930419922,-10.477822303771973,39.84488296508789,0
549,5490252,0.029028430581092834,-0.06503788381814957,-1.0126802921295166,-0.3828772008419037,0.7143068313598633,0.5759857892990112,29.211362838745117,-9.863357543945312,39.574676513671875,0
