seq,time_us,ax,ay,az,gx,gy,gz,mx,my,mz,drop_flag
0,2,0.07098599523305893,0.024254685267806053,-0.991696834564209,-0.1903749257326126,-0.6512854099273682,0.23658277094364166,31.266443252563477,-10.344673156738281,38.36573028564453,0
1,10085,0.02312692068517208,-0.05563408136367798,-1.0160022974014282,0.684833288192749,-0.49952125549316406,0.2241632044315338,29.918350219726562,-7.82086181640625,40.15321350097656,0
2,19995,0.0806102529168129,0.11392021179199219,-1.0191371440887451,-0.06660586595535278,0.6039736866950989,-0.2583233118057251,29.59539794921875,-11.009411811828613,38.07225799560547,0
3,30067,-0.031507689505815506,0.08673767745494843,-1.0127289295196533,0.5899035334587097,-0.6150321364402771,0.07964503020048141,29.48805046081543,-8.81914234161377,42.06654739379883,0
4,40290,0.047878507524728775,0.0025806950870901346,-0.9874308705329895,0.0688667893409729,0.015874557197093964,1.1071562767028809,31.33474349975586,-8.144800186157227,40.0115966796875,0
5,49964,0.026260538026690483,0.042877424508333206,-0.9889850616455078,-0.5297088027000427,-0.03139416500926018,-0.8218031525611877,30.031394958496094,-8.965063095092773,39.472782135009766,0
6,59740,0.10958772897720337,0.1308794915676117,-0.9686053991317749,-0.3145102560520172,-0.26012203097343445,-1.2037228345870972,29.172576904296875,-11.35853099822998,39.680137634277344,0
7,69666,-0.025872426107525826,0.015621439553797245,-1.006431221961975,-0.07740271091461182,-0.36928045749664307,0.3263498842716217,30.035511016845703,-9.345860481262207,39.58161926269531,0
8,80191,-0.032113492488861084,0.015045631676912308,-1.0222113132476807,1.1040936708450317,1.3057976961135864,0.31018880009651184,29.656982421875,-9.867213249206543,40.520103454589844,0
9,89977,0.0964328944683075,0.013190297409892082,-0.9689273834228516,-0.5300423502922058,-0.7600718140602112,-0.021813876926898956,30.23436737060547,-9.46617317199707,41.416072845458984,0
10,99878,-0.0755792111158371,0.046603791415691376,-0.9889300465583801,-0.5544149279594421,-1.2011322975158691,-1.3067702054977417,29.82537269592285,-9.67801284790039,40.541603088378906,0
11,109993,0.06610395759344101,-0.08634412288665771,-0.98300701379776,0.01691613532602787,0.6867671608924866,-0.1643027663230896,30.807941436767578,-9.62070369720459,40.32370376586914,0
12,120115,0.023798102512955666,-0.041906531900167465,-0.9775038361549377,-0.5728489756584167,-0.36801621317863464,0.9746009111404419,29.200450897216797,-8.934548377990723,39.24562454223633,0
13,130065,-0.002397307427600026,0.034884609282016754,-1.014154314994812,0.13796856999397278,0.4164718985557556,-0.22574052214622498,31.313180923461914,-8.98978042602539,40.83745574951172,0
14,140164,0.15290042757987976,0.015758566558361053,-1.002678394317627,-0.2262406051158905,0.17971916496753693,-0.8607112765312195,29.022361755371094,-9.83614444732666,40.49203872680664,0
15,150158,-0.018557215109467506,0.03303452208638191,-1.0190366506576538,-0.29784566164016724,-0.7667961120605469,-0.07442799210548401,31.3323974609375,-9.763840675354004,38.53857421875,0
16,159844,-0.05970349162817001,0.016429921612143517,-1.0250482559204102,0.006149327848106623,-0.19435754418373108,-0.3322867453098297,30.019071578979492,-9.861296653747559,40.27784729003906,0
17,170156,-0.0629805475473404,0.027687449008226395,-0.9881741404533386,-0.14394980669021606,-0.4962299168109894,0.3339146077632904,28.649124145507812,-8.79337215423584,40.7025260925293,0
18,180012,-0.012531233951449394,0.03764389455318451,-0.9859949946403503,0.1301436722278595,-0.8958934545516968,-0.02113325521349907,29.071603775024414,-9.608039855957031,39.19182586669922,0
19,189945,-0.012208079919219017,-0.014481404796242714,-1.0192675590515137,-0.6993238925933838,-0.0803389623761177,-0.13752107322216034,30.198562622070312,-9.352592468261719,41.05881118774414,0
20,199872,0.057692185044288635,-0.04374973103404045,-1.01956307888031,-0.0035798433236777782,0.8066045641899109,-0.761847972869873,31.905729293823242,-6.978856563568115,41.67143630981445,0
21,209945,0.05909648537635803,-0.018392493948340416,-1.0090702772140503,-0.6720775961875916,-0.5858217477798462,0.2332487553358078,29.62901496887207,-8.741744995117188,40.12114334106445,0
22,220134,-0.04506487026810646,-0.0015185632510110736,-0.9709864258766174,0.20551854372024536,-0.09329351782798767,-0.03029167465865612,31.270063400268555,-9.262636184692383,39.955322265625,0
23,229969,-0.05461132898926735,0.033526889979839325,-1.000427007675171,0.6274070739746094,-0.17954689264297485,0.20014294981956482,30.938011169433594,-9.15791130065918,40.77396011352539,0
24,240376,-0.028552737087011337,-0.02175542339682579,-0.9950240850448608,-0.5680471062660217,0.8443694710731506,0.03661859408020973,30.96416473388672,-11.315813064575195,40.460269927978516,0
25,249998,0.0034495831932872534,-0.015624909661710262,-1.0225480794906616,-0.9452683925628662,0.5359814763069153,0.5119657516479492,29.744108200073242,-9.882522583007812,39.41952896118164,0
26,260121,0.06255067139863968,-0.0005687690572813153,-0.9718250632286072,0.09764206409454346,0.5138667821884155,-0.2287716269493103,30.940732955932617,-10.48675537109375,39.42273712158203,0
27,270051,-0.12574642896652222,0.0361134335398674,-0.9944373369216919,0.8126217722892761,0.28286612033843994,0.3272150754928589,30.904739379882812,-11.93735408782959,41.535003662109375,0
28,279721,-0.028625275939702988,-0.010590090416371822,-0.9927964806556702,-0.088435098528862,0.39150476455688477,0.022355545312166214,29.78313636779785,-10.09997844696045,38.08583068847656,0
29,290044,0.05245843529701233,-0.008289843797683716,-1.003238558769226,-0.10266779363155365,0.08935704827308655,0.33016425371170044,32.42605972290039,-10.224281311035156,41.805259704589844,0
30,300270,0.008851936087012291,-0.0604032427072525,-0.9920542240142822,-0.07234436273574829,0.9630628824234009,-0.29436779022216797,27.691532135009766,-9.722529411315918,41.2763671875,0
31,310343,-0.08112318068742752,0.004138445947319269,-1.0101417303085327,0.5013464689254761,0.018806718289852142,-1.0805543661117554,31.36160659790039,-9.913919448852539,39.84387969970703,0
32,320085,0.001448282040655613,-0.10597271472215652,-1.0063176155090332,0.33198508620262146,-0.36717838048934937,-0.7647833228111267,32.119720458984375,-9.943434715270996,41.68517303466797,0
33,329840,0.10621818900108337,-0.05889181047677994,-1.0156209468841553,0.5714190006256104,-0.4447837471961975,0.038089726120233536,30.40668487548828,-10.719667434692383,39.26652145385742,0
34,340000,0.03758005425333977,-0.03227847069501877,-1.0272668600082397,0.6394906044006348,-0.475807249546051,-0.5352072715759277,30.84874725341797,-11.028182983398438,38.885982513427734,0
35,350138,0.06863198429346085,-0.03897002339363098,-1.0251777172088623,0.029793357476592064,-0.4382057785987854,-0.9456821084022522,29.965370178222656,-9.473408699035645,38.422210693359375,0
36,359915,0.08197247982025146,-0.0072948504239320755,-1.0048123598098755,0.12374959141016006,0.3689890205860138,0.02159261517226696,29.376914978027344,-11.610986709594727,39.90630340576172,0
37,369790,-0.03828305006027222,0.0032532704062759876,-0.9901869297027588,0.8550456762313843,0.033842552453279495,-0.7033742666244507,29.090307235717773,-10.188355445861816,40.50623321533203,0
38,380005,-0.011229150928556919,-0.03185843303799629,-1.0281202793121338,-0.18957024812698364,-0.1526087075471878,0.027525892481207848,31.676971435546875,-9.835970878601074,38.709228515625,0
39,389897,0.05997922271490097,-0.04624926671385765,-1.0496853590011597,0.9676740169525146,0.4355161190032959,-0.16314437985420227,30.44943618774414,-8.760889053344727,38.901737213134766,0
40,399929,0.0011558538535609841,-0.01205502450466156,-1.0059524774551392,-0.5337420105934143,-0.060538530349731445,-0.37531864643096924,31.04997444152832,-10.861870765686035,38.52153778076172,0
41,410070,-0.08023656159639359,-0.045138850808143616,-1.0059200525283813,0.5463833212852478,0.16874225437641144,0.13913622498512268,28.913755416870117,-8.979702949523926,40.61872100830078,0
42,420035,-0.03436485305428505,-0.0672336295247078,-0.9763845801353455,0.42407381534576416,-0.8929086327552795,-0.29769250750541687,28.29383659362793,-9.052291870117188,39.09904479980469,0
43,429938,0.009619243443012238,0.1170433983206749,-1.0432286262512207,-1.1723389625549316,0.9026865363121033,0.5018477439880371,29.096405029296875,-9.623812675476074,40.68605422973633,0
44,439831,-0.019433891400694847,0.08607659488916397,-1.0029916763305664,0.15483808517456055,-0.4393914043903351,-0.03373279049992561,28.039878845214844,-9.978535652160645,41.12238311767578,0
45,449798,-0.07596977800130844,0.006472505629062653,-0.9670369625091553,0.20685745775699615,0.15453767776489258,0.9268566966056824,30.301944732666016,-9.45497989654541,40.714420318603516,0
46,459737,-0.057260964065790176,0.00029130163602530956,-0.9920637011528015,-0.24156497418880463,0.32557156682014465,-0.282726526260376,29.099679946899414,-9.331733703613281,37.931331634521484,0
47,469660,0.03260015323758125,-0.021755503490567207,-0.9456140398979187,-0.5829514265060425,-0.19729311764240265,0.318094402551651,28.562767028808594,-11.181074142456055,40.491416931152344,0
48,480115,0.026843911036849022,0.012656349688768387,-1.0013638734817505,-0.5586467981338501,-0.9520126581192017,-0.4875599145889282,30.388765335083008,-9.292990684509277,39.73291778564453,0
49,489986,-0.011604813858866692,-0.04687119275331497,-0.9910944700241089,0.029029052704572678,1.3103399276733398,-0.7104228734970093,29.199007034301758,-10.915340423583984,38.802738189697266,0
50,499679,-0.04008207470178604,0.016034750267863274,-1.0007214546203613,0.26013273000717163,0.034125521779060364,-0.2290809452533722,29.073955535888672,-9.884588241577148,39.35357666015625,0
51,510214,0.0036221833433955908,-0.06084798276424408,-0.9962567090988159,0.30950915813446045,0.39307042956352234,0.7168385982513428,30.418413162231445,-10.670156478881836,38.554813385009766,0
52,520111,-0.030499745160341263,0.03973788395524025,-1.0069972276687622,0.008089526556432247,-0.5367928743362427,0.03360993415117264,28.85015869140625,-10.39323902130127,40.32099914550781,0
53,530243,-0.03237690404057503,0.050486985594034195,-0.9738548994064331,0.33815333247184753,-1.523445963859558,0.49503976106643677,28.759363174438477,-10.988279342651367,41.13056564331055,0
54,540232,0.09297383576631546,0.0676669329404831,-1.0301532745361328,0.4155062735080719,-0.5117432475090027,0.7594497203826904,31.373912811279297,-11.03160285949707,39.833011627197266,0
55,550127,-0.01392375398427248,0.04617927968502045,-0.9766286611557007,-0.06382471323013306,0.2370215207338333,-0.018605805933475494,29.81122589111328,-8.949197769165039,41.43417739868164,0
56,560106,-0.02202717959880829,0.0549488365650177,-0.9697330594062805,-0.4514012336730957,0.7967477440834045,-0.2438533753156662,31.534996032714844,-10.804092407226562,39.461524963378906,0
57,569763,0.03534853085875511,-0.007683118339627981,-0.9952822923660278,0.17843592166900635,0.23920032382011414,-0.06909800320863724,29.66727638244629,-8.890727043151855,39.94163513183594,0
58,579853,0.06912750005722046,0.020801566541194916,-0.9955890774726868,-0.7107117772102356,0.8474334478378296,-0.27498412132263184,30.06528663635254,-9.800521850585938,38.23174285888672,0
59,589913,0.03596116602420807,0.043411459773778915,-0.9989874362945557,-0.5760937929153442,0.14060461521148682,-0.2308720499277115,28.694366455078125,-8.732215881347656,40.886844635009766,0
60,599896,0.06469512730836868,-0.03171432018280029,-0.9801756143569946,1.5222042798995972,0.9337680339813232,1.2006582021713257,30.594823837280273,-9.872127532958984,37.96059799194336,0
61,610033,-0.08621742576360703,-0.03346202149987221,-0.9887127876281738,0.7409459948539734,0.4951746463775635,-0.5554877519607544,29.160228729248047,-10.418807983398438,38.96295166015625,0
62,619976,-0.006396980490535498,0.0046746754087507725,-1.017553687095642,0.26997724175453186,-0.714072048664093,-0.8920544981956482,29.13379669189453,-9.570412635803223,40.71260452270508,0
63,629959,-0.021461468189954758,0.04880911484360695,-1.0098403692245483,0.549186110496521,-0.27369600534439087,-0.3220157027244568,31.357316970825195,-8.452515602111816,41.56988525390625,0
64,639819,0.01779019832611084,-0.04767918959259987,-0.9937058091163635,-0.09659936279058456,0.02259782701730728,0.7320711016654968,30.902687072753906,-11.705364227294922,38.885196685791016,0
65,649710,-0.006573659833520651,0.11772992461919785,-0.9857561588287354,1.244735836982727,0.6234774589538574,0.3397066593170166,30.56454849243164,-11.850519180297852,39.51742935180664,0
66,660221,0.023331502452492714,-0.0370677150785923,-1.009535312652588,-0.40018096566200256,-0.1119607537984848,0.0800592228770256,29.638765335083008,-9.545401573181152,40.842369079589844,0
67,669892,0.02864636294543743,0.06428015232086182,-1.029914379119873,0.7759247422218323,-0.24715234339237213,0.2105010747909546,29.39151382446289,-10.872227668762207,39.379947662353516,0
68,680097,-0.05422761291265488,-0.017935708165168762,-1.011160969734192,-0.09398076683282852,-0.9245969653129578,-0.0315275639295578,28.372220993041992,-10.003503799438477,41.63059616088867,0
69,689939,0.01837596297264099,0.016423005610704422,-0.9996463656425476,0.2311314046382904,-0.6822218894958496,0.25473201274871826,29.556499481201172,-10.256609916687012,39.87989044189453,0
70,700019,0.022708440199494362,-0.017821259796619415,-1.0051463842391968,0.04032091796398163,0.16514979302883148,0.2208639532327652,29.314842224121094,-10.61190128326416,38.813087463378906,0
71,709954,-0.006564820185303688,0.05585365742444992,-0.9922783374786377,0.1282387375831604,0.047000061720609665,0.2639544904232025,31.272785186767578,-10.445195198059082,39.39366149902344,0
72,719998,-0.01077413558959961,-0.06696653366088867,-1.034340739250183,-0.13128124177455902,0.0837368369102478,-0.556023359298706,30.959062576293945,-11.071161270141602,39.46896743774414,0
73,729952,-0.06643852591514587,-0.03130892291665077,-1.005393385887146,-0.6867783665657043,-0.2546589970588684,-0.09566249698400497,29.1319580078125,-10.239683151245117,39.71550369262695,0
74,739901,0.03626137971878052,-0.03377769514918327,-0.9874933362007141,0.03335140272974968,-0.7777455449104309,0.23850801587104797,30.16838264465332,-9.555910110473633,39.14013671875,0
75,750027,0.010303700342774391,0.06004343554377556,-0.9924533367156982,-0.5728808641433716,-0.7127325534820557,0.46648508310317993,30.790964126586914,-8.452652931213379,40.155479431152344,0
76,760058,0.05558892711997032,-0.011959352530539036,-0.9734816551208496,0.15192097425460815,0.18486984074115753,-0.048148833215236664,29.087383270263672,-9.688782691955566,39.2227897644043,0
77,769960,0.033805396407842636,0.0791843980550766,-0.9942139983177185,-1.2813827991485596,0.31635621190071106,-0.038117989897727966,30.081972122192383,-10.42212200164795,41.9425163269043,0
78,779768,0.015885014086961746,0.0016508481930941343,-1.001853346824646,1.1968923807144165,0.7048607468605042,0.5375211238861084,31.33937644958496,-8.375658988952637,39.62531280517578,0
79,789813,-0.07325930893421173,-0.13041724264621735,-0.9962462782859802,0.18399359285831451,0.6626483201980591,-0.19774828851222992,29.408166885375977,-9.721250534057617,39.9665641784668,0
80,800011,0.009190132841467857,0.008903708308935165,-0.9909812211990356,-0.19502325356006622,0.32406771183013916,0.4351509213447571,31.549169540405273,-10.51070785522461,39.3658332824707,0
81,810179,0.030608966946601868,-0.00866976659744978,-1.0009136199951172,-0.7996320128440857,0.43536069989204407,-0.03452486917376518,29.50356101989746,-10.37476921081543,39.7801628112793,0
82,820217,0.04584873467683792,0.07402714341878891,-0.9920879006385803,0.034241098910570145,-0.3949562907218933,-0.19705860316753387,30.478622436523438,-9.297308921813965,39.22134780883789,0
83,830001,0.0696316808462143,0.059774186462163925,-0.992692232131958,-0.12998071312904358,-0.35981667041778564,-0.13719969987869263,31.876827239990234,-8.84736156463623,38.70677185058594,0
84,839960,-0.0021173199638724327,-0.005295021925121546,-0.9834718108177185,0.9653553366661072,-0.36275461316108704,-0.7177115082740784,28.84759521484375,-9.934490203857422,39.148685455322266,0
85,850052,0.05727158486843109,0.08216436207294464,-1.0081473588943481,0.07715132087469101,0.2189049869775772,-0.22951558232307434,28.690988540649414,-10.092491149902344,39.747196197509766,0
86,859919,-0.05986723676323891,-0.02321656048297882,-1.0009286403656006,0.10540791600942612,0.9322405457496643,-1.1518023014068604,27.75261116027832,-10.710089683532715,38.96345520019531,0
87,869622,-0.06894441694021225,-0.01765277422964573,-0.9866007566452026,-0.311533123254776,0.9225298166275024,-0.7065043449401855,31.187257766723633,-9.325540542602539,37.633113861083984,0
88,880081,-0.01542817335575819,-0.0179775170981884,-1.022402048110962,0.656581699848175,-0.35896027088165283,-0.3403695225715637,30.927536010742188,-11.13580322265625,40.45408630371094,0
89,889764,-0.005489741917699575,0.0668129026889801,-1.0043538808822632,-0.5632343292236328,0.36000221967697144,0.6015810370445251,28.555593490600586,-10.856603622436523,40.75727081298828,0
90,899943,0.11446608603000641,-0.04954124242067337,-0.9868707656860352,0.4029083549976349,-0.15234912931919098,-0.2706003189086914,28.423246383666992,-10.313573837280273,42.390830993652344,0
91,910466,0.07397551834583282,0.002527629490941763,-1.013158917427063,-0.4484270513057709,-0.8702945709228516,-0.010902774520218372,31.989126205444336,-9.469228744506836,38.665252685546875,0
92,920121,-0.0294742900878191,0.03088177926838398,-0.9544559121131897,-0.29108521342277527,-0.08142983913421631,0.5925894379615784,30.286062240600586,-10.27265739440918,38.85622024536133,0
93,930049,-0.0012243777746334672,0.12282013893127441,-0.9744690656661987,-0.4592649042606354,0.8188286423683167,-0.6284096240997314,30.26968765258789,-8.630478858947754,40.31740951538086,0
94,939861,0.040847450494766235,0.02716189995408058,-1.0041277408599854,1.0881786346435547,-0.5168201923370361,-0.1844484955072403,29.630956649780273,-11.128037452697754,38.85844421386719,0
95,949967,-0.021816233173012733,-0.02853538654744625,-1.0302419662475586,-0.3452596664428711,0.06884168833494186,-0.3989703953266144,30.569347381591797,-10.984055519104004,39.9207649230957,0
96,960178,-0.014765487052500248,-0.021284641698002815,-0.9936069250106812,-0.5061116218566895,0.4244862496852875,-0.08588866144418716,29.035808563232422,-10.215339660644531,40.83842086791992,0
97,969933,0.005951633211225271,0.01198245957493782,-0.9718658328056335,-0.06034979596734047,0.11300104856491089,0.20389537513256073,29.14676284790039,-10.51543140411377,40.49565505981445,0
98,980007,-0.0854363813996315,0.019439803436398506,-0.9822676777839661,-0.15382541716098785,0.1296197474002838,0.11647366732358932,28.376909255981445,-11.954174041748047,41.122276306152344,0
99,989957,-0.028294596821069717,0.05861079692840576,-1.0257987976074219,-0.1536249816417694,-0.8599402904510498,-0.3393213450908661,28.542604446411133,-9.231537818908691,39.715904235839844,0
100,999667,0.020949935540556908,-0.018691761419177055,-0.9793426394462585,1.026018500328064,0.030828092247247696,-0.03213316202163696,30.259204864501953,-12.249001502990723,39.15553283691406,0
101,1009955,-0.057251352816820145,0.011377308517694473,-1.0036048889160156,-0.29639533162117004,-0.6913272142410278,0.00467382837086916,28.441320419311523,-10.36055850982666,40.3415641784668,0
102,1020221,0.02368014305830002,-0.02909720316529274,-0.9981798529624939,0.1380186527967453,0.46015048027038574,-0.7270578145980835,29.404827117919922,-12.138174057006836,38.73417282104492,0
103,1029760,-0.09321965277194977,-0.07773540169000626,-0.9854118227958679,0.2307300716638565,-0.985663890838623,-0.03990022838115692,28.6602783203125,-9.844635009765625,40.33554458618164,0
104,1040143,-0.040907662361860275,-0.05995560809969902,-0.9611740708351135,0.03345494344830513,-0.8304738998413086,0.8674895167350769,31.001873016357422,-10.51095962524414,39.71938705444336,0
105,1049956,0.02002190239727497,-0.030480744317173958,-1.063322901725769,0.17504030466079712,0.08282555639743805,0.033192530274391174,30.129417419433594,-9.003287315368652,40.09844207763672,0
106,1059962,0.11138322204351425,-0.02715330757200718,-0.9752534627914429,0.2697041630744934,-0.2991882562637329,0.17576287686824799,29.484899520874023,-8.888190269470215,40.802852630615234,0
107,1069956,0.01492171362042427,0.10810849070549011,-1.0034911632537842,0.0604129359126091,0.12360263615846634,-0.6628560423851013,28.82052230834961,-9.947000503540039,38.24476623535156,0
108,1080190,-0.019015613943338394,0.014610514044761658,-1.0204459428787231,1.020259141921997,0.13593365252017975,-0.557015061378479,30.623998641967773,-9.244872093200684,41.535037994384766,0
109,1090108,-0.013823416084051132,0.004153878893703222,-1.0177900791168213,-0.814132034778595,0.2521113455295563,0.16145910322666168,29.88443946838379,-7.930091857910156,38.14271926879883,0
110,1100178,-0.005567109677940607,0.015158810652792454,-0.9966006278991699,-0.5648817420005798,-0.6101943254470825,-0.042417459189891815,29.312654495239258,-10.374798774719238,40.0747184753418,0
111,1110158,0.025197254493832588,0.052132897078990936,-0.9874743223190308,-0.3628937005996704,0.9267840385437012,-0.07720208913087845,27.562227249145508,-9.593282699584961,37.34796142578125,0
112,1120125,0.059898607432842255,-0.0029938595835119486,-1.0203880071640015,0.5942610502243042,0.48822933435440063,-0.044109784066677094,29.93510627746582,-9.9054594039917,39.64140701293945,0
113,1129917,-0.018450850620865822,0.051091693341732025,-0.9851759076118469,1.1806899309158325,0.0823456197977066,0.5517233610153198,31.24197006225586,-10.566327095031738,41.51129913330078,0
114,1140238,-0.004020286723971367,-0.0017262527253478765,-0.9981884360313416,-0.4687347412109375,-0.28541386127471924,-0.21398717164993286,29.643590927124023,-10.500019073486328,40.74021530151367,0
115,1150067,-0.09865777939558029,-0.0518118180334568,-0.9725204706192017,-0.04759928584098816,0.08439746499061584,-0.7473693490028381,29.97236442565918,-10.241844177246094,40.90167999267578,0
116,1160011,-0.039482273161411285,-0.016605017706751823,-0.9702877998352051,0.1267751157283783,0.0819939449429512,0.4444392919540405,28.412860870361328,-10.978109359741211,41.23115539550781,0
117,1170017,-0.10042455047369003,0.0038787920493632555,-1.0170096158981323,0.31050655245780945,0.13883621990680695,-0.12131308019161224,28.795421600341797,-10.105242729187012,40.34703063964844,0
118,1179880,-0.025749729946255684,0.0073607563972473145,-1.0512641668319702,-0.026236416772007942,0.12905997037887573,-1.4657931327819824,30.983379364013672,-11.397704124450684,38.9553108215332,0
119,1190193,0.03635185956954956,-0.06860699504613876,-1.0103005170822144,0.7000798583030701,0.5956746339797974,-0.31198567152023315,30.01018524169922,-8.9942626953125,39.281612396240234,0
120,1199766,-0.032161612063646317,0.0013335648691281676,-0.9840941429138184,0.5857388377189636,0.2600993514060974,-0.1117539331316948,31.308425903320312,-10.996782302856445,39.73894119262695,0
121,1210152,0.038701239973306656,0.00018029558123089373,-1.0382298231124878,-0.4696117341518402,-0.5911550521850586,-0.8298158645629883,30.536426544189453,-9.368337631225586,39.344505310058594,0
122,1219878,-0.0128119345754385,-0.025382021442055702,-0.9889570474624634,-0.574933648109436,-1.2063320875167847,0.5074418783187866,29.10721206665039,-8.905966758728027,40.724605560302734,0
123,1229891,-0.061195772141218185,-0.008169104345142841,-1.001460313796997,-0.31537944078445435,0.19085253775119781,0.34576886892318726,31.503353118896484,-12.789298057556152,40.009857177734375,0
124,1239893,0.0007163560367189348,0.06043349206447601,-0.9958382248878479,-0.8513614535331726,0.5488439798355103,0.028196992352604866,28.640567779541016,-8.975299835205078,38.403079986572266,0
125,1249771,-0.029930274933576584,-0.014137323014438152,-1.0069581270217896,-0.46031081676483154,-0.06007442995905876,0.14701370894908905,32.30121994018555,-9.934951782226562,38.902626037597656,0
126,1260078,0.03615638613700867,0.017916439101099968,-0.9961146116256714,0.690607488155365,-0.3848748803138733,0.03287780284881592,30.2052001953125,-8.341385841369629,39.57978820800781,0
127,1270228,0.08238343149423599,0.05101728066802025,-1.0015883445739746,-0.6881198287010193,-0.06570872664451599,0.00039446051232516766,30.85114860534668,-11.67130184173584,38.80207061767578,0
128,1280001,0.015157383866608143,0.028801845386624336,-0.9839937686920166,-0.8090130686759949,0.1295202374458313,0.1880582869052887,29.427562713623047,-10.966599464416504,41.2647705078125,0
129,1290121,-0.06867757439613342,-0.007840342819690704,-1.0001689195632935,0.5096311569213867,0.4995330274105072,0.1640569269657135,29.76723289489746,-9.480305671691895,40.32131576538086,0
130,1299900,-0.04226343333721161,0.06755801290273666,-1.0035858154296875,-0.16159896552562714,0.6455811262130737,0.7359374761581421,30.56075096130371,-9.414871215820312,39.13740539550781,0
131,1309907,-0.0034041276667267084,0.025858527049422264,-0.9662980437278748,0.20479491353034973,-0.3652811050415039,0.3147036135196686,30.707576751708984,-10.232166290283203,38.56483459472656,0
132,1319930,-0.02022533491253853,0.009568408131599426,-0.9942039847373962,0.17380797863006592,0.22658830881118774,-0.35442793369293213,30.689773559570312,-10.164260864257812,40.31697082519531,0
133,1329930,-0.028077421709895134,0.023065246641635895,-1.047830581665039,-0.04569659009575844,0.13575027883052826,-0.19638299942016602,29.374481201171875,-11.643596649169922,38.693172454833984,0
134,1340191,0.0438464991748333,-0.008609047159552574,-0.9893491268157959,-0.3147716820240021,-0.14712883532047272,-0.25184983015060425,29.653972625732422,-9.321605682373047,41.87232208251953,0
135,1349998,0.014192975126206875,0.07444063574075699,-1.0206267833709717,0.210041806101799,-0.21700939536094666,0.42473065853118896,31.16103744506836,-10.572676658630371,41.02140426635742,0
136,1359976,-0.019514014944434166,0.0934782475233078,-0.9762276411056519,0.22274616360664368,-0.00623010890558362,-0.6775134205818176,29.832603454589844,-9.361861228942871,39.341407775878906,0
137,1370141,0.1058206558227539,0.0017193752573803067,-0.9960456490516663,-0.1943841427564621,-0.4618605375289917,0.22523802518844604,31.07708740234375,-10.221205711364746,39.36830139160156,0
138,1380085,-0.10607346892356873,0.048749301582574844,-1.0054845809936523,0.6529906392097473,0.6479493975639343,0.16225412487983704,29.53115463256836,-10.907087326049805,39.598388671875,0
139,1389849,-0.008585868403315544,0.08476147055625916,-0.9843460917472839,0.42132312059402466,0.5413673520088196,0.22002607583999634,31.217824935913086,-9.953902244567871,40.181007385253906,0
140,1399732,0.011384671553969383,-0.027575930580496788,-0.9796584248542786,0.03294418752193451,0.10209713131189346,-0.08167613297700882,31.20777702331543,-9.091401100158691,40.582698822021484,0
141,1409961,-0.06886990368366241,-0.05915467441082001,-1.016334056854248,-0.5800855755805969,0.28149884939193726,0.6507189869880676,30.278837203979492,-10.145347595214844,38.448036193847656,0
142,1420005,-0.0805804654955864,0.008560282178223133,-1.010984182357788,1.099068284034729,0.23675698041915894,-0.5694326758384705,30.763553619384766,-11.522332191467285,39.499568939208984,0
143,1430120,0.050861816853284836,-0.08002064377069473,-0.9832050800323486,0.7263430953025818,0.48134875297546387,-0.38200801610946655,30.723148345947266,-8.851832389831543,39.7994499206543,0
144,1439957,-0.056757982820272446,0.04851040244102478,-1.0216948986053467,0.02208729460835457,0.4189087152481079,0.037783872336149216,30.858911514282227,-9.107349395751953,39.149044036865234,0
145,1449944,-0.0007411783444695175,0.12104099988937378,-1.0157816410064697,-0.22614780068397522,0.19642065465450287,0.5438193678855896,30.492155075073242,-9.980815887451172,39.92599868774414,0
146,1459906,0.006734453607350588,-0.09276094287633896,-1.0356080532073975,0.48428305983543396,-0.2886222302913666,-0.23034049570560455,29.81346893310547,-10.194823265075684,40.48836898803711,0
147,1470023,0.11615880578756332,0.04106861352920532,-1.004384994506836,0.19822846353054047,-0.04917696863412857,0.13953211903572083,29.46752166748047,-10.932254791259766,41.09204864501953,0
148,1480144,0.06380080431699753,-0.09275927394628525,-1.0394487380981445,-0.5866324305534363,1.7627793550491333,-0.6326680779457092,29.09686279296875,-9.52707576751709,40.34926223754883,0
149,1489901,0.004448550753295422,-0.006732996087521315,-0.9856546521186829,-0.04278511554002762,0.43898293375968933,-0.3558594584465027,29.202974319458008,-9.765957832336426,39.16067886352539,0
150,1500250,0.04090287163853645,0.00791554432362318,-0.9846272468566895,0.27169111371040344,0.3753274977207184,0.3291984796524048,29.75450897216797,-8.469027519226074,40.48486328125,0
151,1509669,-0.12526348233222961,-0.005666482727974653,-1.022063970565796,-1.0786092281341553,-0.10735473036766052,-0.4304769039154053,29.279922485351562,-10.490421295166016,39.02740478515625,0
152,1519917,0.052436359226703644,-0.08836642652750015,-1.0196418762207031,0.15045325458049774,-1.1651564836502075,-0.32265007495880127,29.44603157043457,-10.093613624572754,40.17280578613281,0
153,1530103,0.019099952653050423,0.00943914894014597,-0.9604400992393494,1.1023298501968384,-0.0956110954284668,-0.3121388852596283,30.151344299316406,-11.145373344421387,38.55366134643555,0
154,1539869,-0.03422282636165619,-0.06380312144756317,-0.9564107656478882,-0.5208537578582764,0.42890021204948425,0.04004998877644539,29.425378799438477,-9.459514617919922,39.35319137573242,0
155,1550154,-0.022084804251790047,-0.06253301352262497,-1.0468807220458984,1.0268594026565552,0.5600715279579163,0.5497246980667114,30.96622085571289,-9.783987998962402,40.65805435180664,0
156,1560145,-0.05682544410228729,-0.0005866748979315162,-0.9758080840110779,1.0448577404022217,-0.00857995729893446,0.2106344848871231,29.040489196777344,-9.936976432800293,39.69327926635742,0
157,1570140,-0.0023877990897744894,-0.03011673130095005,-1.000818133354187,-0.09604424238204956,-0.28290507197380066,0.4274011552333832,28.924591064453125,-10.505006790161133,38.448204040527344,0
158,1579838,0.056303877383470535,0.10099122673273087,-0.9980071187019348,-0.11310260742902756,0.1046275720000267,-0.12436001002788544,29.877161026000977,-11.307618141174316,38.6079216003418,0
159,1590200,0.06650799512863159,0.03281428664922714,-1.008996844291687,0.3797646164894104,-0.5192074775695801,0.01324800681322813,29.359331130981445,-10.353081703186035,40.87644577026367,0
160,1599902,0.08745747804641724,0.009149978868663311,-0.9835796356201172,0.4929853081703186,0.17520561814308167,0.7474770545959473,29.511451721191406,-9.320232391357422,41.71865463256836,0
161,1609908,0.0196680948138237,0.07066009193658829,-1.0260272026062012,0.7289421558380127,-0.36909401416778564,-0.0028004625346511602,27.365812301635742,-9.242951393127441,39.02000045776367,0
162,1619833,0.0802747830748558,0.0833965614438057,-0.9701374769210815,0.6921914219856262,-0.16108793020248413,-0.38577789068222046,29.52259063720703,-10.148099899291992,40.52174758911133,0
163,1630108,0.10457884520292282,-0.008103272877633572,-1.0108561515808105,0.8663009405136108,0.4960501194000244,-0.46249324083328247,28.98419189453125,-11.37945556640625,40.0179443359375,0
164,1640100,-0.005292761605232954,-0.06879045814275742,-1.0012997388839722,-0.13584096729755402,-0.16952075064182281,-0.8579395413398743,29.3909969329834,-9.852986335754395,38.06351852416992,0
165,1650041,0.022480327636003494,0.04921988025307655,-0.9919424653053284,0.2803388833999634,-0.3408586382865906,0.422254353761673,29.340381622314453,-10.904370307922363,40.67988204956055,0
166,1660284,0.05335042253136635,-0.17777182161808014,-1.018255591392517,-0.10981091111898422,-0.029440319165587425,1.3954106569290161,29.493799209594727,-9.56928825378418,40.66847610473633,0
167,1670127,0.0757066011428833,-0.009527298621833324,-0.9870343804359436,-0.014266803860664368,0.11168458312749863,-0.35025906562805176,29.552087783813477,-10.206320762634277,40.60507583618164,0
168,1679912,0.019126350060105324,0.03129823878407478,-1.02004075050354,0.2978546619415283,0.8130744695663452,-0.4627145528793335,29.5742130279541,-9.374157905578613,41.030433654785156,0
169,1689906,-0.024182645604014397,-0.03786548599600792,-0.9968281984329224,-0.014433380216360092,-0.6349959373474121,-0.6128042340278625,29.342634201049805,-11.686883926391602,40.60274124145508,0
170,1700309,-0.033108316361904144,-0.027220098301768303,-0.9869303703308105,-0.1387474685907364,-0.05178939551115036,1.0507776737213135,30.64903450012207,-8.799101829528809,40.69559860229492,0
171,1710029,0.03503644838929176,0.05645405873656273,-0.9990156292915344,0.6363285779953003,-0.27148666977882385,-0.4679628610610962,29.367355346679688,-10.01716423034668,39.65790939331055,0
172,1719722,0.0650959461927414,-0.0633217841386795,-1.034085750579834,-0.27748382091522217,0.1086396798491478,0.42490166425704956,30.15343475341797,-10.22431468963623,38.94141387939453,0
173,1730153,0.035097554326057434,0.030246561393141747,-0.9973546266555786,0.788323163986206,0.629815936088562,0.1954525262117386,31.563514709472656,-9.290569305419922,39.5306510925293,0
174,1739821,0.04792552441358566,-0.04867614060640335,-0.9824471473693848,-0.3001190423965454,0.15159660577774048,0.11139249056577682,29.461265563964844,-9.07560920715332,42.162925720214844,0
175,1749985,-0.007303094957023859,-0.002552351215854287,-1.0262433290481567,-0.2629490792751312,-0.4072241187095642,-0.4570097029209137,27.414134979248047,-9.75683307647705,36.655582427978516,0
176,1760101,-0.053348951041698456,0.022702444344758987,-1.0002628564834595,-0.35079774260520935,0.35416463017463684,-0.2682607173919678,29.694530487060547,-10.80816650390625,38.25542068481445,0
177,1769917,-0.07198618352413177,0.04742902144789696,-0.9916709661483765,-0.0026821757201105356,-1.1468148231506348,0.2917921245098114,30.55748748779297,-8.463082313537598,41.565582275390625,0
178,1780035,0.06406871974468231,0.03636321425437927,-1.025855302810669,-0.1761881560087204,0.4519812762737274,-0.2187727838754654,27.562278747558594,-9.433755874633789,41.68865966796875,0
179,1790070,-0.06547407805919647,-0.07155026495456696,-1.0092039108276367,-0.5121383666992188,-0.37832316756248474,0.09758543968200684,28.57329559326172,-11.132022857666016,40.214385986328125,0
180,1800073,0.09924673289060593,0.0041639357805252075,-1.012169361114502,0.8781757950782776,-0.4789729416370392,0.020434031262993813,29.52445411682129,-10.8508939743042,39.41339874267578,0
181,1809842,-0.018571777269244194,-0.009182488545775414,-0.977405309677124,0.38647231459617615,-0.792167067527771,-0.5735040307044983,30.083845138549805,-9.377782821655273,41.12177276611328,0
182,1820312,-0.00622014794498682,0.07664575427770615,-0.9740323424339294,0.6496145129203796,0.3265117406845093,-0.7427455186843872,29.62835693359375,-8.276192665100098,39.611228942871094,0
183,1830146,-0.0757889673113823,0.0941852331161499,-0.9959061741828918,-0.7537188529968262,0.4706929326057434,-0.686227023601532,29.230079650878906,-7.534362316131592,40.88042449951172,0
184,1840025,0.02936650812625885,0.059650104492902756,-1.0201174020767212,0.4249765872955322,0.19118262827396393,0.7366487979888916,29.890243530273438,-9.709674835205078,42.22945022583008,0
185,1850152,-0.06470073759555817,-0.046265583485364914,-0.9969592690467834,-0.5950683951377869,0.05895321071147919,0.0036160487215965986,29.71392059326172,-9.452995300292969,39.5782470703125,0
186,1860114,0.1047932505607605,-0.04236426204442978,-0.9943350553512573,-0.5385085940361023,-0.049858178943395615,0.08658970147371292,30.19343376159668,-10.928457260131836,40.28959655761719,0
187,1870061,0.007478954736143351,-0.0015462172450497746,-1.0473111867904663,0.25167661905288696,0.15982642769813538,0.18381424248218536,29.519046783447266,-9.732666015625,39.3087272644043,0
188,1880101,-0.0508275106549263,0.059547554701566696,-0.9640027284622192,-0.2686212360858917,1.1078319549560547,0.4248204529285431,29.010976791381836,-10.684408187866211,40.433753967285156,0
189,1889778,-0.03312239795923233,-0.04766815900802612,-0.9932448267936707,0.08495824038982391,0.2939112186431885,0.7438914179801941,29.58433723449707,-9.649703025817871,39.633121490478516,0
190,1900066,0.03874940425157547,0.008035375736653805,-0.9865215420722961,0.48663267493247986,-0.32425108551979065,0.3399404287338257,30.935495376586914,-9.511213302612305,41.15932083129883,0
191,1909987,0.009407957084476948,-0.011173808947205544,-1.0046656131744385,-0.8189228177070618,0.6894910335540771,0.0991179421544075,29.379091262817383,-10.108330726623535,39.585941314697266,0
192,1920090,0.05332181602716446,0.007743240334093571,-1.0088590383529663,0.8512730598449707,0.04825452342629433,0.3254142105579376,28.933164596557617,-8.990918159484863,40.69953155517578,0
193,1929851,-0.08475131541490555,-0.04508869722485542,-0.9892037510871887,0.5603334903717041,0.7695587873458862,-0.22494879364967346,31.451358795166016,-9.016597747802734,40.05674743652344,0
194,1939785,-0.06665674597024918,-0.04149683192372322,-0.99408358335495,0.15703484416007996,0.1394573152065277,0.7874276638031006,29.645889282226562,-10.061054229736328,41.052101135253906,0
195,1949873,-0.008644498884677887,0.08198633790016174,-1.0160702466964722,-0.4046722948551178,-0.4318392872810364,0.5051266551017761,29.280254364013672,-9.262420654296875,41.10900115966797,0
196,1960175,-0.02970794215798378,0.009511406533420086,-0.9759436845779419,-0.21163909137248993,0.4137473702430725,0.4948379695415497,29.936279296875,-10.486784934997559,38.967315673828125,0
197,1969904,0.021125977858901024,-0.03259026259183884,-1.003212571144104,0.9385828971862793,0.48289626836776733,-0.663475513458252,31.277374267578125,-9.791810989379883,38.471370697021484,0
198,1980115,-0.021002469584345818,-0.031180428341031075,-1.0072699785232544,0.3988564610481262,-0.12399401515722275,-0.4310482442378998,29.353925704956055,-10.164403915405273,39.79804229736328,0
199,1989543,0.002246457152068615,-0.033288825303316116,-1.0182081460952759,-0.04313262552022934,0.2983686625957489,1.228595495223999,30.986997604370117,-11.972762107849121,42.670021057128906,0
200,1999751,-0.035079069435596466,0.10619986802339554,-0.9766455292701721,-0.31894156336784363,-0.16182060539722443,0.7111753821372986,30.219511032104492,-11.198592185974121,40.657962799072266,0
201,2009933,-0.10474109649658203,-0.07756276428699493,-0.9949110150337219,-0.10165178775787354,0.30616888403892517,-0.7901623249053955,28.703895568847656,-10.986411094665527,38.67184829711914,0
202,2019977,0.012168379500508308,0.05126272141933441,-1.0231379270553589,-0.22345241904258728,-0.7371620535850525,-0.004520582500845194,29.440086364746094,-9.720633506774902,39.70368576049805,0
203,2030211,0.02185973711311817,0.003968763165175915,-0.986495316028595,-0.7409210801124573,0.00670570507645607,0.9009873270988464,27.095396041870117,-9.923441886901855,41.51150894165039,0
204,2039941,0.042644135653972626,-0.06171708181500435,-0.9904665350914001,0.1036931648850441,-0.037440285086631775,-0.7426899671554565,31.283845901489258,-10.829045295715332,39.575584411621094,0
205,2050039,-0.10497447848320007,-0.04085598513484001,-0.9835343956947327,-0.6698915958404541,-0.2850879728794098,-0.5129637122154236,30.076913833618164,-9.784400939941406,41.0843505859375,0
206,2060299,0.003941696602851152,0.02851872146129608,-1.0167068243026733,-0.5679714679718018,0.03155745565891266,0.22769205272197723,30.578006744384766,-9.942334175109863,40.06051254272461,0
207,2070094,-0.021369757130742073,0.0028713352512568235,-1.0361062288284302,0.007387316320091486,0.23380663990974426,-0.5276498198509216,28.76011085510254,-9.93200397491455,39.96657943725586,0
208,2079990,0.011842657811939716,-0.0012004808522760868,-1.006853461265564,0.6505470871925354,-0.0063921306282281876,0.11639394611120224,30.246614456176758,-9.666600227355957,41.44491195678711,0
209,2090050,-0.015943579375743866,-0.01306961290538311,-1.0031929016113281,-0.16972079873085022,-0.0982944443821907,0.31023868918418884,30.8250789642334,-8.220305442810059,41.023563385009766,0
210,2100030,-0.058615218847990036,0.05936988815665245,-0.9996039271354675,0.13599854707717896,0.4932383596897125,-0.2240096777677536,30.464750289916992,-12.722550392150879,39.613338470458984,0
211,2110046,0.03682153671979904,0.004241568967700005,-0.983993411064148,0.0553278774023056,0.027496175840497017,-0.0658687874674797,29.22975730895996,-11.166071891784668,43.90533447265625,0
212,2119890,-0.05268818885087967,-0.06181420758366585,-1.006386160850525,-0.25839734077453613,-0.333497554063797,0.7180674076080322,30.259782791137695,-8.662160873413086,40.47772216796875,0
213,2130100,-0.031174711883068085,0.04762045666575432,-1.0114823579788208,0.581984281539917,0.13508076965808868,-0.3423861861228943,31.9986572265625,-9.880379676818848,41.2316780090332,0
214,2140091,-0.00023780280025675893,0.020977113395929337,-0.9755266904830933,-0.13976195454597473,0.11037302017211914,-0.6967034339904785,30.461023330688477,-10.22671890258789,39.76466369628906,0
215,2150048,-0.06996436417102814,-0.08287852257490158,-0.9960916638374329,0.13398589193820953,0.08276399970054626,-0.4532424807548523,31.129934310913086,-9.653669357299805,39.68070983886719,0
216,2159918,-0.012496570125222206,0.04087873920798302,-1.031633973121643,-0.16060681641101837,-0.7924381494522095,0.16489797830581665,30.441192626953125,-9.791325569152832,41.89729309082031,0
217,2170010,0.005517646670341492,0.07253395766019821,-0.9976301193237305,-0.34338974952697754,-0.03339775651693344,0.376858651638031,30.392393112182617,-10.365283966064453,39.01011276245117,0
218,2179908,0.11733575165271759,0.042744796723127365,-1.006569504737854,-0.006679711863398552,-0.21525052189826965,0.05660684034228325,29.192880630493164,-10.689900398254395,38.48146438598633,0
219,2190040,0.02620721608400345,0.0005264830542728305,-1.0032809972763062,0.6397971510887146,0.6019887328147888,-1.0146700143814087,30.119544982910156,-9.463735580444336,38.59024429321289,0
220,2199904,-0.07069969177246094,-0.02040143869817257,-0.9819278120994568,-0.040441207587718964,-0.0036990053486078978,-0.19990025460720062,28.94710922241211,-8.483524322509766,41.01128005981445,0
221,2210108,-0.013892645947635174,-0.026587700471282005,-0.9935908913612366,0.14163558185100555,0.21330229938030243,-0.01428842544555664,30.06485366821289,-10.997239112854004,41.91696548461914,0
222,2220240,-0.030451031401753426,-0.05493098869919777,-0.9738436937332153,-0.14546336233615875,-0.9113516807556152,0.34103211760520935,30.27066421508789,-9.267927169799805,39.517147064208984,0
223,2230004,0.005908828228712082,-0.0004541839880403131,-0.9783849716186523,0.9609254598617554,-0.7525506615638733,-0.009828688576817513,29.41128921508789,-11.407116889953613,40.2272834777832,0
224,2240076,-0.01817908138036728,-0.10682331025600433,-1.0062342882156372,0.527371346950531,-0.11519546061754227,-0.22108565270900726,30.638505935668945,-11.153687477111816,39.734928131103516,0
225,2249749,0.03795424476265907,0.02180940844118595,-1.008660912513733,-0.31493520736694336,0.33748942613601685,-0.9528486728668213,28.610536575317383,-11.316372871398926,40.28348922729492,0
226,2259912,-0.049386173486709595,0.03290220722556114,-0.9776886105537415,-0.025314368307590485,-0.6599093675613403,-0.5738459229469299,31.24493408203125,-9.49649715423584,39.465789794921875,0
227,2269865,-0.055181726813316345,0.0007836917066015303,-1.0248403549194336,-0.23981627821922302,0.05251472443342209,0.23112733662128448,27.704219818115234,-10.304821014404297,39.19213104248047,0
228,2279890,0.042731743305921555,-0.036102067679166794,-0.9903284311294556,0.18773098289966583,0.5289697051048279,0.0339384488761425,28.33281898498535,-8.928160667419434,41.240787506103516,0
229,2289998,0.015343994833528996,0.019324079155921936,-1.0063047409057617,0.41273969411849976,-0.3637312054634094,-0.2694109380245209,30.337766647338867,-9.230457305908203,40.39044952392578,0
230,2300044,0.027641450986266136,-0.052890531718730927,-0.9789915680885315,-0.0037989544216543436,-0.6124429702758789,-0.3430149555206299,28.926410675048828,-9.440274238586426,41.72453689575195,0
231,2309873,0.005119305104017258,-0.02615293487906456,-0.9688382148742676,-0.5052638649940491,0.5201643109321594,-0.09218240529298782,29.184326171875,-9.305359840393066,40.2977409362793,0
232,2319883,-0.04069560021162033,0.005967405624687672,-0.9750363230705261,-0.6404188871383667,0.0582723505795002,-0.42253491282463074,29.9000244140625,-11.43363094329834,41.3767204284668,0
233,2330010,0.03419935703277588,-0.0791206806898117,-1.0028856992721558,-0.39562201499938965,0.05890848860144615,0.0888548418879509,29.76458168029785,-8.600384712219238,39.01713562011719,0
234,2340096,-0.03383169323205948,8.66277696331963e-05,-1.0030534267425537,-0.44883275032043457,-0.14792217314243317,-0.5416232347488403,28.744461059570312,-8.610162734985352,39.67742156982422,0
235,2350138,0.08154433220624924,-0.07242443412542343,-0.9757569432258606,-0.8303118348121643,-0.5836278200149536,0.19812794029712677,31.66645622253418,-8.556262016296387,40.71089553833008,0
236,2360011,0.015181569382548332,0.10502781718969345,-0.9952694773674011,-0.5241192579269409,-0.06160717457532883,0.7227936387062073,29.086326599121094,-10.895824432373047,39.84502029418945,0
237,2370222,-0.0493675097823143,-0.005262856837362051,-0.9741628170013428,0.44985470175743103,0.7603204846382141,0.1571730077266693,29.496267318725586,-9.17639446258545,40.86968231201172,0
238,2379944,0.049781545996665955,0.006686152424663305,-0.9903622269630432,0.07583460956811905,0.615370512008667,0.13341042399406433,31.290180206298828,-11.087394714355469,39.971343994140625,0
239,2390159,-0.02432871237397194,0.028991281986236572,-1.002523422241211,-0.2731335163116455,0.03718595579266548,-0.20085586607456207,29.974365234375,-10.607223510742188,42.849273681640625,0
240,2399839,0.073020339012146,0.07090476900339127,-1.0109957456588745,0.30293914675712585,0.5421708822250366,0.40194934606552124,30.640419006347656,-9.316420555114746,39.512027740478516,0
241,2410305,0.03147747740149498,0.008601502515375614,-0.9702771306037903,0.7941985726356506,0.3480565845966339,-0.2152804583311081,28.23491668701172,-9.873970031738281,40.91903305053711,0
242,2419949,-0.04012848436832428,0.01493594329804182,-1.0015355348587036,-0.2806805372238159,0.3816520571708679,-0.1242050901055336,29.776905059814453,-9.221623420715332,40.566307067871094,0
243,2430016,0.11871889978647232,-0.021255064755678177,-0.9791178703308105,-0.732083261013031,0.0438755638897419,-0.091494120657444,30.691102981567383,-9.23624038696289,39.638397216796875,0
244,2440188,-0.0120145408436656,0.008583258837461472,-1.0177075862884521,-0.5930890440940857,-0.009145348332822323,0.10906513035297394,29.1580810546875,-12.027273178100586,38.91456604003906,0
245,2449871,-0.03760560229420662,0.007753951475024223,-1.0199768543243408,0.016434766352176666,0.09251414984464645,-0.6767843961715698,29.59945297241211,-10.84370231628418,40.386817932128906,0
246,2459820,-0.005557503085583448,-0.01470026932656765,-1.01748526096344,0.07880180329084396,0.24714194238185883,-0.7285961508750916,30.653945922851562,-10.178600311279297,39.59208297729492,0
247,2470017,0.06462736427783966,-0.024830320850014687,-1.0040756464004517,0.163743257522583,-0.6403017640113831,-0.19717103242874146,29.502883911132812,-9.739296913146973,40.1646728515625,0
248,2480037,0.020666154101490974,-0.023069169372320175,-1.013953685760498,0.17621628940105438,-0.36549997329711914,-0.42057183384895325,29.8090763092041,-8.454489707946777,40.62369918823242,0
249,2490196,-0.011599594727158546,-0.05035809054970741,-0.9728274941444397,-0.36025238037109375,0.5060946345329285,0.850050687789917,30.186052322387695,-9.905082702636719,40.6893196105957,0
250,2499795,-0.02090136706829071,0.0835307389497757,-1.0160269737243652,-0.8414074182510376,-0.38384202122688293,-0.11517728865146637,29.478849411010742,-9.69044017791748,37.38407516479492,0
251,2509982,0.004746865481138229,-0.0814385786652565,-0.9754632115364075,0.9529154300689697,0.7465810775756836,-0.45589396357536316,29.666982650756836,-9.659101486206055,39.5670166015625,0
252,2520072,-0.03705550730228424,0.1624135971069336,-0.9982411861419678,-0.4295543432235718,0.31568804383277893,-0.09600339084863663,29.48818588256836,-10.904764175415039,40.686519622802734,0
253,2529943,-0.009440413676202297,-0.0657120868563652,-0.975962221622467,0.0003786164743360132,-0.2188534289598465,-0.4282095730304718,29.157806396484375,-10.58449649810791,41.144779205322266,0
254,2539866,0.03114994242787361,0.0202957596629858,-0.9983230233192444,0.13769719004631042,0.6701257824897766,-0.5306534767150879,31.20048713684082,-10.729257583618164,40.71380615234375,0
255,2550162,-0.0038072806783020496,0.08970794826745987,-0.9866371154785156,-0.4170473515987396,0.194960817694664,-0.4430950880050659,28.91798210144043,-11.032333374023438,41.794437408447266,0
256,2560252,0.0350148007273674,-0.018172599375247955,-1.0105626583099365,0.4090140163898468,-0.3020498752593994,-0.40701988339424133,30.887182235717773,-8.163208961486816,39.589351654052734,0
257,2569970,-0.009418170899152756,0.010665752924978733,-0.9886239767074585,-0.10071087628602982,-0.5077142119407654,0.3311285674571991,30.468814849853516,-6.696384906768799,39.994991302490234,0
258,2580275,0.02688172273337841,0.11069823056459427,-0.9899358153343201,-1.033389925956726,-0.5073445439338684,0.7009795308113098,30.28009605407715,-10.081572532653809,39.21848678588867,0
259,2589863,-0.024663638323545456,0.10085585713386536,-0.9814504981040955,0.7479777932167053,-0.45570045709609985,0.34239616990089417,31.0338077545166,-10.227313995361328,38.402164459228516,0
260,2599840,0.026303904131054878,-0.08804951608181,-0.9668470025062561,-0.3187459409236908,-0.11365367472171783,0.701155960559845,29.4854679107666,-9.746817588806152,40.120113372802734,0
261,2609908,-0.04883566498756409,0.05001526325941086,-0.969003438949585,-0.16697125136852264,0.009155910462141037,-0.17094406485557556,31.46033477783203,-10.086645126342773,38.59889602661133,0
262,2619958,-0.03983483463525772,0.02865889109671116,-0.9699446558952332,0.079086072742939,0.3383026123046875,0.5528414249420166,31.063352584838867,-8.726309776306152,38.86043930053711,0
263,2630160,-0.010447457432746887,0.048583585768938065,-0.998237133026123,0.033134713768959045,0.05827086418867111,0.5126218795776367,29.60251235961914,-11.338706970214844,38.567237854003906,0
264,2639907,0.06789080053567886,0.020716337487101555,-1.0027984380722046,0.4858969748020172,-0.25974389910697937,0.5266101360321045,28.04867935180664,-8.852516174316406,39.12731170654297,0
265,2650038,0.012796761468052864,-0.0005112988292239606,-1.0110818147659302,-0.6548305749893188,0.5222630500793457,-0.9626058340072632,29.641071319580078,-9.121719360351562,40.36850357055664,0
266,2660168,-0.039189413189888,-0.0844254419207573,-0.9971590042114258,0.5086216926574707,-0.21589773893356323,-0.07516667991876602,29.669898986816406,-9.505032539367676,40.609718322753906,0
267,2670131,-0.04469988867640495,-0.012774312868714333,-0.9814504384994507,0.3355606198310852,-0.6939930319786072,-0.2394215166568756,30.2156982421875,-8.141911506652832,40.82783508300781,0
268,2679984,0.03047819249331951,0.007105186115950346,-0.9406734108924866,0.6421295404434204,-0.7212422490119934,-0.28048041462898254,32.680091857910156,-9.73746395111084,39.597755432128906,0
269,2690086,-0.008945733308792114,0.009563994593918324,-0.9870054721832275,-0.36250966787338257,-0.277688205242157,-0.6047183275222778,31.37230110168457,-9.623245239257812,39.4954719543457,0
270,2699910,0.05836933106184006,-0.012058436870574951,-0.9751092195510864,-0.32559242844581604,-0.394165962934494,-0.04971837252378464,31.226964950561523,-10.2067289352417,43.827117919921875,0
271,2709951,-0.006147775333374739,-0.04729815199971199,-0.9875936508178711,0.06680373847484589,0.0031994269229471684,-0.49401533603668213,31.213289260864258,-12.663544654846191,41.39809799194336,0
272,2719978,-0.01065607089549303,0.0037845727056264877,-1.0204840898513794,0.15920035541057587,-0.23211669921875,-0.02617889828979969,29.84526252746582,-11.010339736938477,41.894203186035156,0
273,2730106,-0.08042605221271515,-0.0018208277178928256,-1.0042551755905151,-0.044920362532138824,0.4867579936981201,0.9598516225814819,31.6003475189209,-10.229313850402832,39.697425842285156,0
274,2740132,-0.03884534537792206,-0.011344334110617638,-0.9852920174598694,0.2924618721008301,-0.1514275223016739,-0.41942399740219116,29.855539321899414,-8.663108825683594,40.78223419189453,0
275,2750269,0.0637374147772789,-0.15858592092990875,-1.016170620918274,-0.5801896452903748,-0.12256139516830444,1.2773261070251465,28.493284225463867,-9.78377628326416,41.32183074951172,0
276,2760184,0.0019351011142134666,-0.044499631971120834,-0.9800062775611877,-0.32489049434661865,0.25165069103240967,0.1590929925441742,31.4478816986084,-10.064760208129883,40.21173095703125,0
277,2769822,-0.023964237421751022,-0.014250300824642181,-0.9972205758094788,0.09248926490545273,0.09024246782064438,-0.5396013855934143,29.53573226928711,-9.161355018615723,39.69320297241211,0
278,2779968,-0.028677046298980713,-0.08674633502960205,-1.0160282850265503,0.5267466902732849,1.3623902797698975,-0.03148714452981949,29.43916893005371,-9.476381301879883,38.72279739379883,0
279,2790150,0.024408016353845596,-0.055570751428604126,-1.0031521320343018,0.6420373320579529,-0.34953755140304565,0.2536104619503021,29.815658569335938,-9.609127044677734,40.210609436035156,0
280,2800122,-0.131429523229599,-0.03578934445977211,-1.0157983303070068,-0.4550187587738037,0.03501372039318085,-0.1486433744430542,29.319379806518555,-10.981882095336914,40.380496978759766,0
281,2809867,-0.01864537224173546,-0.06028943508863449,-0.9771923422813416,-0.5366073846817017,0.9533279538154602,-0.30007657408714294,30.347793579101562,-11.34007740020752,39.18352127075195,0
282,2819898,-0.01201902236789465,-0.022987015545368195,-0.984017550945282,1.2698276042938232,0.9635353684425354,0.846960186958313,29.73682975769043,-12.519218444824219,39.82744216918945,0
283,2829794,0.027475975453853607,-0.09074945002794266,-0.9981022477149963,0.4991407096385956,0.048571404069662094,0.3266984224319458,30.266559600830078,-8.472943305969238,40.2160758972168,0
284,2840269,0.031596697866916656,0.0004267136100679636,-0.9950090646743774,0.2782122790813446,1.010600209236145,-1.1528964042663574,31.619218826293945,-8.998490333557129,39.39566421508789,0
285,2850152,-0.023475686088204384,-0.012949392199516296,-1.0273138284683228,-0.3770182430744171,-0.2686987519264221,0.5125184059143066,29.735530853271484,-8.43569278717041,38.813114166259766,0
286,2859792,-0.06170564144849777,0.01199143473058939,-0.9972777962684631,0.6446294188499451,0.6677333116531372,0.12354050576686859,29.8887939453125,-9.943560600280762,40.80423355102539,0
287,2869962,-0.03976358473300934,0.039154864847660065,-1.000744342803955,0.5996699333190918,0.8065974712371826,0.35327380895614624,30.16977882385254,-10.430952072143555,40.390323638916016,0
288,2879689,-0.024906592443585396,0.014326127246022224,-1.0228397846221924,0.019907457754015923,0.4576976001262665,-0.6999747157096863,29.0953311920166,-9.797847747802734,39.362388610839844,0
289,2890057,-0.06403286755084991,-0.047951869666576385,-1.0458871126174927,-0.14710812270641327,0.21165481209754944,-0.2393030822277069,29.81014060974121,-11.084430694580078,38.1037483215332,0
290,2899953,0.05835893005132675,0.006380041595548391,-1.0089589357376099,1.2198023796081543,0.12748612463474274,0.6216155290603638,29.37799835205078,-11.71243953704834,40.162689208984375,0
291,2910096,0.04934001341462135,0.04478312283754349,-1.0162204504013062,-0.24164162576198578,0.20540772378444672,-0.6599403619766235,29.679080963134766,-9.242806434631348,38.72539520263672,0
292,2920080,-0.04048779234290123,0.01997070387005806,-0.983879804611206,-0.42841342091560364,0.05845298990607262,0.48727402091026306,28.90948486328125,-8.054224967956543,37.65168762207031,0
293,2930123,0.014215637929737568,0.06540007144212723,-1.0426326990127563,0.05543269217014313,0.8114099502563477,0.11127670109272003,29.15445899963379,-11.512307167053223,39.5336799621582,0
294,2940009,-0.014409367926418781,-0.002403006888926029,-1.0261632204055786,-0.5847790837287903,-0.6076235175132751,-0.3273976743221283,29.034732818603516,-12.517218589782715,39.95421600341797,0
295,2950111,0.020868677645921707,0.0066704829223454,-1.0041314363479614,0.4133494198322296,0.1202603206038475,-0.2631091773509979,29.625715255737305,-10.561447143554688,39.7636833190918,0
296,2959683,0.017444703727960587,-0.015690378844738007,-0.9809956550598145,-0.3619985282421112,-0.2810564637184143,-0.11999543011188507,29.743928909301758,-8.825261116027832,39.9447021484375,0
297,2969816,-0.06812319904565811,-0.03917853161692619,-1.029538869857788,0.9081019759178162,-0.13513357937335968,-0.283067911863327,29.74980354309082,-10.944428443908691,40.926513671875,0
298,2979860,0.008159731514751911,-0.012840472161769867,-1.0414087772369385,0.2977214753627777,0.27695998549461365,0.395029217004776,28.78318214416504,-8.418354034423828,41.08699417114258,0
299,2990285,-0.027109328657388687,0.03290408477187157,-0.9910920858383179,0.06162041425704956,-0.4421982169151306,-0.5706427097320557,30.066429138183594,-9.964668273925781,39.90313720703125,0
300,3000275,0.0203759353607893,0.0073753828182816505,-1.025114893913269,-0.22741445899009705,0.01803435944020748,-0.456840842962265,30.045368194580078,-8.318495750427246,39.21895980834961,0
301,3009715,-0.0009679952054284513,0.06298381835222244,-1.022036075592041,0.2564469873905182,-0.08657536655664444,-0.10194525867700577,29.02801513671875,-9.480144500732422,39.774837493896484,0
302,3019613,-0.009835803881287575,-0.03235108032822609,-0.9773901700973511,-0.3793092370033264,0.31692713499069214,0.4799902141094208,27.944442749023438,-7.866861820220947,39.172271728515625,0
303,3030067,0.0010481505887582898,-0.015317868441343307,-1.0183416604995728,-0.896545946598053,0.5239383578300476,0.37569722533226013,28.48887062072754,-10.53904914855957,38.583248138427734,0
304,3040045,-0.017629554495215416,-0.01008079294115305,-1.0189801454544067,-0.5459624528884888,0.1764184981584549,-0.17985890805721283,30.394865036010742,-9.964303970336914,41.56529998779297,0
305,3050223,0.03540831059217453,-0.06256779283285141,-0.9829673767089844,-0.5680806636810303,0.20588243007659912,0.3627113103866577,31.241199493408203,-11.27971363067627,40.72010040283203,0
306,3059644,-0.013550379313528538,0.012448908761143684,-1.0350444316864014,-0.4084296226501465,-0.5168915390968323,-0.7969676852226257,29.016761779785156,-11.106807708740234,38.97864532470703,0
307,3070112,0.05117133632302284,-0.026331081986427307,-0.9622542858123779,0.6944031119346619,-0.3070928156375885,0.38280725479125977,30.331127166748047,-10.445779800415039,38.26011276245117,0
308,3080046,-0.010500679723918438,-0.09844786673784256,-0.9817128777503967,-0.10778447985649109,0.2747088372707367,0.1160242110490799,30.682132720947266,-9.686601638793945,39.751983642578125,0
309,3089919,-0.009194825775921345,0.017749685794115067,-0.9886206984519958,0.39724722504615784,0.0980873629450798,-0.47227320075035095,31.06446075439453,-9.775460243225098,38.45390701293945,0
310,3100141,0.031359925866127014,0.030807241797447205,-1.006495475769043,0.5638750195503235,-0.15694426000118256,-0.49639955163002014,29.481595993041992,-9.18724250793457,39.06059265136719,0
311,3110016,0.03142545372247696,-0.015866369009017944,-1.0100934505462646,-0.5944862365722656,-0.4005904793739319,0.45090818405151367,30.987211227416992,-8.820719718933105,41.06821060180664,0
312,3119989,0.022866783663630486,0.10626757144927979,-1.043501615524292,0.042096398770809174,0.21901962161064148,-0.0645897164940834,29.080547332763672,-9.982998847961426,41.139259338378906,0
313,3130045,0.05937092378735542,0.1216328963637352,-1.0274302959442139,-0.4476184844970703,0.6780535578727722,-0.014014465734362602,30.69771385192871,-10.391828536987305,41.878971099853516,0
314,3140102,0.11910717934370041,0.002487452467903495,-0.9958301782608032,0.8195772767066956,-0.03820722922682762,0.3705974221229553,27.95853614807129,-11.043074607849121,39.5678825378418,0
315,3149901,-0.03520689904689789,-0.04790084436535835,-0.9826515316963196,-0.13573412597179413,-0.3816578686237335,0.04813334345817566,31.87286376953125,-10.088430404663086,39.46601486206055,0
316,3159978,0.015817346051335335,-0.0032039880752563477,-1.0309696197509766,-0.026425277814269066,-0.532833993434906,-0.8412931561470032,32.827884674072266,-11.449079513549805,41.12876510620117,0
317,3169917,0.028822503983974457,-0.07774153351783752,-1.0008925199508667,0.2014407068490982,0.3327357769012451,-0.02285030484199524,30.615009307861328,-10.970502853393555,39.15576934814453,0
318,3179782,-0.06961439549922943,0.01836843602359295,-0.994088351726532,-0.627691924571991,-0.036309417337179184,0.12598684430122375,30.651996612548828,-9.619336128234863,39.046993255615234,0
319,3189921,0.010578108951449394,-0.04342722147703171,-0.9672529101371765,0.32167956233024597,-0.740404486656189,-0.13761065900325775,28.96685218811035,-8.882672309875488,38.67298126220703,0
320,3200186,-0.0007667907630093396,-0.012436732649803162,-1.0163692235946655,0.0905008539557457,0.40237897634506226,0.17045339941978455,28.764436721801758,-10.778255462646484,40.684181213378906,0
321,3210185,-0.062297314405441284,-0.02688734605908394,-1.0394093990325928,-0.0781385526061058,0.16842903196811676,-0.344192773103714,30.557052612304688,-8.979701042175293,39.24685287475586,0
322,3219868,0.12568648159503937,-0.011025240644812584,-1.0122259855270386,-0.37842702865600586,-0.39911356568336487,0.06731832772493362,30.869033813476562,-11.177482604980469,39.30657196044922,0
323,3229780,0.04527826979756355,0.00025326150353066623,-0.9968392848968506,0.024956772103905678,0.06773943454027176,0.009930238127708435,29.503252029418945,-10.46835994720459,40.283607482910156,0
324,3239943,-0.01766481064260006,0.03853805735707283,-0.9883379340171814,0.7388080954551697,-0.4410967230796814,-0.12657825648784637,31.393943786621094,-11.362743377685547,38.25166702270508,0
325,3250138,-0.0033980784937739372,-0.02527407370507717,-1.0062323808670044,-0.8909398317337036,0.08955785632133484,0.321772962808609,30.47930145263672,-8.632827758789062,40.140960693359375,0
326,3260003,0.030766677111387253,-0.053460270166397095,-0.9858337640762329,-0.4284440279006958,-0.035383474081754684,0.26501935720443726,30.399803161621094,-8.892749786376953,39.26277160644531,0
327,3269974,-0.0853026881814003,0.010477935895323753,-1.0076403617858887,0.10604370385408401,-0.022268671542406082,0.42310428619384766,29.274234771728516,-10.462874412536621,40.81962585449219,0
328,3280242,0.03498807176947594,0.03845563158392906,-1.0120173692703247,1.1792311668395996,-0.6489455699920654,0.15604420006275177,30.435373306274414,-7.758172035217285,40.15504455566406,0
329,3289825,-0.019017774611711502,-0.007635891437530518,-1.002082109451294,-0.19664917886257172,-0.09654376655817032,-0.7145856022834778,29.380271911621094,-8.28996467590332,39.11448287963867,0
330,3299858,0.058899976313114166,-0.008370905183255672,-0.9823400974273682,-0.6472702026367188,-0.12803401052951813,0.5478906631469727,28.351978302001953,-9.081513404846191,39.30301284790039,0
331,3309956,-0.019099023193120956,0.027333887293934822,-1.0366408824920654,0.20037685334682465,-0.21456655859947205,-0.2108771950006485,30.79790687561035,-9.624438285827637,39.5531005859375,0
332,3320173,0.046468015760183334,-0.03388497605919838,-0.9869071841239929,0.30877232551574707,-0.008023395203053951,-0.3358210027217865,31.742412567138672,-10.019417762756348,39.00081253051758,0
333,3330016,-0.054085873067379,0.09241213649511337,-0.9931939244270325,0.47427812218666077,0.487108439207077,-0.5086905360221863,31.892213821411133,-9.658256530761719,39.76784896850586,0
334,3340010,0.04987896606326103,-0.023432306945323944,-1.0004613399505615,0.29635342955589294,-1.0725089311599731,-1.132595181465149,30.54515838623047,-8.381332397460938,39.8548698425293,0
335,3349836,0.027575669810175896,-0.010405332781374454,-1.035879135131836,0.6372950077056885,0.6319825649261475,0.22777816653251648,28.564491271972656,-11.749787330627441,39.781280517578125,0
336,3359775,0.10214748233556747,-0.08235061168670654,-1.0135283470153809,-0.5947084426879883,0.01422274298965931,-0.004852426238358021,30.66497230529785,-10.128700256347656,40.15772247314453,0
337,3369804,0.05927183851599693,0.08912310749292374,-0.9680898785591125,-0.3711649775505066,-0.3189047873020172,-0.7501907348632812,29.728527069091797,-10.37591552734375,40.29412841796875,0
338,3380053,0.04648783057928085,0.06991811841726303,-0.996382474899292,0.12072242051362991,-0.3181195855140686,-0.003954711835831404,29.874544143676758,-10.888620376586914,40.138912200927734,0
339,3389975,0.012044044211506844,-0.014744849875569344,-1.024359941482544,0.6701781749725342,0.26842206716537476,0.7551191449165344,29.887226104736328,-8.891541481018066,40.62179183959961,0
340,3399894,0.0036059431731700897,-0.05073176696896553,-1.0017729997634888,-0.5929511785507202,0.7598636150360107,0.634893000125885,31.17902374267578,-8.5328369140625,40.08808135986328,0
341,3409892,0.027636762708425522,-0.07842977344989777,-1.0139551162719727,-0.8808348178863525,0.20732246339321136,-0.10076946765184402,30.062393188476562,-9.12389850616455,39.82132339477539,0
342,3420074,0.024942081421613693,0.08348187059164047,-1.0124930143356323,-0.5712724924087524,0.33183616399765015,0.6337148547172546,29.899791717529297,-10.937105178833008,38.97784423828125,0
343,3429961,-0.02867279201745987,0.02670237235724926,-0.9892346858978271,0.770269513130188,0.7074362635612488,-0.00287192827090621,29.3868465423584,-8.679884910583496,39.976253509521484,0
344,3439816,0.0477091521024704,-0.0637962818145752,-1.010854959487915,0.660796046257019,0.48075664043426514,-0.016004638746380806,29.138294219970703,-8.395084381103516,39.479515075683594,0
345,3450309,-0.037470027804374695,-0.05986357107758522,-1.0011875629425049,-0.17507468163967133,0.12497729808092117,0.2132723182439804,31.041597366333008,-9.330472946166992,40.191585540771484,0
346,3459910,0.005156909581273794,-0.06952807307243347,-1.0148249864578247,0.7016479969024658,0.303257018327713,-0.48118218779563904,29.630685806274414,-9.977605819702148,38.967350006103516,0
347,3469919,0.02862466499209404,-0.05275140330195427,-1.0165085792541504,1.3991433382034302,-0.6211553812026978,0.05960438773036003,32.1156005859375,-9.387417793273926,41.595314025878906,0
348,3479986,0.0069176210090518,-0.024452684447169304,-0.9986311793327332,0.5518545508384705,0.03457348048686981,-0.22989927232265472,28.402584075927734,-9.086241722106934,39.77956008911133,0
349,3490025,0.005835722200572491,-0.04525173828005791,-1.0045373439788818,0.35864004492759705,0.47926440834999084,0.6083035469055176,33.1108512878418,-9.17747974395752,40.75472640991211,0
350,3500215,-0.017731498926877975,-0.09937304258346558,-1.0340707302093506,-0.2196071594953537,-0.37113556265830994,0.5690811276435852,30.480680465698242,-10.597793579101562,40.770755767822266,0
351,3510077,-0.016422849148511887,-0.04376162216067314,-0.9830014705657959,-1.1474344730377197,-1.2962124347686768,-0.05921807885169983,29.845787048339844,-10.030147552490234,38.223304748535156,0
352,3520144,0.011636600829660892,0.02137203887104988,-1.0076167583465576,0.560206949710846,0.36320626735687256,-0.3202110230922699,29.119735717773438,-8.303616523742676,38.8901252746582,0
353,3529872,-0.032703716307878494,-0.020925136283040047,-1.0163238048553467,-0.6395602226257324,-0.5263054370880127,-0.9501168131828308,30.304838180541992,-9.606182098388672,41.185306549072266,0
354,3539791,0.010732848197221756,-0.01580730453133583,-1.0131031274795532,0.10093459486961365,-0.1187346801161766,-0.38148459792137146,30.538780212402344,-8.735819816589355,40.15028762817383,0
355,3550013,0.09347904473543167,0.020494770258665085,-1.0031049251556396,-0.2757367193698883,-0.4834611415863037,-0.4963029623031616,28.181982040405273,-10.160408020019531,38.543922424316406,0
356,3559840,-0.008937469683587551,-0.04906933754682541,-1.014269232749939,-0.24657350778579712,0.9650936722755432,0.61396324634552,30.213232040405273,-9.63591480255127,43.27403259277344,0
357,3569877,0.0029056540224701166,-0.010792040266096592,-0.9927829504013062,-0.6222617030143738,-0.456378310918808,-1.056616187095642,29.131271362304688,-11.465042114257812,38.47863006591797,0
358,3580140,0.00958080030977726,-0.06820239871740341,-1.002194881439209,0.2289348542690277,0.06582266092300415,0.6350417137145996,29.160993576049805,-9.483946800231934,39.78253936767578,0
359,3589917,-0.024604657664895058,-0.07922199368476868,-0.9639959335327148,-0.4691449999809265,-0.7526232600212097,0.29908427596092224,29.549358367919922,-8.142988204956055,41.228641510009766,0
360,3600189,-0.03229285031557083,0.014729408547282219,-1.0392261743545532,-0.18369343876838684,0.7433139085769653,1.1281579732894897,32.2949333190918,-10.410979270935059,39.49782180786133,0
361,3609863,0.08269937336444855,-0.1296694427728653,-0.9926984906196594,0.4772537648677826,0.2859812080860138,0.07514536380767822,30.758840560913086,-10.204565048217773,39.759918212890625,0
362,3619759,0.05521045997738838,0.00617565680295229,-0.9914972186088562,0.27778875827789307,-0.32191815972328186,-0.3799872100353241,31.30802345275879,-12.212682723999023,38.869781494140625,0
363,3630007,0.06495129317045212,0.023224223405122757,-1.0204280614852905,0.18296876549720764,0.26890119910240173,0.6127479076385498,31.42803382873535,-10.012857437133789,38.524288177490234,0
364,3639808,-0.04174536466598511,0.026642868295311928,-1.0072121620178223,-0.4325583577156067,1.1309828758239746,0.5581919550895691,32.025550842285156,-10.855018615722656,38.218753814697266,0
365,3650057,0.03312277793884277,-0.053426820784807205,-0.9939939379692078,0.07037476450204849,0.5367895364761353,0.6387441754341125,30.260417938232422,-10.841752052307129,40.57638931274414,0
366,3659832,0.035720232874155045,0.006964132655411959,-0.9623585343360901,0.26920628547668457,0.08990620821714401,-0.030439430847764015,31.94162940979004,-9.463160514831543,41.42986297607422,0
367,3670207,-0.08002501726150513,5.1572184020187706e-05,-0.9999662041664124,-1.0455743074417114,-0.18230333924293518,-0.8567730784416199,29.6693172454834,-10.158221244812012,39.68846893310547,0
368,3680225,-0.012165207415819168,-0.06184167042374611,-1.0308794975280762,-0.1947891116142273,-0.13141514360904694,0.16100886464118958,30.77883529663086,-11.26746654510498,38.952884674072266,0
369,3690041,-0.03100091591477394,0.004975995980203152,-0.9790909290313721,0.14195670187473297,0.45121949911117554,0.4940955936908722,29.83001136779785,-11.05649185180664,41.406524658203125,0
370,3700232,-0.03358304500579834,-0.029169254004955292,-0.9745734333992004,-0.1620577722787857,0.06072379648685455,0.4404996931552887,28.54639434814453,-10.404038429260254,41.28303146362305,0
371,3709904,-0.00900217518210411,0.02313205972313881,-0.9894880652427673,0.29258212447166443,-0.10915246605873108,0.5988197922706604,28.86297035217285,-9.932598114013672,39.87273025512695,0
372,3719756,0.054380107671022415,-0.014755011536180973,-1.0373731851577759,-0.7231357097625732,0.014832742512226105,-0.24743877351284027,28.458269119262695,-10.347574234008789,40.2371711730957,0
373,3729910,0.02211492694914341,-0.035198912024497986,-0.9980353116989136,-0.5166957974433899,-0.10028769075870514,1.5604802370071411,29.95128631591797,-10.352869987487793,39.83530044555664,0
374,3740096,-0.013830738142132759,0.016484195366501808,-1.0070958137512207,-0.09878834336996078,0.3204660415649414,0.5999943017959595,32.266666412353516,-10.483915328979492,40.28976821899414,0
375,3750137,-0.09159868955612183,-0.01118540670722723,-1.0298601388931274,0.8012586832046509,0.581741988658905,-0.30572715401649475,30.541027069091797,-10.5015869140625,39.184974670410156,0
376,3760086,-0.08724159747362137,-0.001503118546679616,-1.0188963413238525,-0.25267112255096436,-0.42652246356010437,-0.0696193054318428,30.568662643432617,-9.606301307678223,39.61677932739258,0
377,3769842,-0.044681500643491745,-0.060084421187639236,-0.9919819831848145,-0.05644990876317024,-0.3132897615432739,0.6846704483032227,29.95430564880371,-9.464786529541016,40.6567268371582,0
378,3779858,-0.00012478580174501985,0.03029727376997471,-1.0043052434921265,-1.1248246431350708,-0.07045707106590271,-0.07916990667581558,29.152877807617188,-9.947203636169434,39.892520904541016,0
379,3789827,-0.011689416132867336,0.005856710951775312,-0.9812499284744263,-0.31088128685951233,0.014570893719792366,-0.039027437567710876,29.57794189453125,-10.40534782409668,39.53860855102539,0
380,3799950,0.005404842086136341,-0.0648040622472763,-1.0073401927947998,0.8743529915809631,0.13789504766464233,0.2994551956653595,30.350997924804688,-9.904767990112305,40.5455322265625,0
381,3810084,-0.035096559673547745,-0.02155609056353569,-1.032029628753662,-0.6317586302757263,0.1351839303970337,-0.11988544464111328,30.739402770996094,-10.243165016174316,38.97807312011719,0
382,3820227,-0.05843125656247139,-0.0061335135251283646,-1.0148581266403198,0.7286776304244995,0.393734335899353,0.48317357897758484,28.62287712097168,-10.623483657836914,40.03153991699219,0
383,3829712,0.08056474477052689,0.026796799153089523,-0.962784469127655,-0.12806597352027893,-0.11228972673416138,-0.36462870240211487,31.045093536376953,-9.722326278686523,40.35502243041992,0
384,3840095,9.402043360751122e-05,0.022176917642354965,-0.9929890632629395,-0.15959002077579498,0.18468672037124634,-0.03553483262658119,30.343210220336914,-7.7064900398254395,39.58534240722656,0
385,3849999,-0.02018553391098976,0.003860537428408861,-1.0261298418045044,-0.9400480389595032,0.23865574598312378,0.19029472768306732,31.139657974243164,-9.516865730285645,40.71087646484375,0
386,3860116,0.04829751327633858,0.025435540825128555,-0.9618496894836426,0.5714683532714844,-0.6742070317268372,0.12605899572372437,28.746980667114258,-10.044937133789062,40.309959411621094,0
387,3869784,0.011576018296182156,0.05730856582522392,-0.9822449684143066,-0.036796241998672485,-0.07082153111696243,-0.369063138961792,28.503267288208008,-9.550788879394531,40.31007766723633,0
388,3880161,0.002585812471807003,0.03175527602434158,-1.0193045139312744,0.8119458556175232,-1.0622544288635254,-0.4131281077861786,28.848777770996094,-9.670666694641113,39.6168327331543,0
389,3889934,0.11193622648715973,0.04370579123497009,-1.0126869678497314,0.06990856677293777,-0.2004813402891159,-0.7653560638427734,30.903867721557617,-10.683023452758789,39.95274353027344,0
390,3900021,0.006715119816362858,-0.08261822909116745,-1.0043331384658813,0.03929685056209564,-0.2977016568183899,-0.43571120500564575,31.2903995513916,-10.205617904663086,38.622779846191406,0
391,3909967,0.12176113575696945,0.014321648515760899,-0.9924042820930481,0.6853105425834656,-0.6416100263595581,-0.8388081192970276,28.96532440185547,-9.632617950439453,42.681297302246094,0
392,3920131,0.007475307676941156,-0.03596920520067215,-0.9607346653938293,0.7400037050247192,0.18298611044883728,-0.4616994857788086,30.670333862304688,-11.440972328186035,40.78158187866211,0
393,3930053,0.158930242061615,0.024949004873633385,-0.9829341769218445,0.41713836789131165,-0.0244268961250782,-0.18701858818531036,29.01963233947754,-11.701950073242188,40.248268127441406,0
394,3940062,-0.02113245613873005,0.008489351719617844,-0.9838904142379761,-0.4047337472438812,0.1897105723619461,-0.38423845171928406,28.77972984313965,-10.329680442810059,40.23859786987305,0
395,3949809,0.09878215193748474,-0.10489897429943085,-0.9383643865585327,0.6695951223373413,-0.201850026845932,1.0733177661895752,29.733383178710938,-11.064790725708008,41.49028015136719,0
396,3959882,-0.08482558280229568,0.059297092258930206,-1.0002301931381226,-0.1253790408372879,-0.053667932748794556,0.08985492587089539,29.778018951416016,-9.905945777893066,39.86570739746094,0
397,3970061,-0.014550832100212574,-0.02391742169857025,-0.970435380935669,-0.10632485896348953,0.21527951955795288,1.0065604448318481,31.257404327392578,-8.331870079040527,39.6926155090332,0
398,3980120,-0.06722931563854218,0.06717279553413391,-0.9872968792915344,0.2728513479232788,-0.051965925842523575,0.016408998519182205,30.32322120666504,-10.433170318603516,38.359676361083984,0
399,3989854,0.05699475109577179,-0.041160665452480316,-0.9984164834022522,-0.24259768426418304,0.10276305675506592,0.21120001375675201,29.240116119384766,-9.483847618103027,38.707584381103516,0
400,3999800,3.933614152629161e-06,0.026469267904758453,-1.0213991403579712,0.5917335748672485,0.6847659945487976,-0.29169511795043945,29.998319625854492,-10.800191879272461,39.00190353393555,0
401,4009892,0.014289706945419312,-0.004515327513217926,-0.9948572516441345,-0.6102145314216614,0.03459063917398453,0.6887378096580505,30.13016128540039,-10.236103057861328,39.70289993286133,0
402,4020063,-0.01825479045510292,0.05024409666657448,-0.9839811325073242,0.326752245426178,0.005252168048173189,-0.5847637057304382,28.78102684020996,-12.353729248046875,39.93357467651367,0
403,4030189,0.020729534327983856,-0.005853500682860613,-0.9882199764251709,0.03028769977390766,-0.5458959341049194,0.023999635130167007,29.20306396484375,-8.272701263427734,39.7763786315918,0
404,4039850,0.016594504937529564,0.012378727085888386,-1.0549590587615967,1.3866899013519287,-0.3410522937774658,-0.7909995913505554,28.340415954589844,-8.885538101196289,39.71073913574219,0
405,4049892,-0.04339868202805519,0.03209099546074867,-0.9970868825912476,-0.5819022059440613,0.5716574192047119,-0.08085015416145325,28.705129623413086,-10.151385307312012,39.70881271362305,0
406,4059824,0.03684544935822487,0.004399383440613747,-1.003440260887146,-0.17483972012996674,-0.7795246243476868,-0.11975491791963577,30.315702438354492,-11.381189346313477,39.66928482055664,0
407,4070184,0.026854565367102623,0.09918171912431717,-0.9964408278465271,0.4960649013519287,0.5468764305114746,0.14126218855381012,28.51583480834961,-8.935283660888672,40.298583984375,0
408,4079911,-0.009953063912689686,0.013638139702379704,-1.001369833946228,0.18628913164138794,0.35146135091781616,1.224795937538147,29.427001953125,-11.75106143951416,41.184879302978516,0
409,4090154,0.02305632270872593,-0.000911956827621907,-0.9856003522872925,0.3363676071166992,-0.686788022518158,0.683484673500061,29.938453674316406,-10.175214767456055,40.36188507080078,0
410,4099852,-0.016716977581381798,0.032510388642549515,-1.0353388786315918,0.50307697057724,0.3032812476158142,-0.7085484862327576,30.76104164123535,-8.18738079071045,40.63340377807617,0
411,4109894,-0.012739422731101513,-0.011202314868569374,-0.9957743287086487,-0.3407686948776245,-0.029329214245080948,-0.686744749546051,28.917804718017578,-10.086166381835938,39.64569854736328,0
412,4119897,0.025332316756248474,-0.06808750331401825,-0.9914288520812988,0.3857688307762146,-0.2883182466030121,0.3989177942276001,29.54077911376953,-9.308404922485352,38.992427825927734,0
413,4130009,-0.07173564285039902,0.06415637582540512,-1.0252472162246704,0.5509898662567139,-0.07028329372406006,0.32738813757896423,30.61349868774414,-10.983222961425781,40.45675277709961,0
414,4140074,0.056404273957014084,-0.010374500416219234,-1.0062721967697144,-0.39560654759407043,0.43611258268356323,0.5542847514152527,28.79278564453125,-9.504576683044434,39.72425842285156,0
415,4150000,0.02488924004137516,-0.029728934168815613,-0.9940923452377319,0.007562147919088602,0.08165213465690613,-0.4673081338405609,29.297651290893555,-8.325075149536133,40.227474212646484,0
416,4159911,0.041355788707733154,0.030436614528298378,-1.0257278680801392,-0.03159744665026665,-0.45666295289993286,1.2099144458770752,27.903234481811523,-11.136816024780273,40.7446174621582,0
417,4170066,0.08753853291273117,0.08851498365402222,-1.0095692873001099,-0.28689461946487427,0.34812459349632263,0.4700714647769928,30.62440299987793,-8.82553482055664,39.55857849121094,0
418,4180362,-0.06605049967765808,-0.010616532526910305,-0.9926252365112305,-0.07465692609548569,-0.7478326559066772,-0.08164617419242859,31.530447006225586,-10.58371353149414,39.73723602294922,0
419,4190046,-0.06933831423521042,-0.00928244087845087,-1.015515685081482,-0.20533356070518494,0.26108336448669434,0.004582101944833994,28.419212341308594,-10.092426300048828,39.858367919921875,0
420,4199932,-0.031763553619384766,-0.034286852926015854,-1.0146422386169434,-0.4399147629737854,-0.5289276242256165,0.1251366287469864,30.28728675842285,-9.879977226257324,39.990875244140625,0
421,4209955,0.0830608680844307,-0.013748200610280037,-0.9937343597412109,0.09877099841833115,-0.6986201405525208,0.07472749799489975,29.69398307800293,-10.863353729248047,39.83708190917969,0
422,4220197,-0.03245143964886665,-0.041763558983802795,-0.9977641105651855,-0.02105933427810669,-0.5618181824684143,-0.10126197338104248,30.812084197998047,-11.371197700500488,39.42573928833008,0
423,4230093,-0.04016207903623581,-0.018149539828300476,-0.9822132587432861,-0.44914039969444275,-0.5940227508544922,-0.4352078437805176,29.844247817993164,-9.567248344421387,39.96999740600586,0
424,4239759,0.03135746344923973,-0.044182393699884415,-1.0161159038543701,0.36703693866729736,0.22234772145748138,-0.9601122736930847,28.445194244384766,-10.196592330932617,40.63918685913086,0
425,4250099,-0.07233615219593048,0.00300034461542964,-0.9943446516990662,-0.06864363700151443,0.7823877930641174,-0.6008285880088806,31.017005920410156,-9.233182907104492,39.53703308105469,0
426,4260154,-0.007064489647746086,-0.02135969139635563,-1.0160537958145142,-0.2890007197856903,0.1936596930027008,0.9994666576385498,30.90099334716797,-10.01652717590332,39.642906188964844,0
427,4269723,-0.01855424791574478,-0.0383923277258873,-0.9891484379768372,-0.7907361388206482,-0.8562713861465454,0.3327277600765228,30.01957893371582,-12.775276184082031,39.30017852783203,0
428,4280117,-0.02211930602788925,-0.024872014299035072,-0.961502730846405,-0.31612566113471985,0.15098847448825836,-0.5280098915100098,29.94232749938965,-10.489858627319336,40.073604583740234,0
429,4290336,-0.008283617906272411,0.10205099731683731,-1.0052701234817505,0.0009344041463918984,0.06731018424034119,0.5555064082145691,31.217958450317383,-8.896465301513672,41.17367172241211,0
430,4300252,0.05790238082408905,-0.1145806834101677,-1.002732276916504,-0.44908788800239563,-0.6947504878044128,-0.4596330523490906,30.333471298217773,-12.142080307006836,40.496009826660156,0
431,4310039,-0.05334436148405075,-0.03679937124252319,-1.0227699279785156,-0.2405509054660797,-0.41732487082481384,0.37858712673187256,28.70838737487793,-10.981040954589844,40.70551300048828,0
432,4319946,0.056454822421073914,0.023463129997253418,-0.9970077872276306,0.39279699325561523,0.5933197140693665,0.20483997464179993,30.068603515625,-9.701597213745117,41.568267822265625,0
433,4329814,-0.035973597317934036,0.0855364054441452,-1.0038820505142212,-0.16007426381111145,-0.28464871644973755,-1.1920632123947144,28.410831451416016,-10.43154239654541,39.601261138916016,0
434,4340088,0.07390505820512772,0.0725683718919754,-0.9668703079223633,-0.6589342951774597,0.9309315085411072,0.20960304141044617,31.033206939697266,-9.797666549682617,38.85698318481445,0
435,4349704,0.03860437497496605,-0.13671281933784485,-0.9974570870399475,0.47980567812919617,-0.21544072031974792,0.43864190578460693,29.926464080810547,-10.348087310791016,39.830543518066406,0
436,4360072,0.010361178778111935,-0.03584897145628929,-0.9964784979820251,0.5377397537231445,-0.22372891008853912,-0.08906606584787369,29.88150978088379,-10.801499366760254,40.41313934326172,0
437,4370193,0.031853705644607544,0.033931877464056015,-1.0062140226364136,-0.630230724811554,-0.4086804687976837,-0.38914766907691956,29.56801986694336,-11.088208198547363,39.78657531738281,0
438,4379982,-0.014851396903395653,0.04160826653242111,-1.0028982162475586,-0.5075624585151672,-0.22074173390865326,-1.0089970827102661,30.317214965820312,-8.767948150634766,39.62519073486328,0
439,4389993,-0.02570500411093235,-0.04322849214076996,-1.0063832998275757,0.06613699346780777,0.4560132622718811,-1.7162418365478516,31.970327377319336,-8.507408142089844,39.286014556884766,0
440,4399702,0.047848861664533615,-0.017483355477452278,-1.0034230947494507,0.1601359099149704,0.14734867215156555,-0.5365583300590515,27.684478759765625,-8.861003875732422,39.795249938964844,0
441,4409983,0.10933145135641098,0.11921597272157669,-0.989022970199585,0.8671298027038574,-0.265564501285553,-0.756523609161377,29.763011932373047,-9.421388626098633,41.44470977783203,0
442,4420054,0.07764613628387451,0.053472887724637985,-1.0046181678771973,-0.32296958565711975,-0.014480488374829292,-0.4762888252735138,28.52181053161621,-10.504070281982422,38.684303283691406,0
443,4429962,0.05232220143079758,-0.012551479041576385,-1.0069859027862549,-0.6329650282859802,-0.3164786696434021,0.2805103659629822,29.68700408935547,-9.89240837097168,39.23135757446289,0
444,4439949,0.027873769402503967,-0.016881100833415985,-1.032345175743103,0.4038734436035156,-0.27359136939048767,-0.44014009833335876,29.467615127563477,-10.13489055633545,40.38106918334961,0
445,4449717,0.0958254262804985,0.02970900945365429,-1.014449119567871,-0.35168418288230896,-0.49172061681747437,0.08728157728910446,29.36880111694336,-8.711199760437012,39.4338264465332,0
446,4459959,0.005049581173807383,0.03505565598607063,-0.9885637164115906,0.5103373527526855,-0.09223610162734985,0.40943658351898193,31.58481216430664,-8.441163063049316,39.548336029052734,0
447,4469957,-0.0800010934472084,0.02716166526079178,-1.0445476770401,-1.2622743844985962,-0.5289097428321838,0.48408806324005127,29.898605346679688,-9.931780815124512,40.694820404052734,0
448,4479911,0.010561945848166943,-0.035321786999702454,-1.0357779264450073,-0.30187028646469116,0.26763343811035156,-0.3139277994632721,29.336471557617188,-8.445635795593262,41.115055084228516,0
449,4489929,0.03551310673356056,0.006640066392719746,-1.0451105833053589,0.32408517599105835,-0.5410112142562866,0.07313930988311768,30.326595306396484,-10.99736213684082,39.769371032714844,0
450,4500271,-0.0276871919631958,-0.08408741652965546,-0.9936184883117676,0.12995854020118713,-0.2586616575717926,-0.7147502899169922,28.74116325378418,-9.347408294677734,40.84993362426758,0
451,4510018,-0.023531349375844002,-0.02590251713991165,-0.9935316443443298,-1.2306510210037231,0.6611815094947815,-0.09582175314426422,29.064910888671875,-10.075767517089844,39.94145202636719,0
452,4519975,-0.05917038023471832,0.021953780204057693,-0.9823771715164185,-0.4422576129436493,0.2730174958705902,0.484082967042923,30.7821044921875,-10.909847259521484,38.6544075012207,0
453,4530223,-0.0408356711268425,0.03460339456796646,-1.0046484470367432,-0.5203812122344971,-0.3988041579723358,0.20952245593070984,29.430583953857422,-7.9427103996276855,40.36381149291992,0
454,4540085,0.006162196863442659,-0.03265390172600746,-1.0152702331542969,-0.8432536125183105,0.12553705275058746,0.342915803194046,28.93088722229004,-10.547950744628906,38.8795051574707,0
455,4549946,-0.05001288279891014,0.02745220810174942,-1.0264921188354492,0.18514437973499298,-0.45556214451789856,-0.37053340673446655,29.116365432739258,-10.04382610321045,39.359928131103516,0
456,4560000,-0.12492876499891281,0.02046358957886696,-1.012592077255249,0.5846686959266663,0.4051048457622528,0.033342476934194565,30.724246978759766,-10.458788871765137,40.63398361206055,0
457,4569740,-0.12820640206336975,-0.05993501842021942,-1.0112066268920898,0.3886274993419647,-0.5200252532958984,0.12412219494581223,31.71800422668457,-10.119038581848145,39.14930725097656,0
458,4580095,0.047025129199028015,0.02047930844128132,-1.0128276348114014,-0.2014310210943222,1.1095967292785645,-0.45571082830429077,31.06739616394043,-11.504592895507812,40.50387191772461,0
459,4589727,-0.04299618676304817,-0.042031433433294296,-1.0391944646835327,0.7133917212486267,0.5520899295806885,0.509080708026886,28.53133773803711,-9.870965003967285,38.70991134643555,0
460,4600068,-0.06179589033126831,-0.02253793366253376,-1.0331488847732544,0.5536819696426392,0.6075255274772644,0.21707600355148315,31.4799747467041,-11.010001182556152,40.39175033569336,0
461,4609881,0.01500584278255701,0.004489467479288578,-1.018932580947876,-0.27213388681411743,-0.3351735770702362,0.9827381372451782,29.895280838012695,-10.44168472290039,40.80657196044922,0
462,4619747,-0.006835622247308493,0.015653952956199646,-0.986998975276947,0.19056865572929382,0.21714931726455688,0.4996824264526367,29.07431411743164,-9.38250732421875,40.57748031616211,0
463,4630248,-0.02763764187693596,0.08247292786836624,-1.0177141427993774,-0.1324877142906189,0.13321802020072937,0.3492061495780945,32.44767379760742,-8.640907287597656,39.12495803833008,0
464,4639813,-0.053265318274497986,-0.010131851769983768,-1.0108445882797241,0.4090092182159424,-0.04239559546113014,0.9173658490180969,29.086353302001953,-8.259525299072266,40.64479446411133,0
465,4649965,0.006298720370978117,-0.029063887894153595,-0.9906951785087585,-0.03861239179968834,0.2586103677749634,-0.47542765736579895,29.778043746948242,-9.937106132507324,39.66095733642578,0
466,4659889,0.06071159988641739,-0.0868266299366951,-0.9948186874389648,0.16055311262607574,-0.05541914701461792,0.08733729273080826,29.431001663208008,-9.898731231689453,38.22458267211914,0
467,4669919,0.01788628101348877,0.06677377969026566,-1.0351650714874268,0.18531455099582672,-0.3994900584220886,-0.5490582585334778,29.229354858398438,-9.79522705078125,41.00147247314453,0
468,4679990,-0.01357476506382227,-0.025746073573827744,-0.9751192927360535,0.407570481300354,1.0870335102081299,0.2965150773525238,30.713401794433594,-8.997308731079102,39.33966827392578,0
469,4689837,0.02111539989709854,0.03851458802819252,-0.9865529537200928,-0.6186437010765076,-0.35431739687919617,0.697759747505188,29.4609317779541,-10.481512069702148,39.235374450683594,0
470,4700132,0.05433018133044243,-0.005119221284985542,-1.035933494567871,1.0159627199172974,-1.3384042978286743,0.9511438608169556,30.343523025512695,-10.543253898620605,39.93233871459961,0
471,4710205,0.0910475105047226,0.13366787135601044,-1.0221086740493774,0.40497124195098877,0.15704938769340515,0.21563376486301422,30.998811721801758,-10.91585636138916,41.223323822021484,0
472,4720296,-0.01355858612805605,0.02321067824959755,-0.9931056499481201,0.48855888843536377,0.05756036564707756,-0.4846683442592621,31.06767463684082,-10.664551734924316,38.53709030151367,0
473,4730004,0.001151667907834053,0.011551783420145512,-1.0260069370269775,-0.4416560232639313,-0.05943788215517998,-0.3148491680622101,30.282712936401367,-9.486614227294922,39.24879455566406,0
474,4740170,0.029494289308786392,-0.048722028732299805,-1.0306549072265625,0.6490347385406494,-1.168143391609192,0.28344812989234924,32.122798919677734,-9.910329818725586,38.76094436645508,0
475,4749977,0.04098837822675705,-0.03579177334904671,-0.9862997531890869,0.23938344419002533,0.61130690574646,-0.13094012439250946,29.266775131225586,-10.135770797729492,40.43658447265625,0
476,4760000,-0.02836182527244091,-0.014703324995934963,-0.9950818419456482,-0.7327058911323547,-0.9435257911682129,1.091719627380371,30.84999656677246,-10.458587646484375,42.1791877746582,0
477,4770139,-0.015974007546901703,-0.008743003010749817,-0.9955569505691528,-0.9948052167892456,0.3547849953174591,0.461038202047348,29.916414260864258,-9.865013122558594,41.809898376464844,0
478,4779463,-0.00796844158321619,0.05297667160630226,-1.0203074216842651,0.461495578289032,-0.2700560688972473,-0.3698667883872986,30.054439544677734,-9.2446928024292,38.99930953979492,0
479,4790056,-0.11000711470842361,-0.0823829248547554,-1.0265398025512695,0.40720808506011963,0.17255574464797974,0.2828819751739502,29.250783920288086,-8.962506294250488,39.66118240356445,0
480,4799889,0.00183927733451128,0.033256810158491135,-0.984605073928833,0.00142611563205719,-0.9660715460777283,0.11532551050186157,30.767881393432617,-9.70549201965332,39.19702911376953,0
481,4810019,0.05282988399267197,0.060755591839551926,-0.9767597317695618,-0.4402819275856018,0.5812560319900513,-0.44049227237701416,31.519821166992188,-11.352548599243164,40.960182189941406,0
482,4819940,-0.027771372348070145,0.06908347457647324,-1.022109866142273,0.21897651255130768,-0.4497288763523102,0.10742542892694473,30.235349655151367,-10.419172286987305,40.621524810791016,0
483,4830036,0.0062318528071045876,0.01809372752904892,-0.9677858948707581,0.6136298179626465,-0.3397400677204132,0.2631569504737854,29.96763801574707,-8.968537330627441,40.472206115722656,0
484,4839638,0.057873111218214035,0.004688438959419727,-1.0044313669204712,0.4794143736362457,0.7686870694160461,0.009162762202322483,27.697622299194336,-10.976517677307129,40.199214935302734,0
485,4850130,-0.06342467665672302,-0.06325379014015198,-0.9899441599845886,-1.4073232412338257,0.21412767469882965,-0.5855352282524109,27.891769409179688,-10.924867630004883,41.44130325317383,0
486,4859847,0.004969021771103144,-0.06789235770702362,-0.9977043867111206,0.3511365056037903,-0.4755706787109375,0.1040809378027916,29.42337989807129,-10.601696968078613,41.877479553222656,0
487,4870145,-0.013165764510631561,-0.04447697475552559,-1.0032081604003906,0.26934924721717834,0.6947574615478516,-0.106502465903759,30.284460067749023,-8.238051414489746,38.5272216796875,0
488,4879897,-0.0719422921538353,0.016140619292855263,-0.9694859981536865,0.38499537110328674,0.7926067113876343,-0.19970393180847168,28.69599151611328,-11.974023818969727,39.69042205810547,0
489,4890129,-0.01397634856402874,0.03984389454126358,-1.039505124092102,0.12407992780208588,0.3946499824523926,0.46851691603660583,30.4376220703125,-10.516535758972168,39.983116149902344,0
490,4899898,0.10641083866357803,0.01674177683889866,-0.988040566444397,-0.81389981508255,0.46723201870918274,0.05877712368965149,29.078746795654297,-10.77564811706543,38.51163864135742,0
491,4909715,-0.05619397386908531,0.09307597577571869,-0.9898452758789062,-0.3517593443393707,0.28770697116851807,0.6599039435386658,31.0560302734375,-9.39710807800293,39.89593505859375,0
492,4920065,0.007895099930465221,-0.004409861285239458,-1.0216450691223145,-0.03825533762574196,-0.6017311811447144,-0.2192736566066742,31.521461486816406,-9.006675720214844,39.812259674072266,0
493,4930053,0.06812925636768341,-0.01256075594574213,-0.966144859790802,-0.1421644389629364,0.33780637383461,-0.3902509808540344,31.180612564086914,-11.520339012145996,40.321720123291016,0
494,4939960,0.04483996331691742,-0.024356333538889885,-1.0095818042755127,0.3159589171409607,0.1655370593070984,-0.4714439809322357,30.970050811767578,-9.851631164550781,38.82383346557617,0
495,4950069,0.014342564158141613,-0.00413154112175107,-0.9936968088150024,-0.7259998917579651,-0.33530929684638977,-0.5776517987251282,30.241477966308594,-10.154094696044922,39.75086975097656,0
496,4959900,-0.0004025916277896613,-0.015979446470737457,-1.014902949333191,0.39301973581314087,-0.5347357392311096,0.17665162682533264,28.085922241210938,-10.790494918823242,39.31330490112305,0
497,4970049,0.04922579228878021,-0.0035300422459840775,-0.9762516021728516,-0.007783330976963043,0.866280734539032,-0.4328438937664032,29.091341018676758,-9.803911209106445,40.29738998413086,0
498,4980299,-0.030542347580194473,-0.02270495519042015,-0.9963952898979187,-0.9562509655952454,0.29870307445526123,0.2913314402103424,32.17125701904297,-10.71455192565918,40.471466064453125,0
499,4990009,-0.09270184487104416,0.010197942145168781,-0.9878973960876465,-0.06088870391249657,0.02976193279027939,-0.20338761806488037,27.282318115234375,-9.17835521697998,39.45805358886719,0
500,5000227,-0.004890939220786095,-0.0014728123787790537,-0.9891983270645142,-0.5623842477798462,0.3872029781341553,-0.2053147852420807,31.63359260559082,-7.946569919586182,39.385215759277344,0
501,5009934,0.03814307227730751,0.07120051234960556,-0.9671497941017151,0.41737717390060425,0.0014158450067043304,0.23277796804904938,29.947399139404297,-10.614910125732422,40.08359909057617,0
502,5019882,0.005815738346427679,-0.005249816924333572,-0.9622524380683899,-0.7488684058189392,0.3207145631313324,-0.4441644549369812,30.087121963500977,-11.087423324584961,41.0981559753418,0
503,5030056,0.03225495293736458,0.06190057843923569,-1.0196717977523804,0.2511932849884033,-0.6261053681373596,-0.832618772983551,29.6922607421875,-8.629737854003906,39.506309509277344,0
504,5039986,-0.048905253410339355,0.07791516929864883,-1.020881175994873,-0.3255693316459656,-1.1829246282577515,-0.1083262711763382,29.250160217285156,-8.388833045959473,40.002540588378906,0
505,5050077,-0.03126341104507446,0.10426259785890579,-1.0047342777252197,0.8205645084381104,0.9119569659233093,-0.1546836644411087,29.012866973876953,-9.633559226989746,39.54938888549805,0
506,5060144,0.04377136006951332,0.05598248541355133,-1.0163391828536987,-0.9344186782836914,0.2061648666858673,0.14668568968772888,29.756277084350586,-9.334615707397461,39.76548767089844,0
507,5069846,-0.01726248487830162,-0.022231953218579292,-0.9920461773872375,-0.04219233989715576,0.2412073314189911,-0.5697340369224548,30.393287658691406,-8.2534761428833,41.034996032714844,0
508,5080116,-0.01825994998216629,-0.06493043899536133,-0.9857361316680908,-0.6543793082237244,0.5672793984413147,-0.08936937898397446,31.5142879486084,-9.996853828430176,39.106502532958984,0
509,5089937,0.019221695140004158,0.09282169491052628,-0.9721576571464539,-0.25904154777526855,0.9739975929260254,-0.12953037023544312,29.887685775756836,-9.810903549194336,41.07579040527344,0
510,5099740,0.04821692407131195,-0.06235060468316078,-0.991888701915741,-0.3171917200088501,0.35021835565567017,-0.13043661415576935,31.424779891967773,-8.237099647521973,39.18255615234375,0
511,5110145,0.06728314608335495,-0.06658241897821426,-0.9659624695777893,-0.7501521706581116,-0.312864750623703,0.7586087584495544,31.36480140686035,-10.972167015075684,39.765323638916016,0
512,5120178,-0.09138885140419006,-0.0664178803563118,-0.9445480108261108,0.16497905552387238,-0.33745962381362915,-0.4198671877384186,28.45574378967285,-9.517117500305176,41.046180725097656,0
513,5129990,-0.09773269295692444,0.039594121277332306,-0.972417414188385,0.0048276688903570175,-0.4291532337665558,-0.1398809850215912,31.13128662109375,-9.25801944732666,39.830360412597656,0
514,5140067,-0.08241502195596695,-0.04040760174393654,-1.006857991218567,0.24521201848983765,-0.3635120689868927,0.3583356738090515,30.252771377563477,-11.525297164916992,39.29799270629883,0
515,5150172,0.12210577726364136,0.009630667977035046,-1.0194807052612305,0.2405262142419815,0.15364651381969452,0.1939898282289505,31.381484985351562,-10.515848159790039,40.84784698486328,0
516,5160070,-0.0047295126132667065,0.01087771262973547,-0.9827465415000916,0.1989358514547348,0.8374850153923035,0.27739450335502625,28.127696990966797,-10.04505729675293,39.763126373291016,0
517,5169896,-0.05173494294285774,-0.11002497375011444,-0.9682779312133789,-0.555810809135437,-0.07716592401266098,0.04084590822458267,30.13081169128418,-10.907052993774414,39.02333450317383,0
518,5179943,-0.07696235179901123,0.060894034802913666,-1.0039843320846558,0.9384112358093262,-0.41238418221473694,-0.4266161620616913,30.737144470214844,-10.316935539245605,40.65522766113281,0
519,5189966,-0.08658748865127563,-0.04921620711684227,-1.0175728797912598,-0.33887937664985657,0.051812708377838135,-0.38091427087783813,30.35611343383789,-10.674424171447754,41.39352798461914,0
520,5199839,-0.03667882829904556,0.12295961380004883,-1.0061671733856201,0.06435715407133102,-0.16975462436676025,-0.6743584871292114,29.046175003051758,-9.035475730895996,38.70138931274414,0
521,5209817,0.03518717736005783,-0.09511644393205643,-0.9683658480644226,-0.051744475960731506,0.5762696266174316,0.06095919758081436,29.44634437561035,-10.877175331115723,38.31758499145508,0
522,5219937,-0.002141260541975498,0.027249224483966827,-1.0227305889129639,0.7544390559196472,1.0125949382781982,-0.03419823572039604,31.360912322998047,-9.461085319519043,40.122947692871094,0
523,5230014,0.06669304519891739,-0.051727838814258575,-0.9801421761512756,0.09870367497205734,-0.058132171630859375,0.7486403584480286,29.073711395263672,-12.010345458984375,38.041343688964844,0
524,5240099,-0.09337753057479858,0.032813139259815216,-0.9884384870529175,0.16569772362709045,0.266303151845932,-0.3863273561000824,29.54526710510254,-8.675823211669922,38.43056869506836,0
525,5250105,0.031738873571157455,-0.017149848863482475,-1.0037952661514282,-0.5787442922592163,-0.23687687516212463,0.5937984585762024,30.9923152923584,-10.240510940551758,40.75552749633789,0
526,5259958,0.05466248095035553,-0.020366236567497253,-0.9940652847290039,-0.9833150506019592,-0.1870216280221939,1.0158493518829346,28.32511329650879,-8.78626823425293,39.38412094116211,0
527,5269984,-0.004739894066005945,-0.009778058156371117,-1.004361629486084,-0.41323381662368774,0.5041128993034363,-0.3432333171367645,30.068437576293945,-8.722759246826172,40.8990478515625,0
528,5279896,-0.012895372696220875,-0.05367763340473175,-0.9911534786224365,-0.38736364245414734,-0.5503221154212952,-0.5179315209388733,28.9031982421875,-9.560202598571777,40.59728240966797,0
529,5289770,0.008213533088564873,0.055999912321567535,-0.9972010254859924,-0.22699590027332306,0.6208770275115967,0.9798703789710999,29.71529197692871,-9.624846458435059,40.92341232299805,0
530,5299747,-0.021241433918476105,-0.022330360487103462,-1.0044491291046143,-0.315158486366272,-0.03479500859975815,-0.20879867672920227,28.61695098876953,-10.153192520141602,40.755821228027344,0
531,5309699,0.10006660968065262,-0.030746225267648697,-0.9955554604530334,-0.08809100836515427,0.06715025007724762,0.4165281653404236,29.111530303955078,-10.482897758483887,40.904544830322266,0
532,5319924,0.008711851201951504,-0.08876223862171173,-0.9730295538902283,0.7023134827613831,0.5475773215293884,0.6295817494392395,30.744970321655273,-9.922572135925293,40.40768814086914,0
533,5329945,0.04689623787999153,-0.004828282166272402,-1.0119887590408325,0.26151350140571594,-0.22731366753578186,0.3169325590133667,28.976097106933594,-10.782655715942383,40.979557037353516,0
534,5340336,0.008132846094667912,-0.03868299350142479,-0.9803643226623535,-0.6364831328392029,-0.4127083122730255,0.11077465862035751,27.949016571044922,-10.72256088256836,40.57933044433594,0
535,5349992,-0.04330570250749588,-0.039948634803295135,-1.0186412334442139,-0.24214476346969604,0.09893545508384705,-0.44910767674446106,28.516904830932617,-10.24340534210205,41.00497055053711,0
536,5359770,0.06451800465583801,-0.04836852476000786,-1.0360562801361084,1.027536392211914,-0.3955553472042084,-0.7293897271156311,30.100318908691406,-10.440866470336914,40.39558029174805,0
537,5369941,0.007038366049528122,-0.05611668527126312,-0.9687005281448364,-0.16683582961559296,-0.28598952293395996,0.4583367109298706,30.05899429321289,-8.527701377868652,40.77685546875,0
538,5380042,-0.04467662051320076,-0.06382710486650467,-0.9740654826164246,-0.3631182909011841,0.38006317615509033,0.5874282717704773,31.673564910888672,-10.907235145568848,38.76030349731445,0
539,5390265,0.005039883777499199,-0.032526955008506775,-1.0440694093704224,0.40702420473098755,0.2743963301181793,0.20296645164489746,30.454748153686523,-11.464622497558594,40.552310943603516,0
540,5400072,0.05137282982468605,0.028847279027104378,-0.994799792766571,-1.1713627576828003,0.6594797372817993,0.46081992983818054,29.685670852661133,-10.481040000915527,39.492889404296875,0
541,5409657,0.008326211012899876,-0.003183710156008601,-1.0024659633636475,0.12275606393814087,-0.5874766111373901,-0.04311514273285866,30.111719131469727,-12.768336296081543,40.813724517822266,0
542,5419749,0.06253832578659058,-0.08051568269729614,-1.0146872997283936,-0.10548923909664154,0.07504202425479889,0.5778282880783081,30.486495971679688,-9.824331283569336,39.28738021850586,0
543,5430063,0.011376695707440376,0.07001690566539764,-0.994951069355011,-0.9998906254768372,0.038196124136447906,0.20050054788589478,29.99760627746582,-11.94670581817627,41.234798431396484,0
544,5439942,0.003511337097734213,0.005104334559291601,-1.018746018409729,0.16502083837985992,-0.05103350803256035,0.513903021812439,30.663949966430664,-10.796333312988281,41.3841438293457,0
545,5449863,0.033425454050302505,-0.05002991482615471,-0.9926783442497253,-0.23404204845428467,-0.8153796195983887,0.48761364817619324,30.11277198791504,-9.880105018615723,40.265907287597656,0
546,5459759,0.013847683556377888,-0.024842223152518272,-0.993556797504425,-0.22046993672847748,-0.376369446516037,0.7264360785484314,28.176393508911133,-9.632620811462402,40.43958282470703,0
547,5469732,0.0069487011060118675,-0.006514967884868383,-0.9554113745689392,-0.4761645793914795,-0.08782970160245895,0.4610998034477234,29.839506149291992,-9.464527130126953,41.526912689208984,0
548,5479978,-0.02066292054951191,0.06663263589143753,-1.0169053077697754,-0.11059719324111938,0.6131092309951782,-0.2145644724369049,29.43535804748535,-9.349860191345215,41.569915771484375,0
549,5490015,0.021381806582212448,-0.06793227791786194,-0.9784243106842041,-0.507269561290741,0.22134752571582794,0.36611562967300415,30.387651443481445,-11.540176391601562,40.5671272277832,0
550,5500067,0.0030320927035063505,0.11003034561872482,-1.0006189346313477,0.019495433196425438,-0.12287508696317673,0.3178342878818512,30.78715705871582,-9.324603080749512,40.450313568115234,0
551,5510011,0.033158645033836365,0.1085864007472992,-1.0262067317962646,0.5172639489173889,-0.14271317422389984,0.6640719771385193,29.332454681396484,-9.127758026123047,40.765560150146484,0
552,5520005,0.0555875189602375,-0.030428361147642136,-1.011717438697815,-0.11757224053144455,-0.05185019224882126,-0.5154277086257935,28.95881462097168,-11.291324615478516,40.486854553222656,0
553,5529901,0.008476938121020794,-0.06742935627698898,-1.0139862298965454,0.5286776423454285,0.5785150527954102,-0.11548061668872833,30.917970657348633,-8.826634407043457,37.39848327636719,0
554,5540084,-0.030820505693554878,0.02716979943215847,-0.9937652945518494,-0.31570205092430115,0.4120388329029083,0.2725011110305786,29.882648468017578,-10.029255867004395,41.37571334838867,0
555,5549880,-0.04655919969081879,0.034877270460128784,-1.0029807090759277,-0.3273322284221649,0.2538343369960785,-0.23095114529132843,30.74115753173828,-10.626686096191406,38.93168258666992,0
556,5559727,0.04079791158437729,0.028958294540643692,-0.9633559584617615,-0.4930734932422638,-1.1222947835922241,-0.40095511078834534,29.754270553588867,-9.130870819091797,41.82103729248047,0
557,5569868,-0.09613335877656937,-0.0311322882771492,-1.000910758972168,-0.5120004415512085,-0.24119704961776733,0.6414536833763123,30.265533447265625,-11.555785179138184,42.03996658325195,0
558,5580208,0.0036580595187842846,-0.010951298289000988,-1.012954831123352,-1.2862167358398438,0.6377992630004883,0.4189434051513672,29.890201568603516,-9.48780632019043,39.13713073730469,0
559,5589926,0.07127530872821808,0.0532386340200901,-1.0124565362930298,0.20276689529418945,0.3287370204925537,-0.9503694176673889,29.872596740722656,-9.6635160446167,39.8165283203125,0
560,5600088,0.009107572957873344,0.010791419073939323,-1.0016884803771973,-0.2111385464668274,0.08837714046239853,0.41746291518211365,30.450382232666016,-10.17004108428955,41.02864074707031,0
561,5610078,0.08224672824144363,-0.04090612009167671,-0.9798989295959473,-0.2667163014411926,-0.4289886951446533,-0.7129757404327393,29.388818740844727,-9.62380313873291,39.27296447753906,0
562,5620039,0.021576596423983574,0.0258308257907629,-0.9991253614425659,-0.04090677201747894,-0.3434123992919922,0.318408727645874,29.679094314575195,-8.640451431274414,40.4682502746582,0
563,5629703,-0.05764716491103172,-0.019581977277994156,-0.9719009399414062,0.51889967918396,-0.21537603437900543,1.2036885023117065,31.42750358581543,-10.221626281738281,38.57851791381836,0
564,5640125,-0.07798212021589279,-0.040381357073783875,-0.9970864653587341,0.41598835587501526,-0.968940794467926,0.02280261553823948,29.42643165588379,-9.143926620483398,40.04890441894531,0
565,5649939,0.07853356003761292,0.017839841544628143,-1.0178747177124023,-0.15915489196777344,-0.20547416806221008,-0.2412220984697342,30.49374008178711,-11.194280624389648,39.00615310668945,0
566,5659892,-0.09520380944013596,-0.12091764062643051,-0.9954180717468262,0.05354034900665283,0.32163915038108826,-0.7216683626174927,28.70745086669922,-10.591270446777344,40.148616790771484,0
567,5669892,0.03245874121785164,-0.05567368492484093,-0.9852785468101501,-0.5738153457641602,0.17182569205760956,-0.8835758566856384,29.792274475097656,-9.345966339111328,39.55784225463867,0
568,5679950,-0.056748080998659134,0.005970751866698265,-1.0056787729263306,0.702510416507721,-0.39474695920944214,-0.3930375576019287,29.036327362060547,-9.512731552124023,40.179073333740234,0
569,5690251,0.04513957351446152,-0.04012942686676979,-1.0008867979049683,0.29027464985847473,-0.009767541661858559,-1.0295919179916382,31.232572555541992,-10.956836700439453,40.04636001586914,0
570,5700118,-0.00790421199053526,-0.06458739191293716,-0.9915280342102051,0.7486234903335571,0.6329069137573242,0.05831059440970421,30.21190643310547,-9.495692253112793,41.394737243652344,0
571,5710012,0.024783017113804817,-0.05447738617658615,-1.0016565322875977,1.235603928565979,0.5684419274330139,-0.8890570998191833,29.420557022094727,-9.165815353393555,40.3177375793457,0
572,5719799,0.010666923597455025,-0.035669874399900436,-0.9934085607528687,0.006730231456458569,-0.2697676122188568,0.2661239802837372,31.658809661865234,-10.737564086914062,40.010581970214844,0
573,5729938,0.10877377539873123,0.032947879284620285,-1.0168319940567017,-0.19909065961837769,-0.7790986895561218,-0.17609888315200806,30.5629940032959,-9.590542793273926,40.14328384399414,0
574,5739990,-0.020273586735129356,-0.0011588467750698328,-1.0218197107315063,0.5500884652137756,-0.4498745799064636,-0.28613603115081787,29.71338653564453,-10.247502326965332,39.346519470214844,0
575,5750039,0.006278325337916613,-0.04166185110807419,-1.0051941871643066,0.17855162918567657,-0.19647985696792603,-0.6271212697029114,29.864788055419922,-7.683077335357666,40.25390625,0
576,5759961,0.0338875874876976,-0.03792388737201691,-1.0045006275177002,-0.14965763688087463,-0.31731605529785156,-0.5868247747421265,29.718809127807617,-11.357013702392578,40.228057861328125,0
577,5770009,0.039740633219480515,-0.09446913748979568,-0.9959861040115356,0.6974068284034729,-0.45972758531570435,-1.0304596424102783,31.03837013244629,-11.701578140258789,39.550357818603516,0
578,5780134,0.035069290548563004,-0.01128383632749319,-0.9923989176750183,0.21674567461013794,-0.33996766805648804,0.6684878468513489,29.786949157714844,-8.545315742492676,39.84093475341797,0
579,5789759,0.03216224163770676,-0.010664744302630424,-1.0067490339279175,0.22863811254501343,0.39899224042892456,0.35840991139411926,26.846723556518555,-11.045180320739746,40.511592864990234,0
580,5799856,-0.012522013857960701,-0.033851757645606995,-1.0084855556488037,1.0614124536514282,-0.2237665206193924,0.06476457417011261,29.31641387939453,-10.285592079162598,38.83271408081055,0
581,5810021,0.058688703924417496,0.03466765955090523,-0.9787006378173828,0.6942322254180908,-0.9126645922660828,0.9971240758895874,29.692834854125977,-11.133855819702148,38.233211517333984,0
582,5820156,-0.03097197227180004,-0.027771491557359695,-0.9812864661216736,-0.5529416799545288,0.5736466646194458,0.7814923524856567,29.80185317993164,-10.43250846862793,39.56120681762695,0
583,5829932,-0.008825479075312614,0.00717623857781291,-0.9780319929122925,0.24285072088241577,-1.4527921676635742,-0.278850257396698,30.60324478149414,-10.550782203674316,40.40956497192383,0
584,5839950,-0.06873901188373566,-0.0959884449839592,-1.022871732711792,0.4077496826648712,0.11828796565532684,-0.4023764431476593,30.723825454711914,-8.311100959777832,40.36800765991211,0
585,5850065,-0.021364964544773102,-0.04357041418552399,-1.0555444955825806,0.5669113397598267,-1.048506736755371,0.5524367094039917,31.06134033203125,-9.525497436523438,40.87743377685547,0
586,5859942,0.05516727268695831,0.01901905983686447,-0.9764646291732788,-0.32434502243995667,0.34821274876594543,-0.17757822573184967,29.34000587463379,-10.491083145141602,40.26945877075195,0
587,5869902,-0.07603362947702408,-0.024013295769691467,-0.9964123368263245,-0.15477117896080017,0.17601852118968964,-0.12116967886686325,28.61347770690918,-8.134270668029785,39.81832504272461,0
588,5880027,0.04855651408433914,0.02988201193511486,-0.996029794216156,0.3582732081413269,0.09481320530176163,-0.339044451713562,29.20414161682129,-8.174895286560059,40.214603424072266,0
589,5889790,-0.026464048773050308,0.02124069258570671,-0.9917578101158142,0.4373422861099243,-0.1851220428943634,-0.9707174301147461,28.441144943237305,-10.054746627807617,38.37937545776367,0
590,5899856,-0.0880802795290947,-0.027776041999459267,-1.0549895763397217,0.27379971742630005,-0.21200574934482574,0.30459064245224,29.875255584716797,-8.590862274169922,39.60665512084961,0
591,5909982,-0.016201531514525414,0.01852862909436226,-0.9910522699356079,0.07367140054702759,0.14646638929843903,-0.1435539424419403,28.817289352416992,-10.189704895019531,39.4421501159668,0
592,5919998,0.03519423305988312,0.10298634320497513,-0.9700095057487488,-0.6383175253868103,-0.21861109137535095,-0.21225781738758087,28.873044967651367,-9.384844779968262,39.7928581237793,0
593,5930033,-0.009909412823617458,0.04936471953988075,-0.9995788931846619,-0.416277140378952,0.000981809920631349,0.5105941891670227,30.279294967651367,-9.069761276245117,39.708961486816406,0
594,5940126,-0.003518260084092617,-0.1004188060760498,-1.0012403726577759,0.02919980324804783,-0.3306722044944763,-0.2982376515865326,30.128093719482422,-9.577282905578613,39.63086700439453,0
595,5950020,0.03201916813850403,0.001240197685547173,-0.9886989593505859,-0.4824012517929077,0.13229823112487793,-0.6262926459312439,30.03642463684082,-9.246917724609375,40.5469856262207,0
596,5960184,0.06638413667678833,0.004878871608525515,-0.9654126167297363,0.45124486088752747,-0.09766606986522675,0.4100011885166168,31.350292205810547,-10.069053649902344,39.29906463623047,0
597,5969840,-0.0749320313334465,0.026012498885393143,-1.031693935394287,-0.014816121198236942,0.4018052816390991,-0.8790885210037231,29.841615676879883,-11.436877250671387,41.379493713378906,0
598,5980161,0.10495304316282272,-0.013539823703467846,-1.026502013206482,0.5511806011199951,-0.8670114278793335,-0.5403546094894409,30.032032012939453,-11.450665473937988,41.44485855102539,0
599,5990091,0.01409075129777193,-0.012419793754816055,-1.018558382987976,0.8778367638587952,1.4701370000839233,-0.3019576966762543,30.062164306640625,-10.866398811340332,42.06159210205078,0
600,5999969,0.07660574465990067,-0.014278775081038475,-0.9766896367073059,-0.13468211889266968,-0.16870231926441193,0.21009960770606995,29.259994506835938,-10.029544830322266,39.145111083984375,0
601,6009872,0.03447706997394562,-0.036901604384183884,-0.9969579577445984,-0.14357765018939972,-0.5713865756988525,-0.009555487893521786,30.660877227783203,-8.3475980758667,40.00564956665039,0
602,6020315,-0.005461141932755709,0.06714795529842377,-1.045620322227478,-0.04701089859008789,-0.30914393067359924,-0.6699022054672241,32.93409729003906,-8.93857192993164,39.57823944091797,0
603,6029851,0.027308963239192963,-0.06935087591409683,-0.998344361782074,-0.6743984818458557,-0.10055927187204361,0.632307231426239,28.03261947631836,-10.553234100341797,39.852806091308594,0
604,6039934,-0.015594509430229664,-0.010558323934674263,-1.0018367767333984,-0.2749956250190735,-0.5751195549964905,0.7832053303718567,30.136062622070312,-10.120382308959961,41.1256217956543,0
605,6049953,-0.0029741120524704456,-0.044202934950590134,-0.9784560799598694,0.026464540511369705,0.5848262310028076,0.8141340017318726,30.680524826049805,-9.414462089538574,39.48605728149414,0
606,6059917,0.07188381254673004,-0.07341329008340836,-0.9728452563285828,0.2569843530654907,0.6771194338798523,0.24354678392410278,30.379608154296875,-12.172505378723145,39.25346374511719,0
607,6069662,0.004060253966599703,0.012638896703720093,-0.9957565665245056,-0.6775275468826294,-0.6254779100418091,-0.9317131042480469,30.321582794189453,-10.302370071411133,39.339420318603516,0
608,6079962,-0.06189864128828049,-0.048105038702487946,-1.0018759965896606,0.15248335897922516,-1.1109991073608398,-0.18980853259563446,30.83912467956543,-8.733802795410156,40.96625900268555,0
609,6089906,0.005975394044071436,0.024784758687019348,-1.003283143043518,-0.5796076059341431,-0.06871406733989716,-0.5357257723808289,29.524288177490234,-10.391778945922852,39.863037109375,0
610,6099973,-0.017188865691423416,0.041095420718193054,-0.981093168258667,0.39816907048225403,-0.4468679130077362,0.46385064721107483,30.40506362915039,-9.886466026306152,39.00259017944336,0
611,6109806,-0.0338154211640358,-0.014542846009135246,-0.9780281186103821,-0.5285569429397583,0.11852637678384781,0.5544286370277405,30.15515899658203,-8.239522933959961,39.333404541015625,0
612,6119829,-0.0027876354288309813,0.046255964785814285,-1.0446240901947021,0.2711820900440216,-0.7169236540794373,-0.3821941912174225,27.994356155395508,-7.847496032714844,40.447261810302734,0
613,6129901,0.027592943981289864,-0.007133750710636377,-1.024470567703247,-0.38907453417778015,-0.05934993177652359,-0.31738367676734924,28.616777420043945,-9.903264999389648,40.41271209716797,0
614,6140401,0.0067009893245995045,-0.04100692644715309,-0.9725200533866882,0.4417145550251007,-0.26602402329444885,0.5547191500663757,28.47677230834961,-9.212448120117188,40.72019958496094,0
615,6149785,-0.042939554899930954,0.003602406242862344,-0.9650603532791138,1.3714267015457153,0.4143756628036499,0.16623224318027496,31.884767532348633,-9.072202682495117,40.005271911621094,0
616,6160095,0.07644865661859512,-0.03235340863466263,-0.9996073246002197,0.34862521290779114,0.11156207323074341,0.3840285539627075,29.665788650512695,-9.518930435180664,42.13151931762695,0
617,6170239,-0.020409539341926575,0.005099257919937372,-1.0481641292572021,0.16196513175964355,0.23299066722393036,-0.26174643635749817,29.25214195251465,-9.965041160583496,40.37030792236328,0
618,6180217,-0.04261358082294464,0.0047960346564650536,-0.9931418299674988,0.10842137783765793,-0.17727601528167725,0.1617022156715393,30.276304244995117,-9.45661449432373,38.011070251464844,0
619,6190114,-0.02061130292713642,-0.035312872380018234,-1.0581789016723633,0.2838555872440338,-0.715411365032196,0.33422258496284485,30.28938102722168,-10.886736869812012,38.189212799072266,0
620,6200192,-0.0014652475947514176,-0.03332816809415817,-1.020363211631775,-0.8301985859870911,0.15435270965099335,0.34151846170425415,30.498952865600586,-9.538446426391602,40.07318115234375,0
621,6210102,0.07090166956186295,-0.0757823958992958,-0.9997100830078125,0.05595594644546509,0.7309603095054626,0.9071094989776611,30.043615341186523,-8.591168403625488,40.975555419921875,0
622,6220150,-0.05199136957526207,0.022969042882323265,-0.9717307686805725,-0.503293514251709,0.43661728501319885,0.7183091640472412,30.441442489624023,-11.378853797912598,38.28044128417969,0
623,6230170,0.005335894413292408,0.02594403736293316,-1.0338382720947266,0.43851950764656067,0.5461998581886292,0.8463804125785828,29.16851806640625,-9.519948959350586,39.16917419433594,0
624,6239760,-0.006902423687279224,-0.009927668608725071,-0.9930228590965271,0.5339958667755127,0.7704441547393799,0.46098384261131287,29.985727310180664,-11.255925178527832,42.54139709472656,0
625,6249955,0.044529542326927185,0.026061367243528366,-0.9966244697570801,-0.5694506168365479,-0.46848395466804504,0.4347850978374481,29.983118057250977,-12.177393913269043,37.94826126098633,0
626,6259905,-0.007557163946330547,0.027275219559669495,-0.9833681583404541,-0.4702451229095459,0.2871534526348114,-0.01710818149149418,30.791301727294922,-12.034543991088867,40.3403205871582,0
