seq,time_us,ax,ay,az,gx,gy,gz,mx,my,mz,roll_gyro,pitch_gyro,yaw_gyro,roll_cf,pitch_cf,yaw_cf,roll_ekf,pitch_ekf,yaw_ekf,roll_madgwick,pitch_madgwick,yaw_madgwick,roll_mahony,pitch_mahony,yaw_mahony,drop_flag
0,40,-0.018277354538440704,0.009991302154958248,-1.0185457468032837,0.14920836687088013,-0.02044174075126648,0.7153946757316589,30.853906631469727,-10.468839645385742,39.920413970947266,-0.6707230806350708,-0.39052844047546387,0.46468305587768555,0.8254085183143616,0.20244933664798737,0.6174987554550171,0.3527803122997284,0.923144519329071,0.2249012440443039,-1.9544991254806519,-0.008230247534811497,-1.1399273872375488,-0.0342077799141407,2.5007009506225586,1.29043710231781,0
1,9749,0.018227308988571167,-0.00850585475564003,-0.9974570274353027,0.18757982552051544,-0.622376561164856,-0.370416522026062,29.689714431762695,-9.990939140319824,40.539466857910156,0.37684112787246704,-0.6976317763328552,0.2714017629623413,-0.23240280151367188,-0.15431150794029236,-0.16450011730194092,-1.0109167098999023,-0.669238269329071,1.0637791156768799,0.4311028718948364,-1.013535499572754,0.05421944335103035,0.07058615982532501,-1.0088984966278076,0.13141778111457825,0
2,19869,0.01525490265339613,-0.023550566285848618,-0.9874207377433777,-0.19805358350276947,-0.9670059084892273,-0.7022620439529419,30.4685115814209,-11.88427448272705,39.72791290283203,0.09661545604467392,-0.8970681428909302,1.1844297647476196,0.7599856853485107,1.1649129390716553,1.227960228919983,-1.747003436088562,0.7927541136741638,-0.4205893576145172,1.0394302606582642,0.6547970175743103,0.3008918762207031,-0.8697049617767334,3.0126965045928955,-0.3952566981315613,0
3,29927,-0.1329442709684372,-0.0756334662437439,-0.9896381497383118,-0.08846262097358704,0.18341653048992157,-0.08486425131559372,29.000593185424805,-10.776782989501953,40.58719253540039,-0.6597219705581665,1.1144742965698242,-0.16217826306819916,-0.5816630125045776,0.07189638167619705,-0.43960708379745483,-1.1342705488204956,-0.8236132860183716,0.44127699732780457,-0.14193792641162872,-1.6226097345352173,1.8610241413116455,-1.6671963930130005,1.1878513097763062,0.6928711533546448,0
4,40094,-0.021005844697356224,0.06983821094036102,-1.0028818845748901,0.37227246165275574,0.026815153658390045,0.5098045468330383,30.91944122314453,-10.631487846374512,39.997352600097656,-1.7750641107559204,0.916593074798584,0.7212275266647339,-1.117699384689331,-1.2046805620193481,0.9498595595359802,-0.1457734853029251,-0.334183007478714,0.10624553263187408,-0.1921272575855255,0.4863053858280182,-1.062890648841858,-0.27850911021232605,0.5942410230636597,-0.01831154152750969,0
5,50085,-0.0007923715165816247,0.11774373054504395,-0.9825853109359741,0.22994589805603027,-0.4175562262535095,-0.6137405633926392,31.22715950012207,-12.059314727783203,39.81795120239258,0.12466131895780563,1.3616522550582886,-0.27272120118141174,0.18535073101520538,0.4329143464565277,-1.1182360649108887,0.06738559156656265,0.31597092747688293,-0.30545905232429504,0.6988494396209717,-0.0008300166227854788,1.2320237159729004,0.0736677423119545,1.1118950843811035,-0.7025895118713379,0
6,59975,-0.04298163950443268,-0.01477106474339962,-1.0545039176940918,-0.55023193359375,0.5630456805229187,-0.06198002025485039,31.033090591430664,-9.6183443069458,40.27177047729492,-1.4585866928100586,-0.20782256126403809,1.477273941040039,0.7810924053192139,0.6191035509109497,0.39566880464553833,-2.28863263130188,-0.5372286438941956,-1.1845813989639282,-1.0267906188964844,-0.4316704571247101,0.5147376656532288,1.009611964225769,0.6342906951904297,-1.7184613943099976,0
7,69915,-0.07491655647754669,-0.038454245775938034,-1.0092719793319702,-0.5510027408599854,0.20916800200939178,-0.6368300914764404,29.20813751220703,-8.850166320800781,39.38606262207031,0.54728102684021,0.9334954619407654,1.1763310432434082,-1.817673921585083,-1.1331498622894287,0.1139216274023056,2.07535982131958,0.15293993055820465,0.3765101432800293,-2.1964361667633057,0.3203513026237488,-0.15663033723831177,-0.6969799995422363,1.252873420715332,0.7216026186943054,0
8,79734,0.014207933098077774,-0.03286096453666687,-1.0313485860824585,0.4544461667537689,0.2645236551761627,-0.10695595294237137,30.161611557006836,-7.21253776550293,40.20200729370117,0.3549870252609253,-0.45195168256759644,-1.0461175441741943,-1.1335104703903198,-1.3719500303268433,2.1677088737487793,-0.5604273080825806,-0.7629907131195068,-0.17660824954509735,0.47001296281814575,0.3160310387611389,-0.12061937898397446,2.3896234035491943,0.7490808963775635,-1.1957727670669556,0
9,90034,0.04252547398209572,0.02343667484819889,-0.9855396747589111,-0.41966474056243896,0.8144441843032837,0.3249739706516266,30.1765193939209,-10.351284980773926,40.53413772583008,0.23450830578804016,1.745129942893982,-0.6664181351661682,0.8996559977531433,-0.634834349155426,0.15591777861118317,-0.9371321797370911,0.19721300899982452,-0.3038913309574127,-0.07156138122081757,0.7793257832527161,-0.31094545125961304,0.15466347336769104,0.06089404225349426,-0.45220300555229187,0
10,100126,0.04166373237967491,0.01047827210277319,-0.9846675395965576,0.17587710916996002,0.06243983656167984,-0.1898329257965088,31.99781608581543,-9.807607650756836,41.75178909301758,-0.09877309203147888,0.4568369388580322,-0.13982464373111725,0.8608158230781555,-0.4056389033794403,0.31532594561576843,0.802509605884552,1.4765795469284058,1.3586715459823608,-0.35064244270324707,0.712936282157898,-0.4338517487049103,-1.1476284265518188,-1.1114633083343506,-1.5029048919677734,0
11,110043,-0.05904294177889824,-0.05676316097378731,-0.9718589186668396,-0.4054241478443146,-0.408437579870224,1.2384086847305298,29.919330596923828,-11.088418006896973,39.14585494995117,1.3834669589996338,0.0959523543715477,-0.7110649347305298,-0.7206833362579346,-0.5447933077812195,0.7982902526855469,-2.0661163330078125,-1.2300397157669067,1.6530598402023315,-0.03478758782148361,1.9732054471969604,0.11033416539430618,-0.5416406393051147,1.6959747076034546,-0.7846986651420593,0
12,119798,0.06580419838428497,0.09675628691911697,-0.9801880121231079,-0.4020906388759613,-0.31677117943763733,0.5693027377128601,30.315948486328125,-10.589118003845215,39.14615249633789,0.8349692821502686,-0.9151583313941956,-1.5789967775344849,0.17072507739067078,-0.5128787159919739,-0.9109495878219604,-0.5421810150146484,-0.9050843715667725,1.0616843700408936,0.10088060051202774,-0.2948119342327118,-1.3286852836608887,-1.068222165107727,-1.0396784543991089,-0.9614694118499756,0
13,130198,-0.02595856972038746,-0.01680852472782135,-0.9862150549888611,-0.3195055425167084,0.6770434379577637,-0.16893206536769867,30.988636016845703,-10.39272403717041,40.21346664428711,0.1440792679786682,1.4669302701950073,0.3736635148525238,-1.4661277532577515,0.4651413857936859,0.25651684403419495,0.9750313758850098,-0.43483129143714905,-1.1907438039779663,0.04831985384225845,-0.6930131316184998,-0.7530010342597961,0.690741240978241,-1.586263656616211,0.39505401253700256,0
14,140202,-0.011955789290368557,0.08015378564596176,-1.0027130842208862,-0.19720283150672913,-0.22576569020748138,-0.017326222732663155,29.45236587524414,-12.01207447052002,39.4570198059082,0.807198166847229,1.3652141094207764,0.038996923714876175,0.6304084062576294,-1.6551518440246582,0.5004408955574036,-0.8858298659324646,1.315714955329895,1.7750691175460815,0.16025184094905853,0.006946749985218048,-0.0008928438182920218,-0.8469081521034241,-1.0484925508499146,1.3515740633010864,0
15,149978,-0.025908159092068672,0.01384666282683611,-1.0303326845169067,0.1775447279214859,0.1345982849597931,-0.24169579148292542,30.1573486328125,-9.8145112991333,38.97819900512695,0.5031790733337402,-0.19269368052482605,-0.7996606826782227,-0.22390037775039673,-0.14998045563697815,1.8280868530273438,1.3207725286483765,0.6602417230606079,-0.2286578118801117,-0.8738848567008972,1.0168055295944214,0.7326072454452515,1.1388459205627441,-1.456333875656128,-1.6238514184951782,0
16,160255,0.014580804854631424,-0.0339713953435421,-0.9726512432098389,0.19681710004806519,-0.7283003926277161,0.2583302855491638,30.913677215576172,-10.97741985321045,39.73637390136719,1.1605629920959473,0.25336217880249023,0.42683643102645874,0.6829869151115417,-0.09447847306728363,0.47609418630599976,-0.48456642031669617,-1.3322954177856445,0.40478888154029846,1.8595778942108154,0.3800313472747803,0.6646237373352051,0.1330234408378601,-0.768047571182251,-0.5214913487434387,0
17,170183,-0.05313041806221008,0.039039500057697296,-1.0068514347076416,0.12484180182218552,-0.4380696713924408,-0.1851484179496765,30.955961227416992,-11.69323444366455,40.26028060913086,0.8061853647232056,0.4974845051765442,-0.11309602111577988,-0.8126656413078308,1.5588492155075073,-0.9551193118095398,0.1814568042755127,1.5294867753982544,0.7059019804000854,0.15417571365833282,-0.35950785875320435,-0.41252732276916504,-0.14344775676727295,-0.5074217319488525,-0.30285996198654175,0
18,179691,-0.10995625704526901,0.11917746067047119,-0.9823001623153687,0.2727448046207428,-0.4074820280075073,0.8285636305809021,31.57225227355957,-10.417457580566406,41.84427261352539,-0.22787529230117798,-0.622816801071167,-0.6122997403144836,-0.3411702513694763,-1.2632800340652466,0.3936002254486084,-0.5137920379638672,0.06543334573507309,-1.2043490409851074,-0.3337551951408386,-0.142275869846344,-0.3075205981731415,-0.4124813675880432,0.3150770366191864,0.06075345352292061,0
19,189994,0.03530922532081604,0.044501420110464096,-1.0211317539215088,0.8109060525894165,-0.7288486361503601,1.311686396598816,31.025781631469727,-10.560957908630371,40.04640579223633,-1.0667296648025513,0.518410325050354,-1.00175142288208,0.07412263005971909,-1.9815826416015625,0.8898019790649414,0.596879780292511,-1.2932960987091064,0.07476460188627243,0.931175947189331,-0.6798060536384583,-0.0641079768538475,-0.8425103425979614,0.28045013546943665,-0.632732093334198,0
20,199987,-0.00325828162021935,0.06445744633674622,-0.974907398223877,-0.46505114436149597,-0.7071933746337891,-0.5948232412338257,30.077255249023438,-9.25897216796875,40.78993225097656,-0.21163444221019745,1.0397167205810547,0.030202092602849007,0.9399739503860474,-0.032124679535627365,-0.8523604869842529,-2.394486427307129,1.0264736413955688,2.142137289047241,0.8537580370903015,0.8716694116592407,0.1332525610923767,0.4125669598579407,0.12126553058624268,0.3060723841190338,0
21,210074,-0.019667338579893112,-0.039231933653354645,-1.0091463327407837,0.02404029481112957,0.6614211201667786,-1.0328614711761475,31.08985137939453,-10.146697044372559,39.59761047363281,-0.00024182315974030644,-0.32022184133529663,-0.9817485213279724,-1.524264931678772,1.3290622234344482,1.2968547344207764,0.015773436054587364,-1.2224808931350708,-4.3709347664844245e-05,0.6351626515388489,0.3933541178703308,0.27610060572624207,0.18545866012573242,-0.43603017926216125,-0.3921523094177246,0
22,220014,-0.08974255621433258,0.02360456995666027,-0.9747989177703857,-0.668679416179657,0.5034835338592529,-0.41265034675598145,29.196495056152344,-8.096896171569824,39.56547546386719,-2.038426160812378,0.19618919491767883,-0.4590105712413788,0.37575939297676086,-1.2372379302978516,0.9898583889007568,0.35882213711738586,0.848903238773346,0.9793974757194519,-0.2441304475069046,0.5107496380805969,-0.9307683110237122,1.857730507850647,-1.3114701509475708,-0.9954249858856201,0
23,230081,0.011205552145838737,-0.055075813084840775,-0.9876797795295715,0.0172209944576025,-0.2313975989818573,0.06260596215724945,31.16405487060547,-9.030595779418945,40.82077407836914,0.7495209574699402,-1.6328907012939453,-1.9301661252975464,0.24591238796710968,0.1764630228281021,-0.1285787671804428,-0.0652523934841156,-0.5109963417053223,-1.3934528827667236,0.015151658095419407,-2.3806164264678955,-1.0605089664459229,1.6211315393447876,0.8090547919273376,-0.012891333550214767,0
24,240107,-0.06693669408559799,-0.036709267646074295,-0.9656453728675842,0.29471927881240845,-0.2478092759847641,-0.8972926139831543,27.487653732299805,-9.818449974060059,40.248050689697266,0.1364743560552597,0.03506177291274071,-2.0011868476867676,-0.1039259061217308,-0.7903705835342407,-0.0037556698080152273,1.1877037286758423,-0.4814322590827942,1.5858478546142578,-0.970194399356842,0.29554831981658936,0.8457369804382324,0.8503993153572083,0.7615939378738403,-0.7903962731361389,0
25,250152,0.008790303952991962,-0.020026516169309616,-1.0019886493682861,0.08490043133497238,0.12256079167127609,-0.37005558609962463,29.85923957824707,-10.214231491088867,40.40749740600586,-1.1488020420074463,-0.6669430136680603,0.1844848096370697,-0.18912038207054138,-0.5393528938293457,0.5223910808563232,1.630285382270813,0.16808481514453888,-0.5096664428710938,-1.3729116916656494,-0.2625802755355835,0.1923804134130478,1.577992558479309,0.008416400291025639,-0.7725180387496948,0
26,260080,-0.02060767076909542,-0.07895484566688538,-1.0230356454849243,-0.03822208568453789,1.063198447227478,0.19393660128116608,31.394405364990234,-10.356934547424316,39.71332931518555,-0.032630134373903275,-0.9733004570007324,-0.07814528048038483,-0.8971065878868103,0.12256885319948196,-0.49324020743370056,-0.010506336577236652,1.7170169353485107,1.4418703317642212,1.3994088172912598,0.75396329164505,0.6825464367866516,-1.5956953763961792,-0.026715364307165146,0.1564510464668274,0
27,270024,-0.041722021996974945,-0.0437210313975811,-1.0219812393188477,0.14148153364658356,-0.05224896967411041,-0.3084605038166046,34.02492904663086,-9.644036293029785,39.920223236083984,-1.053317904472351,0.09829530864953995,0.7847867012023926,0.45761838555336,0.8685435652732849,1.1163090467453003,-1.132533311843872,-0.5116487741470337,0.32723554968833923,-0.954526424407959,0.5388766527175903,-1.5380580425262451,0.983816921710968,1.3369637727737427,-0.37421953678131104,0
28,280323,0.0012536159483715892,-0.03589488938450813,-1.001630425453186,0.33395257592201233,1.0467898845672607,-0.0860925018787384,30.863445281982422,-9.978287696838379,39.096397399902344,-0.6050694584846497,0.4344325363636017,-0.3624284267425537,-1.8172789812088013,-0.34246888756752014,-1.4889582395553589,-0.5978164672851562,0.010923197492957115,0.2047300934791565,-1.118425965309143,-0.6836779117584229,-0.020611949265003204,1.3297224044799805,-0.9430574774742126,1.1647920608520508,0
29,290298,-0.009852834045886993,-0.01977529190480709,-0.9837151169776917,-0.08306694030761719,0.504906177520752,0.46190381050109863,30.286800384521484,-10.398308753967285,38.69704818725586,1.0062135457992554,0.5527170896530151,0.9170517325401306,0.31656137108802795,0.056798845529556274,-0.8387283086776733,0.8082861304283142,0.2036813646554947,1.1903735399246216,1.848874807357788,-1.0897802114486694,-0.83011794090271,1.138814091682434,0.6448739767074585,-0.785983681678772,0
30,300156,0.12978769838809967,0.041222941130399704,-0.9915956854820251,0.5624580383300781,0.4927612245082855,0.24624952673912048,31.606849670410156,-10.436243057250977,39.73561477661133,1.5499372482299805,-2.091996431350708,1.5134350061416626,-0.9076536297798157,-1.0101779699325562,0.06020650267601013,-0.008029134012758732,0.09414928406476974,-0.9689327478408813,-0.2958033084869385,-0.44925791025161743,-1.0223503112792969,0.6962397694587708,0.4542888104915619,0.3977106511592865,0
31,309935,0.05327672138810158,-0.0006189344567246735,-0.981972336769104,-0.5824823975563049,-0.12464802712202072,-1.2838548421859741,30.324316024780273,-9.59345531463623,38.65464401245117,-0.881938099861145,-0.26936137676239014,0.042227160185575485,-1.4755939245224,0.3516353368759155,1.3086527585983276,-0.8291288614273071,1.90238356590271,0.9845210909843445,0.3039661645889282,-1.4268078804016113,0.35345107316970825,1.59917414188385,-0.004245550371706486,-1.7152341604232788,0
32,320128,0.09983208775520325,0.08489164710044861,-1.0203580856323242,-0.7442529201507568,1.4672446250915527,0.02830544486641884,31.117998123168945,-11.05427360534668,40.345367431640625,-2.0609405040740967,0.176900252699852,-0.6949318051338196,0.3714517652988434,-1.0225422382354736,-1.0605782270431519,0.23499326407909393,-0.6662470102310181,-1.4925450086593628,-0.9368085265159607,1.6462916135787964,-0.08176790922880173,0.7171176075935364,-0.6660839319229126,1.4571315050125122,0
33,329851,-0.040169548243284225,-0.10874216258525848,-0.9798797965049744,0.8178878426551819,0.48520705103874207,-0.4789426028728485,31.6792049407959,-11.348742485046387,40.63010787963867,0.18066005408763885,0.41353341937065125,1.5445107221603394,2.3436760902404785,-1.0621256828308105,-0.551594078540802,-0.49542587995529175,-1.4496006965637207,-0.5365563035011292,0.5069983005523682,-0.1287340372800827,-0.5340809226036072,0.37171944975852966,-0.10280127823352814,0.02721734531223774,0
34,339893,0.0764467716217041,0.0016894624568521976,-0.9896652102470398,0.4809896945953369,-0.5957207679748535,-0.20413243770599365,30.48554229736328,-10.176351547241211,41.45269012451172,-0.27290549874305725,-0.8151432275772095,-1.0326122045516968,1.1354724168777466,-1.16324782371521,-1.539328932762146,2.2429358959198,-1.1434131860733032,-1.6021995544433594,0.9001068472862244,0.17724765837192535,-0.6685287356376648,0.8682284355163574,0.881569504737854,0.2452995628118515,0
35,350189,0.0052467524074018,0.0081105912104249,-1.0169178247451782,0.059345487505197525,-0.04308472201228142,0.3153665363788605,29.875581741333008,-10.224095344543457,38.384239196777344,-0.4499327540397644,0.5657779574394226,0.6059073805809021,0.883800208568573,1.8787994384765625,-0.3219980299472809,-0.08704215288162231,-0.8203285932540894,0.4681199789047241,-0.22145876288414001,-2.571105480194092,0.9827016592025757,0.8811111450195312,0.666739821434021,-0.22701643407344818,0
36,360028,0.027455132454633713,0.06018900126218796,-0.9967547655105591,0.1676267832517624,-0.24203455448150635,0.8240235447883606,28.463979721069336,-10.448039054870605,41.36235809326172,1.0844025611877441,-1.6992497444152832,0.19801899790763855,-0.13819825649261475,0.5313884019851685,0.42661136388778687,0.28929609060287476,0.6268215775489807,-0.6501495242118835,-1.0479410886764526,0.32271668314933777,0.21245965361595154,2.294487476348877,-0.2517068088054657,1.5530662536621094,0
37,370108,-0.02589966543018818,-0.017802627757191658,-1.0054816007614136,-0.06530702114105225,0.21529161930084229,0.286101758480072,30.108993530273438,-10.84998607635498,41.52794647216797,0.6605680584907532,1.21884024143219,-0.1978670358657837,-0.08052084594964981,-2.1730117797851562,-1.283400058746338,0.10465854406356812,0.10931885987520218,-1.180175542831421,-0.0011519674444571137,0.22315454483032227,0.5004114508628845,-0.8835141062736511,-0.1871090531349182,-0.3405771851539612,0
38,380121,0.00021458369155880064,-0.002473140135407448,-1.0095937252044678,-0.025721890851855278,-0.5213474035263062,-0.022941935807466507,30.372648239135742,-10.874439239501953,38.346763610839844,0.4122404158115387,0.04987180233001709,0.5272778272628784,-0.9407925009727478,1.8930145502090454,-0.384036660194397,-0.5786625146865845,0.6747926473617554,-1.2727231979370117,0.6254918575286865,0.06466856598854065,0.18363235890865326,-0.7142485976219177,0.4969760477542877,-0.21989625692367554,0
39,390171,0.057551126927137375,0.016622323542833328,-1.0016131401062012,0.49943146109580994,0.2277475744485855,0.33694881200790405,28.97032928466797,-10.110599517822266,41.04555130004883,-0.2036372423171997,-0.8874902129173279,-0.47430911660194397,1.7655253410339355,0.45566853880882263,1.0375081300735474,0.9047006964683533,-0.06405740976333618,1.6121326684951782,-0.0016536240000277758,-1.2289880514144897,0.2745954692363739,-1.5529730319976807,-0.7844740152359009,0.2319423109292984,0
40,400124,0.013435621745884418,-0.03229425102472305,-0.9825535416603088,-0.4031238257884979,-0.2778376042842865,0.5283001661300659,28.868526458740234,-8.816481590270996,39.16230010986328,2.0377368927001953,-0.06981585919857025,0.9277305006980896,-1.0208220481872559,1.2499035596847534,0.5539838075637817,0.8705000877380371,-0.9082892537117004,0.7344653010368347,2.0139520168304443,0.09891898930072784,0.1603441834449768,-0.4877522587776184,-1.0414983034133911,1.4802796840667725,0
41,410260,-0.06263510882854462,-0.0043159546330571175,-0.9810730218887329,0.20021507143974304,0.22605273127555847,-0.1266518533229828,30.505001068115234,-10.182744979858398,41.481571197509766,1.041434407234192,1.467445969581604,-1.3203272819519043,-0.8950567245483398,-1.0548855066299438,-1.4887139797210693,1.3712395429611206,-0.8376711010932922,0.22976741194725037,-0.024221666157245636,-1.021890640258789,-0.2941620945930481,0.5130050182342529,-0.9403626322746277,-1.415376901626587,0
42,420187,0.019338492304086685,-0.011191676370799541,-0.9923030138015747,0.8584262728691101,-0.25739097595214844,-0.31857436895370483,28.16030502319336,-8.889406204223633,39.7261962890625,0.8897793292999268,1.7028453350067139,-1.1593139171600342,-1.2549844980239868,0.19735147058963776,1.1649187803268433,0.26460379362106323,1.0463919639587402,0.9890885353088379,-0.6337721347808838,-0.6624067425727844,-1.0143595933914185,-1.1305428743362427,-2.585421323776245,-1.3418056964874268,0
43,429989,0.026854686439037323,-0.05320913344621658,-1.0529433488845825,-0.2149786502122879,-0.22751355171203613,-0.4844607710838318,30.28162956237793,-8.734167098999023,40.61002731323242,-1.6953684091567993,0.5601726770401001,0.19046372175216675,-1.5877625942230225,1.307277798652649,-1.585842490196228,-0.9092446565628052,0.35950833559036255,-0.8288697004318237,-0.972923755645752,-2.074392080307007,-1.071668028831482,0.1900646686553955,-3.6999361515045166,0.46649396419525146,0
44,439879,0.02029205486178398,0.01010947860777378,-0.9799516201019287,1.3718295097351074,-0.46645063161849976,0.4477895200252533,30.614301681518555,-9.791183471679688,39.52724838256836,0.24419990181922913,-0.7896184921264648,1.2721117734909058,-1.845527172088623,-0.48042988777160645,0.1925009787082672,0.5427661538124084,2.182624340057373,0.44513341784477234,-1.770675778388977,-0.8148099184036255,-0.30541348457336426,1.424167275428772,0.5234422087669373,-1.661422848701477,0
45,450080,-0.06274028867483139,0.07424624264240265,-0.9959364533424377,-0.38013675808906555,-0.17500092089176178,0.10917586833238602,28.237668991088867,-9.898293495178223,40.43883514404297,-0.7799670696258545,1.068477988243103,2.6244125366210938,-1.7844504117965698,-0.34296950697898865,-1.6319317817687988,1.3199468851089478,1.2170859575271606,-0.1112895980477333,1.661281704902649,1.4468029737472534,-2.5801022052764893,0.5507367849349976,-0.613166332244873,-0.043018922209739685,0
46,460072,0.040396515280008316,0.004221735056489706,-0.9964639544487,-0.2975756525993347,0.13092800974845886,-0.36742475628852844,28.37224769592285,-10.347518920898438,40.319576263427734,-0.464163601398468,-1.8302165269851685,0.004173422697931528,-0.6245104074478149,-1.618938684463501,1.710456371307373,-0.69083571434021,-0.34072402119636536,-0.5760934352874756,-1.0546865463256836,-0.7600312829017639,0.21158981323242188,2.3041701316833496,0.2387128323316574,1.3419041633605957,0
47,470024,0.07505855709314346,0.003599863499403,-0.9877452850341797,-0.2003878802061081,0.70276939868927,-0.47635993361473083,29.504016876220703,-9.864352226257324,40.45032501220703,-0.7626018524169922,1.4710386991500854,-2.3798036575317383,0.7749088406562805,-0.7535548806190491,0.07381393015384674,0.6275599598884583,-0.5116432905197144,0.8620473146438599,0.8689363598823547,0.06616590172052383,-0.5183430314064026,-0.1636648029088974,-0.708764374256134,-1.770591378211975,0
48,480099,0.007145092356950045,0.005171597003936768,-0.993915855884552,0.5677549839019775,0.8973331451416016,0.43218234181404114,29.613697052001953,-9.508365631103516,40.023414611816406,0.40460506081581116,-0.1011156216263771,-1.1500978469848633,0.7983640432357788,-1.0541037321090698,0.1527690887451172,0.6564766764640808,-0.755672037601471,1.1505765914916992,-0.09525143355131149,-0.5697189569473267,-0.4000707268714905,-0.0534343421459198,1.7774773836135864,1.2778148651123047,0
49,489708,0.05259742587804794,-0.11075521260499954,-1.032530426979065,0.09127229452133179,-0.18182237446308136,-0.7272753715515137,29.106935501098633,-9.676447868347168,39.009090423583984,0.4221476912498474,-0.4991358816623688,0.36743539571762085,0.15873633325099945,0.9456210732460022,-0.3543688952922821,-2.2617831230163574,-1.4325298070907593,-1.143140435218811,1.6671074628829956,-0.19673793017864227,0.30220744013786316,0.571367084980011,-1.1743112802505493,0.5969275832176208,0
50,500055,0.071010060608387,0.06684133410453796,-1.0425957441329956,-0.5146999359130859,0.22692809998989105,-0.8192728161811829,30.82184410095215,-9.322842597961426,38.602073669433594,0.825248658657074,1.7761428356170654,0.0008746529347263277,-0.2947827875614166,0.3146769106388092,0.03853144869208336,-0.7230787873268127,0.13285382091999054,-1.1449640989303589,1.0296326875686646,-0.8025310635566711,0.4367915987968445,1.1494053602218628,-1.5874272584915161,-0.41861557960510254,0
51,509928,0.013142949901521206,0.0349711999297142,-1.0026732683181763,-0.5880236029624939,0.4389907121658325,-0.9944928288459778,30.36310386657715,-11.613459587097168,39.601806640625,-0.7765580415725708,2.199206829071045,0.9233251810073853,1.6223043203353882,0.4977647364139557,0.44102048873901367,-0.20439882576465607,-0.864732027053833,-0.06830277293920517,1.3106250762939453,-0.9009674191474915,-0.2548120319843292,-0.9498975872993469,-1.2728488445281982,0.007397406734526157,0
52,520071,0.0008893247577361763,0.0057696206495165825,-1.0011218786239624,0.34786027669906616,0.4162122905254364,-0.33884304761886597,31.01242446899414,-10.476813316345215,40.51405715942383,0.9588108658790588,-0.937857985496521,0.051032859832048416,0.46304434537887573,0.14025399088859558,0.8442588448524475,-1.6081714630126953,-0.23904600739479065,-0.2739095091819763,-1.196317195892334,-0.05368013679981232,-1.424172043800354,0.5320021510124207,-0.7910192608833313,0.4364835023880005,0
53,529916,-0.04867582768201828,-0.04319092258810997,-0.97542405128479,0.3067764937877655,0.603358805179596,-0.009671000763773918,30.78706932067871,-9.64945125579834,39.897804260253906,-0.4805212914943695,-1.4866350889205933,-1.2497930526733398,1.1186151504516602,0.6781586408615112,0.14014354348182678,-0.7860391736030579,0.9498946070671082,-0.3927154541015625,1.106048345565796,-0.10428138077259064,-0.044820722192525864,-0.8087834715843201,-0.597297728061676,-1.5162876844406128,0
54,540080,0.032317064702510834,-0.020058248192071915,-1.0036894083023071,-0.460733026266098,0.11788497120141983,-0.7376800179481506,30.02838134765625,-11.135910034179688,38.636756896972656,0.577218234539032,-0.6158066391944885,-0.13269126415252686,-0.09989980608224869,1.6783183813095093,-0.9116488099098206,0.33984553813934326,0.14806748926639557,0.08509127050638199,-0.09629863500595093,1.21578848361969,1.5385385751724243,-0.568533182144165,1.800605058670044,1.1461670398712158,0
55,550354,-0.005729700904339552,-0.06189665570855141,-0.9650557637214661,0.04194621741771698,-0.5482020378112793,0.3765295743942261,30.376508712768555,-8.781777381896973,39.95188903808594,0.6974858641624451,0.9338962435722351,-1.2046641111373901,-0.3307587504386902,1.566540241241455,0.4956868886947632,-0.30646002292633057,-0.19144897162914276,-2.0268430709838867,0.7277854084968567,0.3950541019439697,-0.02341543883085251,-0.10653704404830933,-0.5649229288101196,-0.716268002986908,0
56,559870,0.04646339640021324,0.024396684020757675,-0.9979022145271301,0.12091729044914246,-0.2856558561325073,-0.8829029202461243,31.55411148071289,-12.68022346496582,40.526851654052734,-0.07934604585170746,-0.7953913807868958,1.256098985671997,1.9854117631912231,-1.1616551876068115,0.6360684037208557,-1.191203236579895,-1.6546545028686523,-0.0929277241230011,-0.2620430588722229,-0.9142401218414307,0.7219369411468506,1.4096215963363647,-1.2619327306747437,-0.9892836809158325,0
57,569980,0.04866137355566025,-0.085401251912117,-1.0000956058502197,-0.097674161195755,0.6389684677124023,-0.26796531677246094,29.30568504333496,-9.444039344787598,41.160945892333984,1.3848663568496704,-1.598281741142273,0.7574119567871094,-0.2892863154411316,1.1265857219696045,-0.08113578706979752,-2.1259400844573975,1.1694810390472412,1.1617321968078613,-0.5130085945129395,-0.1043408066034317,1.900716781616211,1.3373315334320068,-1.163588047027588,1.5784149169921875,0
58,579865,-0.01619718410074711,-0.03806326165795326,-1.0226510763168335,0.16129030287265778,-0.30226191878318787,0.022495849058032036,30.81294822692871,-10.704940795898438,41.12055969238281,-1.0964998006820679,-0.3160347044467926,-1.7686539888381958,0.12399059534072876,-1.2767475843429565,4.0595293045043945,-0.6182432174682617,-0.5571983456611633,0.02279890701174736,1.328271508216858,0.37247776985168457,0.7876484990119934,0.11997121572494507,-0.014201520942151546,0.09495512396097183,0
59,590301,-0.12283797562122345,-0.06299421191215515,-0.9933671951293945,0.7425306439399719,1.3446147441864014,-0.7234703302383423,31.209197998046875,-10.818033218383789,40.89912033081055,0.5068340301513672,-1.428863525390625,0.09185577929019928,-0.20211069285869598,1.1077443361282349,0.6967872977256775,1.4915413856506348,-2.849822759628296,0.07817183434963226,-1.5645737648010254,-1.9775798320770264,0.9501293897628784,-1.746230959892273,1.273911476135254,1.0409570932388306,0
60,599629,-0.006924200337380171,0.07631146907806396,-1.0165669918060303,0.3907901346683502,0.3154223561286926,-0.15428534150123596,30.43343162536621,-9.294243812561035,40.54256820678711,0.678062379360199,1.4956446886062622,0.4253959357738495,0.361715167760849,0.32536938786506653,-0.2604577839374542,1.4425638914108276,0.4869101047515869,-1.2105683088302612,-1.7789965867996216,-0.014465225860476494,0.45774027705192566,1.857940435409546,0.09832724928855896,0.8363168239593506,0
61,609878,0.004283179994672537,-0.053647231310606,-0.998612642288208,0.5639483332633972,-0.1465403437614441,0.3642946481704712,29.649728775024414,-9.820096969604492,38.97114944458008,0.3480284512042999,-1.17075514793396,1.1869580745697021,-1.3650966882705688,-0.7636699676513672,-1.0283859968185425,-1.1771492958068848,-0.16103021800518036,0.6581260561943054,-0.6279295086860657,0.0936245247721672,0.3916862905025482,0.9888441562652588,-0.26100656390190125,-0.31107097864151,0
62,620044,-0.012050017714500427,0.0809546634554863,-0.9727522134780884,-0.47094273567199707,0.33739468455314636,0.8198306560516357,29.573780059814453,-10.257171630859375,39.872764587402344,0.5108752846717834,0.49598053097724915,-0.3175638020038605,-1.1289420127868652,2.1464738845825195,1.7996882200241089,0.0771927759051323,1.5953822135925293,1.6029149293899536,0.5247451663017273,-1.5346136093139648,0.0005150487995706499,1.408288598060608,1.4633067846298218,-1.9563227891921997,0
63,630256,0.05086122453212738,-0.0825791209936142,-0.9673954248428345,-0.4770876169204712,0.8993411064147949,0.39879468083381653,32.42465591430664,-10.17528247833252,39.85005569458008,-0.1212359070777893,-0.3647855222225189,-1.0158723592758179,0.8296234011650085,-0.3927311897277832,0.4031149744987488,2.079288959503174,-1.0085541009902954,0.42847293615341187,1.0221458673477173,0.6936507821083069,0.15398520231246948,-0.2485344260931015,0.39156877994537354,-1.210152506828308,0
64,640142,-0.06747978925704956,0.06390682607889175,-1.01689875125885,-0.23438484966754913,-0.11068707704544067,0.0069863502867519855,29.38223648071289,-12.306899070739746,41.78190612792969,0.2931078374385834,-0.227896049618721,1.3600876331329346,0.30921706557273865,1.0659335851669312,-0.3784114718437195,0.9515959024429321,-0.7109233736991882,-0.10976509004831314,-0.6344742774963379,1.4118690490722656,-0.0957205593585968,-0.30207395553588867,-0.3932814300060272,0.3654978275299072,0
65,650174,-0.07931369543075562,-0.03040253184735775,-1.0101699829101562,-0.30101725459098816,-0.1517537236213684,-0.08454827219247818,29.845178604125977,-9.503312110900879,41.526824951171875,-0.053896714001894,0.36595484614372253,0.059333786368370056,0.4863712191581726,0.05313769727945328,0.15405145287513733,-1.2647346258163452,0.0014820650685578585,1.5226657390594482,0.18304196000099182,2.1967270374298096,-0.4352566599845886,0.43074846267700195,0.38406744599342346,-1.1494781970977783,0
66,660219,0.021845504641532898,0.03299817815423012,-1.0182316303253174,0.2128792554140091,-0.32236671447753906,-0.1256045401096344,29.82443618774414,-10.924492835998535,39.83830261230469,-0.9505624175071716,-0.01189563050866127,0.35087481141090393,-0.9184315800666809,-0.2664985656738281,0.07026329636573792,-0.26316386461257935,-0.5644277334213257,0.5666216611862183,-0.028117477893829346,0.16804510354995728,-0.5415463447570801,0.425892174243927,0.9911400675773621,-1.931675672531128,0
67,669793,0.03953355550765991,0.04530000314116478,-1.0136730670928955,0.47682300209999084,0.3524843454360962,0.5742009282112122,28.767166137695312,-11.31419849395752,40.06898498535156,1.3951923847198486,0.01565992832183838,0.837099552154541,0.8856498003005981,-0.5516824722290039,-0.8168919086456299,0.6116820573806763,-0.7115573883056641,2.262486696243286,0.7732831239700317,3.056340456008911,0.11564673483371735,1.2480705976486206,-0.9585849642753601,-0.014028968289494514,0
68,680024,0.026248682290315628,-0.06957264989614487,-0.9946298003196716,-0.4241747260093689,-0.8576326966285706,0.6285194158554077,28.84528923034668,-9.550495147705078,40.1515007019043,1.153444528579712,0.3273012042045593,-1.1765074729919434,-0.3900676369667053,-0.7817453145980835,0.6013455390930176,-0.9953638911247253,0.07800323516130447,0.44085410237312317,0.7643560171127319,-1.2244008779525757,-0.4468706548213959,0.6007668972015381,1.059852957725525,1.815038800239563,0
69,690046,-0.022084256634116173,0.0786244347691536,-1.0032422542572021,0.7112228870391846,0.22968855500221252,-0.1368139386177063,29.856046676635742,-8.515344619750977,39.48468017578125,-0.24441564083099365,1.3485453128814697,1.3345818519592285,0.475730836391449,-0.160097137093544,1.885761022567749,0.7329794764518738,-0.535599410533905,0.36254075169563293,0.6077905893325806,-1.7457940578460693,0.35363471508026123,-1.477783203125,1.7191811800003052,-0.26132461428642273,0
70,699812,0.013947414234280586,-0.06821499764919281,-1.0091313123703003,-1.0324363708496094,0.21739155054092407,0.14003458619117737,27.662860870361328,-9.90296459197998,39.02315139770508,-0.4261361062526703,-0.8090090155601501,0.7741350531578064,0.6520737409591675,1.298495888710022,2.99867582321167,-0.6691282987594604,-0.8002597689628601,0.43821820616722107,-0.23362436890602112,-0.9783607125282288,0.9626887440681458,-0.6274286508560181,-1.8577675819396973,0.27200618386268616,0
71,709899,-0.020344171673059464,0.016059769317507744,-0.9862890243530273,-0.2777578830718994,0.1724964827299118,0.7223743796348572,32.4172477722168,-10.962377548217773,39.70676803588867,0.45336267352104187,0.47074857354164124,0.31742820143699646,0.35028210282325745,0.21432891488075256,1.1507456302642822,-0.5514585971832275,0.6947166323661804,0.5225185751914978,-1.0794259309768677,0.611192524433136,-0.4231042265892029,0.39080655574798584,0.47645464539527893,-0.6957438588142395,0
72,720096,-0.02661295421421528,0.03470906615257263,-0.9905768632888794,0.6185656785964966,0.8418005108833313,-0.08308160305023193,29.152135848999023,-10.183328628540039,41.222843170166016,0.22835242748260498,0.4614294469356537,-0.4730090796947479,-0.9364194273948669,-0.8464629650115967,-0.15113574266433716,1.6644306182861328,-0.9450295567512512,-0.0021503574680536985,1.0175753831863403,0.6689215898513794,1.123900294303894,0.2552453875541687,0.6194409728050232,-0.4988366663455963,0
73,729891,-0.028302539139986038,-0.03035050630569458,-0.9864020943641663,-0.7708762884140015,-0.04656762257218361,-0.2589874267578125,28.729022979736328,-11.161599159240723,39.77023696899414,-0.3745856285095215,-0.8574273586273193,-0.41677412390708923,1.3846392631530762,-1.2402654886245728,0.42954984307289124,-1.8256571292877197,0.21669211983680725,-0.12692491710186005,-0.3809179961681366,-0.8176959156990051,0.0671641081571579,-0.4479401707649231,0.29161372780799866,0.8493466973304749,0
74,739824,-0.04559532552957535,-0.056407228112220764,-1.0088082551956177,0.42289426922798157,0.16828346252441406,-0.7524003386497498,29.290546417236328,-9.629581451416016,42.85957336425781,-0.5969801545143127,-1.1964994668960571,-0.48668283224105835,-0.2700636088848114,-0.4722529947757721,-2.8330628871917725,0.6455381512641907,0.9023418426513672,-1.224590539932251,-0.47246992588043213,1.2543303966522217,0.5833534598350525,1.0255374908447266,-1.268538236618042,1.5485174655914307,0
75,750190,-0.027605228126049042,-0.00322166969999671,-0.9920339584350586,-0.4479043483734131,-0.4031165540218353,-0.12613840401172638,31.281898498535156,-12.66898250579834,40.46378707885742,-1.8128867149353027,0.6887449622154236,0.4618930220603943,0.8312564492225647,0.3810357451438904,-0.5700257420539856,-0.3258390426635742,1.2303147315979004,1.9006115198135376,-0.2664179503917694,1.0602974891662598,1.1004235744476318,2.9333133697509766,1.5782020092010498,0.555047869682312,0
76,759768,0.07946866005659103,0.03744827210903168,-0.9560403823852539,0.18813078105449677,-0.48664143681526184,0.1771257519721985,31.197635650634766,-9.77149486541748,39.56637191772461,-0.03145034983754158,-1.6344624757766724,-2.037830114364624,-0.11079130321741104,1.4823659658432007,1.6471188068389893,0.30554714798927307,1.32978093624115,-1.240146279335022,-1.2357314825057983,0.934529185295105,-0.5553762316703796,0.5031986832618713,1.214689016342163,-0.396930068731308,0
77,769965,0.079180508852005,-0.029933884739875793,-1.0132906436920166,-0.4416458308696747,-0.7845646739006042,0.39069268107414246,30.923940658569336,-10.122611045837402,39.12250900268555,-0.72990483045578,1.1298844814300537,1.9515444040298462,-0.4765121340751648,-1.1878281831741333,-0.4205871522426605,-0.11060143262147903,-1.0086859464645386,-1.0776457786560059,1.8908144235610962,0.7733405828475952,-1.6213141679763794,-1.6827389001846313,-0.23155948519706726,-1.1254101991653442,0
78,780098,0.05197009816765785,0.012644105590879917,-1.010516881942749,-0.5963820815086365,-0.1810058057308197,-1.0821268558502197,29.877267837524414,-12.445751190185547,39.89640808105469,-0.06284401565790176,0.07871782779693604,0.2495257407426834,0.08043491095304489,0.7920002341270447,0.42363521456718445,-0.5038056373596191,0.13564208149909973,0.9627082943916321,0.4275713562965393,1.7909235954284668,0.3045453429222107,-1.7826908826828003,-0.2523696720600128,-2.070178508758545,0
79,789923,-0.031526628881692886,-0.11026427894830704,-1.0277587175369263,0.16551262140274048,-0.05904467776417732,-0.6871711611747742,32.84934997558594,-10.294239044189453,38.4583854675293,-0.70728999376297,0.05791572853922844,-1.0780936479568481,1.3432451486587524,-0.825310230255127,0.967502772808075,-0.10107263177633286,0.4445834755897522,-1.8954559564590454,0.14169129729270935,-1.6524752378463745,0.393306165933609,-1.788609504699707,-0.9240671396255493,0.7880485653877258,0
80,799985,-0.04466988146305084,-0.07912789285182953,-0.9825150966644287,-0.7943377494812012,0.24039889872074127,0.26972511410713196,30.6157283782959,-9.844319343566895,38.685054779052734,-0.6213409304618835,0.5762534737586975,1.866368055343628,-0.6400073170661926,1.0901800394058228,-0.5371711254119873,-0.2669932246208191,0.04935576394200325,-1.2941511869430542,1.4756569862365723,-0.39277100563049316,-0.2813800871372223,-0.23331905901432037,0.9147862792015076,0.1693314164876938,0
81,810043,0.0031887763179838657,0.11223457008600235,-1.021009087562561,0.07291428744792938,-0.007635191548615694,0.19198180735111237,29.478124618530273,-10.607422828674316,40.73813247680664,0.3116433620452881,0.7992388606071472,-1.1203094720840454,1.1640048027038574,0.9673507213592529,-1.5680084228515625,-0.6668561697006226,1.6468892097473145,-0.1636039912700653,-0.953994870185852,-0.4724569022655487,-0.20295478403568268,0.32977989315986633,1.365302562713623,-0.5045289993286133,0
82,819877,-0.0736827403306961,0.06965791434049606,-1.0108436346054077,-0.6633676886558533,0.3217531144618988,-0.3407880961894989,29.626171112060547,-9.291962623596191,41.86665344238281,0.6923357248306274,0.2597731947898865,-2.0359721183776855,-0.03642837703227997,0.7684407830238342,0.13076268136501312,0.784214198589325,0.3797474801540375,-0.34196969866752625,-1.3965542316436768,-0.7084278464317322,0.772602915763855,0.3516581952571869,1.083154559135437,-0.700056254863739,0
83,829867,0.029322803020477295,0.028322122991085052,-0.9959951639175415,-0.9438399076461792,0.6457725167274475,-0.37238869071006775,29.553791046142578,-9.952465057373047,41.3897819519043,0.8323336243629456,-0.09241931140422821,0.7437698245048523,0.4069035053253174,1.3558813333511353,1.3072609901428223,0.5060722231864929,1.076951503753662,-0.32268261909484863,1.0588444471359253,-0.07291378825902939,0.7606422901153564,0.8928110599517822,1.440087914466858,0.5211217403411865,0
84,839750,0.05128372088074684,-0.05926770716905594,-0.9861617684364319,-0.1889219433069229,-0.7503259778022766,-0.24060307443141937,30.214696884155273,-13.279857635498047,41.633033752441406,1.2056975364685059,1.3824363946914673,-0.08503074944019318,-0.13375742733478546,-1.6447316408157349,0.2539059817790985,-0.858581006526947,-1.6891632080078125,-1.1961522102355957,-0.2532907724380493,0.5186296105384827,0.25886279344558716,-0.1985122561454773,0.0740264430642128,0.06054425612092018,0
85,849946,0.0008258990710601211,0.10069482773542404,-0.9848957657814026,-0.13292352855205536,-0.8045214414596558,0.5642332434654236,31.73440933227539,-8.300527572631836,39.9876594543457,-1.1943496465682983,1.3166122436523438,0.03197048604488373,-0.608090341091156,-2.0504302978515625,1.7055941820144653,0.8284112811088562,-0.8624359369277954,-0.25749471783638,2.270308017730713,2.002744436264038,0.16230392456054688,0.24766290187835693,1.251904845237732,1.382260799407959,0
86,859934,-0.01366850920021534,0.039779264479875565,-1.015854835510254,0.5347806811332703,-0.5171581506729126,-0.5325707793235779,31.902406692504883,-9.961541175842285,40.11530685424805,-1.6798502206802368,0.6826757788658142,-0.4074021577835083,-0.1121816337108612,-0.6522144079208374,0.906893253326416,-1.0729987621307373,0.49664685130119324,-0.3439319431781769,0.6195798516273499,1.8950363397598267,-0.5540111064910889,-0.11096355319023132,0.2846395969390869,0.7263861894607544,0
87,870037,-0.05781116336584091,-0.0909210741519928,-1.041022539138794,-0.04206627979874611,-0.009159550070762634,0.46736428141593933,30.991825103759766,-8.664443016052246,41.470741271972656,1.3654483556747437,1.3289175033569336,0.8205537796020508,0.06734435260295868,0.3116084039211273,-1.2319117784500122,-1.7515186071395874,0.17331331968307495,1.8373316526412964,1.713483214378357,0.2021593600511551,2.347388982772827,1.5825239419937134,0.011071126908063889,1.254982829093933,0
88,879940,-0.08808264881372452,-0.0725119486451149,-1.0043220520019531,0.5324144959449768,0.45479658246040344,0.5734776258468628,28.662931442260742,-9.305719375610352,40.30510330200195,-0.19843602180480957,1.559355616569519,-0.4840982258319855,0.06478193402290344,0.6716172099113464,-0.9873080253601074,-0.47280964255332947,1.2601732015609741,0.4121526777744293,-1.1790094375610352,-0.14579981565475464,-0.3645069897174835,0.3358364403247833,-0.327808678150177,-0.998901903629303,0
89,890242,-0.013398686423897743,-0.03660167008638382,-1.002804160118103,0.6503474712371826,-0.729012668132782,-0.10883763432502747,29.16326904296875,-10.151626586914062,38.9290771484375,0.283094584941864,1.2532368898391724,1.5362675189971924,0.7838913202285767,0.341657429933548,1.4782170057296753,-0.07767713069915771,-0.14591169357299805,0.5310501456260681,-1.3787586688995361,1.1283258199691772,0.42875242233276367,0.9810710549354553,-1.4680345058441162,-1.0593734979629517,0
90,900121,-0.12931722402572632,0.01781241036951542,-1.009439468383789,-0.10143040120601654,-0.26944032311439514,0.07553640753030777,30.07706642150879,-11.36316204071045,39.659332275390625,0.9420634508132935,-0.392744243144989,0.115193210542202,-0.026951566338539124,-1.7824475765228271,0.43468087911605835,-0.2669939696788788,-0.3926597237586975,0.7984023690223694,-0.8532898426055908,0.8565917015075684,0.3475547730922699,-0.10051615536212921,0.2266688197851181,-0.29551568627357483,0
91,910248,-0.028576383367180824,-0.013735653832554817,-0.993273138999939,0.8228442072868347,0.12223362177610397,0.0906728208065033,31.404468536376953,-8.036684036254883,40.063201904296875,-1.3645243644714355,0.25514790415763855,-1.6573946475982666,-0.4692190885543823,-0.43563178181648254,0.9438217282295227,-0.27346348762512207,0.28278788924217224,-0.958389163017273,2.0688235759735107,-0.46250689029693604,-0.6425423622131348,-0.9795437455177307,0.3842948079109192,-0.7524486184120178,0
92,919804,-0.07803797721862793,0.08564607799053192,-1.0077619552612305,0.6082438230514526,-0.15922056138515472,0.039145421236753464,30.19305992126465,-11.508469581604004,40.620704650878906,0.292062371969223,0.05784531682729721,-0.6061902642250061,-0.21158692240715027,-0.017596591264009476,0.792846143245697,0.5313248038291931,1.7095271348953247,-0.863907516002655,0.45743435621261597,0.3513869047164917,0.4963656961917877,-1.1951619386672974,-0.17355549335479736,-0.3354317545890808,0
93,930057,-0.014896392822265625,-0.026497740298509598,-1.0050102472305298,0.26091036200523376,0.2766094207763672,0.51358962059021,30.775104522705078,-10.58996868133545,41.1970100402832,-0.008784923702478409,0.6464002132415771,0.8286094069480896,0.585945188999176,-3.017589807510376,-0.8803601264953613,-0.8971813917160034,0.9194595813751221,0.409880131483078,-0.7714225053787231,0.8593205809593201,0.5629270672798157,1.2753998041152954,0.8205881118774414,-0.7980855703353882,0
94,939864,0.012988698668777943,0.06327953934669495,-1.0090981721878052,-0.7312901616096497,0.8327147364616394,-0.06238652020692825,30.73017120361328,-8.913206100463867,41.150177001953125,-2.1116244792938232,0.43683624267578125,0.1312055140733719,-0.3448168933391571,0.9399295449256897,0.3146768808364868,1.7065283060073853,1.3199048042297363,-0.9313777685165405,-0.5889503955841064,-0.13755932450294495,-0.22831328213214874,-0.7269293069839478,-0.3595006465911865,-1.240073561668396,0
95,950136,-0.07455584406852722,-0.036597613245248795,-1.0010650157928467,0.19357658922672272,-0.3434602618217468,0.04320290684700012,29.017269134521484,-8.634540557861328,40.454437255859375,0.7892276644706726,-1.1184133291244507,0.5151153206825256,-0.6104025840759277,0.2550490200519562,0.794044554233551,-0.4311094880104065,1.076301097869873,-0.5829256176948547,-0.5298104882240295,0.5617830753326416,0.08947962522506714,1.058942437171936,1.0431419610977173,1.4177690744400024,0
96,959932,0.0021859880071133375,0.05248372629284859,-0.9909265041351318,0.3442447781562805,-0.3479657471179962,-0.11951609700918198,31.02391242980957,-11.509968757629395,37.634422302246094,-0.1391407698392868,-0.1240658164024353,0.755588710308075,-0.9105039834976196,0.06766053289175034,-0.5177374482154846,2.161134958267212,0.9402838945388794,0.5857131481170654,-0.6464700102806091,0.48979657888412476,-0.8888682126998901,1.1459020376205444,-0.7658583521842957,0.3689543902873993,0
97,969999,-0.06068204343318939,0.0019937839824706316,-0.9901976585388184,0.4357794523239136,0.9374724626541138,0.10797478258609772,30.46369743347168,-10.961694717407227,39.636783599853516,-1.679487705230713,1.826833963394165,0.40510624647140503,-0.42532557249069214,1.0215883255004883,-0.026033267378807068,0.12280812114477158,-1.774037480354309,-0.6109626889228821,-0.5241929888725281,-1.2264182567596436,-1.178145408630371,-0.9912267327308655,-1.736132264137268,-0.11687058210372925,0
98,979972,0.04552675783634186,-0.03254096955060959,-0.989482045173645,-1.13712477684021,0.17978273332118988,0.22019074857234955,30.624736785888672,-10.038525581359863,39.29500198364258,0.549368679523468,-0.502413272857666,0.9534745216369629,0.1840077042579651,0.2759373188018799,0.9371041655540466,-1.5097068548202515,0.12860926985740662,-0.2121053785085678,0.5394452214241028,0.16440553963184357,0.6941483020782471,-0.13918961584568024,0.6085413694381714,-1.9973456859588623,0
99,990014,-0.034606657922267914,-0.08569315820932388,-1.006423830986023,-0.4795427620410919,-0.7562392354011536,0.09936276078224182,29.36604881286621,-8.693488121032715,38.01189041137695,-0.7028132081031799,-0.19278666377067566,0.7946385145187378,-1.381849765777588,0.8096789717674255,1.2400559186935425,-0.9097936749458313,1.2690730094909668,0.5694594383239746,0.7237765192985535,-0.34476861357688904,2.5083255767822266,-0.45336031913757324,-0.4920022785663605,0.15444748103618622,0
100,1000127,0.07985218614339828,0.0054703992791473866,-1.0141059160232544,-0.4954816401004791,-0.916297972202301,-0.0014785771491006017,29.431346893310547,-10.341588020324707,39.72329330444336,0.7846142053604126,-0.7036535739898682,0.2866619825363159,0.25374844670295715,0.8895283937454224,0.04608853906393051,0.03366279974579811,-0.7315336465835571,-0.5425882935523987,0.2218225747346878,-1.6666582822799683,0.2583273947238922,-1.182247281074524,-0.4220356047153473,-0.53388512134552,0
101,1010102,-0.057288091629743576,-0.09983748197555542,-0.9968027472496033,0.45484766364097595,-0.5972734689712524,0.08939696848392487,29.764263153076172,-10.095320701599121,39.384910583496094,-0.039777178317308426,-0.14838793873786926,0.15643663704395294,-0.4093550443649292,-1.9858556985855103,0.2778743803501129,-0.11060414463281631,-0.7082979679107666,1.2181988954544067,0.028986813500523567,-0.1889224350452423,-0.5371338129043579,-0.9482786655426025,1.5341415405273438,-2.934593915939331,0
102,1020007,-0.04812821373343468,-0.010211904533207417,-0.991992712020874,0.3295480012893677,-0.41541787981987,0.3212006688117981,30.051252365112305,-8.510549545288086,39.89924621582031,-1.5589765310287476,-0.06283555924892426,0.4629952311515808,0.8868362903594971,2.0232162475585938,-1.3805558681488037,-1.1278520822525024,-1.3393999338150024,1.1488710641860962,-0.31426697969436646,1.1218117475509644,1.8625973463058472,0.9700230956077576,-1.9152932167053223,-1.6899935007095337,0
103,1029874,0.07841750234365463,0.02658369205892086,-1.0094921588897705,0.12091277539730072,-0.29692935943603516,-0.46895265579223633,30.126941680908203,-10.198907852172852,38.28586959838867,1.2808728218078613,-1.1196569204330444,-0.6184738278388977,-0.7889461517333984,-0.44243282079696655,0.8327493071556091,0.469241201877594,0.21687698364257812,0.9862968325614929,0.9994530081748962,-0.5045405626296997,-0.45467281341552734,-0.4872066378593445,0.21630755066871643,-1.1158888339996338,0
104,1040012,0.019182981923222542,-0.003947101999074221,-1.0147002935409546,-0.11486311256885529,-0.14208440482616425,-0.5747720003128052,30.866994857788086,-9.563509941101074,41.61762237548828,0.3630944490432739,-2.046006441116333,0.34959933161735535,-0.07328768819570541,0.2749403715133667,-0.6145434975624084,-0.40209880471229553,0.7374680638313293,1.0869141817092896,-0.12663871049880981,0.32200539112091064,-0.19248123466968536,0.27423208951950073,0.6291720271110535,1.3228782415390015,0
105,1050177,-0.07540318369865417,-0.08018612116575241,-1.0138165950775146,0.42563724517822266,-0.12285596132278442,0.42437517642974854,30.28791618347168,-9.426188468933105,38.284454345703125,1.0146130323410034,-1.02773916721344,-2.5452659130096436,1.2321223020553589,-1.7729758024215698,-0.3515360653400421,0.711588978767395,0.010345546528697014,-0.500645101070404,-0.9388208389282227,-2.074826240539551,-0.18355780839920044,-0.323208749294281,-1.7002040147781372,-1.1311203241348267,0
106,1059943,0.005876489449292421,-0.04928195849061012,-0.9905246496200562,-0.1373526155948639,1.2255935668945312,0.09205151349306107,28.608667373657227,-9.543449401855469,38.82025909423828,-0.2660120725631714,-0.09024177491664886,0.2590446472167969,-1.6846041679382324,-1.6748900413513184,1.5938720703125,0.2237023115158081,-0.507078230381012,1.9415324926376343,0.436719685792923,0.13870957493782043,1.2580478191375732,1.2493982315063477,1.5515185594558716,2.1302359104156494,0
107,1070259,0.0023690734524279833,-0.0010989505099132657,-0.9785410165786743,0.46179378032684326,0.191957488656044,0.10208629071712494,30.87057876586914,-9.52477741241455,38.65980911254883,-1.2896350622177124,-0.01585509441792965,-0.2822842001914978,-1.1194692850112915,0.3089500069618225,-0.5120589733123779,1.2639755010604858,-0.48615068197250366,1.6920483112335205,0.9711861610412598,0.13811637461185455,1.847878098487854,-0.7047690749168396,-0.6631086468696594,1.3787764310836792,0
108,1079860,0.006524635944515467,-0.002738161711022258,-0.9656230211257935,0.5844536423683167,-0.358251690864563,0.3684149980545044,29.396137237548828,-9.667675018310547,39.553306579589844,0.7900569438934326,-0.6295854449272156,-0.08253595978021622,0.07969562709331512,-0.7097436189651489,0.36771413683891296,-2.248638868331909,0.45847493410110474,-0.28500476479530334,-0.7173122763633728,0.28739872574806213,1.1111669540405273,1.9985262155532837,0.09440825879573822,0.5429159998893738,0
109,1090094,0.032948873937129974,-0.0007497736369259655,-1.0158071517944336,-0.5361372232437134,0.5187996625900269,-0.1965540051460266,30.09571647644043,-10.356825828552246,39.591033935546875,0.4133968949317932,-2.0558438301086426,-1.1634340286254883,0.9586107134819031,1.0817148685455322,-0.07879096269607544,0.8979817032814026,-0.22858981788158417,0.597639799118042,0.8451316356658936,-0.7722949981689453,-0.48622551560401917,1.9146242141723633,-0.22755563259124756,-1.2413854598999023,0
110,1100150,0.005315238144248724,0.046429961919784546,-1.0046442747116089,-0.26563262939453125,0.828156054019928,-0.3864174485206604,28.45293426513672,-10.836662292480469,38.79647445678711,0.4149720072746277,0.4004621207714081,-0.0006861004512757063,-1.7775275707244873,0.7188110947608948,1.3627136945724487,-1.1911792755126953,-0.5040861964225769,0.453908771276474,0.22285394370555878,1.4143612384796143,0.4799831509590149,-0.19852770864963531,-1.1017861366271973,-0.06039676070213318,0
111,1110106,0.12838228046894073,0.06973880529403687,-1.021453857421875,0.8015201687812805,-0.39485347270965576,0.4542413055896759,29.088102340698242,-10.11624526977539,41.748985290527344,0.18405161798000336,-0.23541072010993958,-1.3231632709503174,-0.727847695350647,-0.0745440274477005,-0.3975949287414551,-1.0501374006271362,-1.0549079179763794,-0.6013698577880859,-1.456738829612732,1.4792245626449585,-1.334388017654419,0.6980024576187134,0.46488156914711,0.6927996277809143,0
112,1120132,0.0421166755259037,0.024080198258161545,-1.025517463684082,-0.2495260089635849,-0.09371654689311981,-0.6414535045623779,29.20925521850586,-9.769411087036133,40.77233123779297,-0.6922401785850525,-2.2731573581695557,-0.047097720205783844,-1.3507980108261108,0.31562402844429016,0.2101001888513565,0.07197972387075424,0.8729458451271057,0.4912453293800354,0.16103357076644897,0.5958991050720215,0.6101629137992859,-1.0647207498550415,-0.27390995621681213,-0.17501425743103027,0
113,1129901,-0.017556264996528625,-0.01842610538005829,-0.975084662437439,-0.6265331506729126,-0.5171319842338562,0.5752961039543152,29.585615158081055,-11.017759323120117,40.15678405761719,-1.8576246500015259,-1.3917160034179688,0.10255281627178192,2.543916940689087,-0.8794416189193726,0.8733695149421692,0.3546375632286072,-0.433914452791214,-0.3275408148765564,0.24015992879867554,-0.21231605112552643,-1.3362360000610352,1.1192588806152344,-0.33045127987861633,0.013221045024693012,0
114,1140108,0.0026825815439224243,-0.07245238125324249,-0.9946109652519226,-0.03716008737683296,0.5724000930786133,-0.7652132511138916,30.869874954223633,-11.655617713928223,40.70376205444336,1.664290428161621,1.1899577379226685,1.4750254154205322,-0.23553377389907837,0.1293085664510727,0.12170412391424179,0.10604292899370193,-0.9519808888435364,-0.5308487415313721,-0.7651024460792542,-2.0038821697235107,-0.5655674934387207,-0.07932288944721222,-1.6093263626098633,-0.27380236983299255,0
115,1149900,-0.09957530349493027,0.08823002874851227,-1.0178852081298828,0.42702844738960266,-0.5151212811470032,-0.0903787836432457,31.466543197631836,-9.169317245483398,40.15121841430664,0.859345555305481,-0.5545645356178284,-1.6026997566223145,-0.8222835659980774,0.11158521473407745,-0.7521694898605347,-2.493891954421997,0.7727553248405457,-0.341732382774353,-2.5600898265838623,1.3569905757904053,-0.5817379355430603,-0.7206528782844543,0.3339060842990875,0.17095762491226196,0
116,1159881,-0.10827115923166275,0.05609022080898285,-1.0527173280715942,-0.4638012647628784,-0.5476039052009583,-0.16990657150745392,28.0364990234375,-8.518060684204102,39.766414642333984,0.7594249248504639,0.1885271966457367,-0.47609877586364746,0.11431317031383514,0.7345402240753174,-0.4598053991794586,1.2457834482192993,-0.2683382034301758,-1.5404454469680786,-0.4331217408180237,0.113888680934906,-0.00037976473686285317,0.864705502986908,-1.4322011470794678,1.585726261138916,0
117,1170267,0.05821554735302925,-0.019682608544826508,-1.0431245565414429,-0.9000119566917419,-0.16146402060985565,0.7407952547073364,28.552719116210938,-11.676281929016113,41.13790512084961,2.229048013687134,0.0764879509806633,0.042976465076208115,-0.061472099274396896,-0.036777157336473465,-1.2577415704727173,0.45421940088272095,0.02494916506111622,-0.3576085567474365,0.2378910928964615,-1.715511441230774,2.8511476516723633,-0.13020724058151245,1.5550698041915894,-0.21363814175128937,0
118,1179988,-0.06665706634521484,-0.06586062163114548,-0.9990628361701965,-0.4637850522994995,0.44063469767570496,-0.25715771317481995,29.15443992614746,-10.708314895629883,40.792396545410156,0.78658527135849,-1.1154083013534546,1.2185364961624146,-0.5733152627944946,0.23318147659301758,-2.4258806705474854,-1.181105613708496,-0.4820844531059265,1.5070182085037231,-2.4101369380950928,1.109796166419983,-0.47395727038383484,0.09727422147989273,-1.5359176397323608,-0.34595996141433716,0
119,1190060,-0.0697350949048996,-0.061345700174570084,-1.0098011493682861,0.9750945568084717,-0.7067843675613403,-0.28086036443710327,30.345497131347656,-12.021540641784668,39.8923225402832,-0.13987486064434052,2.6670615673065186,-0.4590020775794983,-0.7964786291122437,-0.5264683365821838,0.5327640771865845,-0.9259874820709229,-0.18624676764011383,-0.9096537232398987,-0.6780467629432678,1.191894769668579,1.643430471420288,-1.4600400924682617,-0.10417210310697556,-1.2608087062835693,0
120,1199937,0.013354681432247162,0.05671797692775726,-0.9828463196754456,-0.20926496386528015,0.5706354975700378,0.12195255607366562,30.900779724121094,-10.005152702331543,40.42116165161133,-0.7845476269721985,-2.909285306930542,-0.24892407655715942,-0.5456263422966003,1.7645747661590576,-0.41828101873397827,1.7087634801864624,-0.260049432516098,-0.9499163031578064,-1.8502312898635864,0.21380484104156494,0.8855676054954529,-0.5741984844207764,0.03850015625357628,1.244963526725769,0
121,1210135,-0.009705137461423874,0.017926130443811417,-0.9834669828414917,0.8919051289558411,0.1710461676120758,-0.05487484857439995,29.15622901916504,-10.514585494995117,40.72113800048828,-1.1789700984954834,-1.6606124639511108,1.2870433330535889,0.5658488869667053,-0.6319781541824341,-1.129275918006897,-0.40664753317832947,-0.7261220812797546,0.26453495025634766,-1.9188073873519897,-0.27242496609687805,1.0557293891906738,1.782558560371399,-0.27687016129493713,-0.4855567514896393,0
122,1220245,-0.032369766384363174,0.05591035634279251,-0.9826509356498718,-0.22368937730789185,0.30161356925964355,0.21320655941963196,29.006975173950195,-10.274751663208008,39.548988342285156,-1.2661142349243164,0.3831208050251007,-2.5445396900177,-0.23012106120586395,-0.835769772529602,-0.7462299466133118,-0.6748092174530029,0.5216122269630432,0.08814891427755356,1.2214288711547852,1.562875747680664,0.14272724092006683,-0.3542885184288025,-0.29235246777534485,0.1522071361541748,0
123,1230081,-0.03315620496869087,0.051157396286726,-1.0094058513641357,0.26737770438194275,0.9379743337631226,-0.023499922826886177,29.983659744262695,-9.286624908447266,40.487640380859375,1.182005763053894,-0.3098811209201813,1.1600760221481323,-1.464538335800171,-1.0532684326171875,0.4249401390552521,0.9754212498664856,-0.4827055335044861,1.8449665307998657,0.09784205257892609,0.6512967944145203,-0.33967775106430054,0.7667706608772278,0.32577016949653625,-1.4472198486328125,0
124,1240076,0.08070696145296097,0.03024286776781082,-1.0085973739624023,-0.04824979975819588,0.17852698266506195,-0.3126946985721588,28.274991989135742,-10.804153442382812,39.82086181640625,0.48970499634742737,1.1976889371871948,-0.24514266848564148,-1.20438814163208,-0.4184562861919403,1.4439444541931152,0.865308940410614,-1.823358178138733,1.0898752212524414,1.6941951513290405,-0.436576247215271,0.7498253583908081,-1.5445857048034668,-0.34328633546829224,0.7973684072494507,0
125,1250002,-0.014238083735108376,-0.0021987215150147676,-0.996753454208374,0.1633484810590744,0.45056769251823425,-0.32472676038742065,28.938871383666992,-9.314745903015137,39.961917877197266,-1.8822795152664185,-0.625271737575531,-0.0653536319732666,0.375265896320343,1.2518458366394043,-0.7217206954956055,-0.6697931885719299,-2.0996241569519043,-0.8060015439987183,-0.5620784759521484,-1.1508841514587402,-0.26906663179397583,0.7467634677886963,0.656767725944519,-0.13672497868537903,0
126,1260114,0.024208884686231613,0.05127611756324768,-1.0302683115005493,-0.6546960473060608,0.17524801194667816,-0.11059805750846863,30.2829532623291,-9.807294845581055,40.74220657348633,-0.8640894889831543,-0.23811233043670654,0.47495630383491516,0.6399332284927368,0.8424781560897827,0.3732008635997772,-0.5024105906486511,1.3501231670379639,0.2992727756500244,0.6022481918334961,-1.2630184888839722,-0.15974824130535126,1.7875460386276245,-0.18280552327632904,-0.6500510573387146,0
127,1270085,-0.048208460211753845,-0.012244077399373055,-1.0111316442489624,0.5100094676017761,0.8678516745567322,0.4045144021511078,29.64604949951172,-10.586588859558105,39.58070755004883,-1.3936926126480103,-0.10773260146379471,-0.4296536147594452,0.23580588400363922,0.9451419115066528,-0.8090471625328064,1.3736494779586792,0.23908331990242004,0.01835995726287365,0.5345271825790405,-1.484769582748413,0.5439538359642029,-0.2106776386499405,-0.511939287185669,0.7910870313644409,0
128,1279574,-0.06431537121534348,0.07200189679861069,-0.9875256419181824,0.3037961423397064,0.10041337460279465,-0.45706707239151,29.750980377197266,-10.452446937561035,41.424598693847656,-0.651372492313385,0.10888771712779999,1.56725013256073,-0.07489265501499176,0.9481719732284546,-1.762089729309082,-1.0321269035339355,0.19426898658275604,-0.24957455694675446,0.39424291253089905,-1.4450057744979858,-0.5151799917221069,0.8206412196159363,-2.410006523132324,-0.10441013425588608,0
129,1289961,-0.0530652292072773,0.011802000924944878,-0.9972695112228394,-0.21658435463905334,-0.5597030520439148,0.34968066215515137,30.25547218322754,-11.278560638427734,39.07522964477539,-0.30019885301589966,0.19069184362888336,1.5974658727645874,0.6074441075325012,0.4501132071018219,-1.0907493829727173,-0.09906934946775436,0.5378957986831665,0.8646564483642578,0.2767309844493866,-1.4996652603149414,1.0736773014068604,1.9236117601394653,0.9861753582954407,-0.11091727763414383,0
130,1300158,0.046718984842300415,0.02575383335351944,-0.959433376789093,0.5102265477180481,-0.6352588534355164,0.4692842364311218,29.411420822143555,-9.33163070678711,40.09545135498047,-0.4950413703918457,1.9483025074005127,0.41817569732666016,-1.0151512622833252,0.8933596014976501,-0.8218416571617126,-0.048709090799093246,1.2045612335205078,-0.620319664478302,0.807895302772522,0.15020617842674255,0.6390625834465027,1.2247793674468994,-0.8764646053314209,0.4322340190410614,0
131,1309835,-0.07036422938108444,0.007500282488763332,-1.0144587755203247,-0.44848787784576416,-0.23432199656963348,0.5988278388977051,29.293134689331055,-9.724010467529297,40.22736740112305,-0.6040253043174744,-0.134235680103302,0.5796184539794922,1.5422769784927368,1.0805248022079468,0.1820921152830124,0.1465781182050705,0.36044296622276306,0.9782511591911316,-0.002158413641154766,-0.8713334798812866,-1.6264302730560303,1.1214385032653809,2.200601816177368,-0.5243719816207886,0
132,1319828,-0.011372850276529789,-0.0458645224571228,-0.9686018228530884,1.0316338539123535,0.5372048020362854,1.2251732349395752,30.355405807495117,-10.309462547302246,39.0234375,-2.416330575942993,-0.20592953264713287,-2.4819695949554443,0.6729679107666016,0.0676216259598732,2.1532466411590576,-0.7693023681640625,0.7701019048690796,0.2684815526008606,-0.7818074226379395,1.1463879346847534,0.9318944811820984,0.027130942791700363,-0.35472384095191956,0.7412821650505066,0
133,1329805,0.0847712829709053,0.01222688052803278,-0.9941274523735046,0.07900280505418777,-0.5689988136291504,0.819784939289093,29.87327766418457,-9.639148712158203,41.427486419677734,-1.002942442893982,0.17348630726337433,2.0168521404266357,2.6429383754730225,0.8241235613822937,1.7269076108932495,0.3809279501438141,0.6099658608436584,1.842298984527588,-1.2064368724822998,0.18975992500782013,-0.8186205625534058,-1.7727032899856567,-0.5247889161109924,0.9231705069541931,0
134,1339962,-0.01008005253970623,-0.07553035765886307,-1.0101654529571533,0.7846779823303223,-0.030023617669939995,0.618281364440918,30.57886505126953,-9.09125804901123,39.821285247802734,-0.011696264147758484,-0.2445739507675171,0.27353379130363464,0.15299543738365173,-0.5218842625617981,1.556574821472168,-0.2515053451061249,1.0850799083709717,0.06642056256532669,1.7488619089126587,-0.8728904128074646,-0.06247205659747124,-0.8503347635269165,-0.3072843849658966,0.09123032540082932,0
135,1350129,0.029475830495357513,0.061440546065568924,-0.9949082136154175,0.374954491853714,0.02231237106025219,0.07385589182376862,30.64016342163086,-9.768601417541504,40.429595947265625,-0.12637487053871155,-1.3905662298202515,-0.24803583323955536,-2.882758617401123,-0.6103039979934692,-0.152249276638031,-0.2625519633293152,0.17885640263557434,-0.5279790759086609,-0.2791549861431122,0.8992578387260437,0.20192158222198486,-0.08933398872613907,1.412058711051941,1.299773097038269,0
136,1359912,0.04170016944408417,0.09399890154600143,-1.000891089439392,0.29610326886177063,-0.07379917800426483,0.134372279047966,31.207155227661133,-9.953797340393066,38.474037170410156,-0.5990618467330933,-1.26542329788208,-1.0270063877105713,0.07691619545221329,0.764674723148346,1.0914742946624756,1.694308876991272,-0.5834134817123413,-1.0494740009307861,-1.249324083328247,1.7412760257720947,-0.624176561832428,-1.3795157670974731,1.417574167251587,-0.9998645186424255,0
137,1369818,0.07557780295610428,0.08528632670640945,-0.9642578959465027,0.20048248767852783,-0.6159833073616028,0.4123693108558655,29.16037368774414,-8.129732131958008,40.67844772338867,-0.020352158695459366,1.2463709115982056,0.8474652767181396,0.3753306269645691,-0.4905453324317932,2.1092236042022705,1.5967074632644653,0.2054617702960968,-0.42723348736763,0.2104051262140274,-0.319767564535141,-1.0847887992858887,-0.7372729182243347,0.7242369651794434,1.198099970817566,0
138,1379939,-0.041051656007766724,-0.04202132672071457,-0.988035261631012,-0.8181895613670349,-0.3178042769432068,0.6712801456451416,29.680789947509766,-10.756671905517578,40.897647857666016,1.102635145187378,-1.3765054941177368,-0.026676535606384277,0.3027729392051697,-1.4656563997268677,0.4142671823501587,-1.8776171207427979,-0.18167801201343536,0.8318696022033691,-0.6290479898452759,1.0235910415649414,2.4344611167907715,1.032925009727478,-0.8564437031745911,-0.28412801027297974,0
139,1390074,-0.11679942160844803,0.045239921659231186,-0.9754653573036194,-0.04171324148774147,0.31049326062202454,-0.3592475950717926,28.973203659057617,-10.95653247833252,40.358970642089844,-0.2714526653289795,-1.5112758874893188,0.008311325684189796,-0.15830810368061066,-0.6074607968330383,-0.7910792827606201,1.5324406623840332,-0.4694589674472809,-0.6396726965904236,1.5138007402420044,-0.8850308060646057,1.367995262145996,-0.20781385898590088,1.2285268306732178,0.24695144593715668,0
140,1399981,0.039111364632844925,0.048400383442640305,-0.9911273717880249,0.08443583548069,0.9782990217208862,-0.8244186639785767,30.431610107421875,-9.866008758544922,39.562355041503906,-1.4746112823486328,0.8729451298713684,0.14464791119098663,-1.1333996057510376,-1.1183630228042603,0.3342147171497345,-0.30930402874946594,1.2050317525863647,0.718261182308197,-0.8673903346061707,-1.7457081079483032,0.9136194586753845,0.4678289294242859,-1.383146047592163,-0.608288586139679,0
141,1410113,0.06179603561758995,-0.004039600491523743,-1.0030534267425537,0.7257090210914612,-0.35825303196907043,-0.48695284128189087,26.29366111755371,-9.573151588439941,41.23609161376953,-0.28786274790763855,1.1776400804519653,-1.543253779411316,-0.292683869600296,-1.4665491580963135,1.1306918859481812,0.5517674684524536,-0.8945956230163574,0.7273539900779724,-0.5628092885017395,-0.5205786824226379,0.9134619235992432,-0.7486156225204468,-1.6329807043075562,-1.7597246170043945,0
142,1420115,-0.061396900564432144,-0.07785527408123016,-1.0381994247436523,0.2688719928264618,0.30622929334640503,-0.4407922327518463,31.07402229309082,-9.84177017211914,41.24856948852539,-0.4408150315284729,-0.08248361945152283,1.2840514183044434,-0.4984751045703888,0.8043012022972107,-1.1640361547470093,0.38450974225997925,0.5776305198669434,-0.4991525411605835,-0.08817388862371445,-1.6112136840820312,-0.3601336181163788,0.5839747190475464,0.574806272983551,-0.13207019865512848,0
143,1429925,0.050227630883455276,-0.008953575976192951,-1.0174241065979004,0.09468060731887817,-0.5870922207832336,-0.0772615373134613,30.69695472717285,-10.842850685119629,40.858943939208984,0.5800884366035461,2.4593374729156494,-0.056790709495544434,-0.1760604977607727,0.8312129974365234,-0.28338247537612915,-0.49088695645332336,-1.7774379253387451,0.05957896634936333,1.303597092628479,-0.2690173089504242,1.388719916343689,-2.534703016281128,0.8203160762786865,1.4268001317977905,0
144,1440036,-0.05064313858747482,-0.045383140444755554,-0.9906847476959229,0.4799695312976837,-0.4639585614204407,1.5368760824203491,30.386348724365234,-9.577049255371094,41.813045501708984,-2.408792734146118,-1.6711677312850952,0.07012570649385452,-0.7153170704841614,0.294821172952652,-0.6074057221412659,1.1991904973983765,0.28144100308418274,1.4396641254425049,-1.6375887393951416,-0.34385034441947937,-0.2039194107055664,-2.0051777362823486,-0.01770848222076893,-0.8074865937232971,0
145,1450246,-0.07007287442684174,-0.0030106189660727978,-0.9814985990524292,-0.297898530960083,0.6529381275177002,0.17311090230941772,28.859071731567383,-8.647863388061523,40.232791900634766,-0.2365979254245758,-0.30906859040260315,0.26517555117607117,-0.7315967082977295,0.3456296920776367,0.7665055990219116,-0.22406770288944244,-0.9889788031578064,2.1830947399139404,0.6786775588989258,1.4335813522338867,0.7938460111618042,-0.7073089480400085,-1.5470432043075562,0.19225361943244934,0
146,1460042,0.04025907441973686,-0.004781263414770365,-0.9970672130584717,0.011567999608814716,-0.971260130405426,0.24770571291446686,30.516220092773438,-9.012066841125488,41.6448974609375,0.40817275643348694,1.111219882965088,2.2140867710113525,-0.12254653126001358,1.725182056427002,-0.024878501892089844,-1.3644336462020874,1.926270842552185,-0.1896107941865921,1.3647476434707642,1.4525275230407715,-0.4218689501285553,-1.4576454162597656,1.5543818473815918,1.838118076324463,0
147,1469943,-0.01648586615920067,0.05325360968708992,-0.9969964027404785,0.2936188876628876,0.7287880778312683,-0.08994512259960175,30.424440383911133,-10.357132911682129,40.14668655395508,-2.2319648265838623,0.006718715652823448,-0.3657870292663574,-0.0581573024392128,0.5307761430740356,-1.5910356044769287,0.5973398089408875,0.1250143051147461,1.14962637424469,-0.4059019386768341,0.8602622747421265,0.10188233107328415,-0.8075597882270813,0.8489333987236023,-0.9503881931304932,0
148,1480134,0.06334450095891953,-0.00835739728063345,-1.001392126083374,0.19499096274375916,-0.12215220928192139,0.274932861328125,30.172771453857422,-9.692131996154785,38.82138442993164,-0.5175272822380066,0.8517637252807617,0.042368900030851364,0.5544173121452332,0.2541440725326538,-0.7335125207901001,0.19315935671329498,2.557811975479126,-1.5909490585327148,-0.33804646134376526,-1.81975519657135,0.11918976902961731,1.083404541015625,0.6490498185157776,1.1895817518234253,0
149,1490015,-0.02869643270969391,-0.0042120786383748055,-1.0135178565979004,-0.9989994168281555,-0.0055723716504871845,-0.4722091257572174,31.05547332763672,-10.003026008605957,38.799034118652344,-1.690700650215149,1.8605308532714844,-0.49623560905456543,-0.9181322455406189,-0.9448203444480896,0.25554370880126953,-2.2966718673706055,-1.9372894763946533,1.5486984252929688,-1.389312744140625,-0.5575714111328125,1.1901018619537354,-0.06156756728887558,-0.1279287487268448,-1.1234170198440552,0
150,1499881,0.009836748242378235,0.08363741636276245,-0.9947233200073242,0.6956425905227661,0.7064788341522217,0.40168124437332153,29.041147232055664,-9.831233978271484,38.77311706542969,0.3621336817741394,1.0063167810440063,-0.07502565532922745,-0.9021639823913574,-0.10216262936592102,1.085730791091919,0.75572669506073,-0.258491575717926,0.9472480416297913,-0.9464513063430786,0.563937246799469,1.7374341487884521,-1.799268364906311,1.4240151643753052,-0.7593508958816528,0
151,1509965,-0.05350644886493683,-0.0226405318826437,-1.0092453956604004,-0.2562412917613983,0.003058367408812046,1.2798290252685547,30.915145874023438,-11.360859870910645,40.574302673339844,-0.8513002991676331,-1.593668818473816,0.28444331884384155,0.015029068104922771,-0.5350643396377563,0.2416965514421463,0.723598837852478,-1.660691738128662,-1.0795243978500366,-0.057630714029073715,-1.4034503698349,0.4057343602180481,1.503202199935913,0.3561253845691681,-0.4776571989059448,0
152,1520053,0.046745385974645615,-0.013268906623125076,-1.020153284072876,-0.35585758090019226,-0.3695000112056732,-1.1630758047103882,28.494482040405273,-10.780721664428711,40.268592834472656,-0.41748782992362976,0.7014864683151245,-2.095592498779297,-0.735164225101471,1.1447402238845825,0.8306173086166382,0.8442143201828003,1.0224756002426147,1.2346510887145996,-1.1723026037216187,0.6685461401939392,-0.5963659882545471,0.38998138904571533,0.8213534951210022,-1.4004323482513428,0
153,1529996,0.024030286818742752,-0.06409706175327301,-1.055747151374817,-0.4162541329860687,-0.5041021108627319,-0.10192740708589554,30.636165618896484,-9.032923698425293,39.58821487426758,-2.05169677734375,-1.8958476781845093,0.6919042468070984,0.40419086813926697,-1.7636510133743286,-0.4696092903614044,0.9461168646812439,1.5769476890563965,1.301788568496704,-0.599990725517273,-0.32945024967193604,1.340849757194519,2.1642117500305176,-2.1887972354888916,0.4963468611240387,0
154,1539737,-0.013776896521449089,0.047190841287374496,-1.0344551801681519,0.5738330483436584,-0.7419936060905457,-0.15307462215423584,29.267536163330078,-9.700727462768555,39.94565200805664,-1.0812578201293945,1.3237485885620117,1.433197259902954,0.41794824600219727,-1.3703324794769287,1.1439858675003052,-0.48358169198036194,2.9267847537994385,-0.5314562916755676,-2.2984540462493896,-1.0933419466018677,0.4959471821784973,1.6561285257339478,-0.056680649518966675,1.2342907190322876,0
155,1549953,-0.023280693218111992,0.006137927994132042,-1.0151749849319458,0.7052484154701233,-1.0895404815673828,0.48504015803337097,30.770429611206055,-11.297595977783203,41.519805908203125,0.5776806473731995,0.4043760299682617,1.548906683921814,-0.12533076107501984,1.0275598764419556,-1.1115281581878662,0.7809329032897949,0.5222797393798828,0.10850690305233002,0.14182044565677643,-0.6335223317146301,-0.5956412553787231,0.2710264325141907,-1.741860032081604,1.1568447351455688,0
156,1560002,0.0280774999409914,-0.04221165552735329,-1.0158082246780396,-0.6498369574546814,-1.3431413173675537,-0.32128337025642395,27.050264358520508,-9.720239639282227,40.58171081542969,-1.0070397853851318,0.5500234365463257,1.5703068971633911,0.8425882458686829,-1.064144253730774,-0.09718679636716843,-0.0187691543251276,1.7295054197311401,0.013470690697431564,0.6524786353111267,-0.16531610488891602,-0.6307029128074646,-0.09076909720897675,0.7290103435516357,-0.5574440360069275,0
157,1570110,0.07206247001886368,0.046655263751745224,-1.0194957256317139,-0.5111027359962463,0.16378912329673767,-0.10650616139173508,31.496946334838867,-9.091272354125977,40.432254791259766,0.39034149050712585,-1.2115463018417358,0.019622571766376495,0.47265028953552246,0.3550439774990082,0.14570438861846924,1.1348105669021606,1.9308022260665894,-0.321133553981781,0.14136625826358795,0.5371317267417908,-0.3945051431655884,-0.9685502052307129,-0.5566015243530273,0.7353798747062683,0
158,1580157,0.06039134040474892,0.017290689051151276,-1.0126994848251343,0.5584327578544617,0.16191813349723816,0.8311278820037842,31.923683166503906,-11.508569717407227,38.68460464477539,0.07676791399717331,-0.651626467704773,-0.0399167500436306,0.5347211956977844,0.2220805287361145,-0.18453246355056763,-0.03292103484272957,-0.10284806042909622,-0.8855612874031067,0.2314688265323639,-0.025938399136066437,-0.5599927306175232,0.9562278985977173,0.44649919867515564,0.9776449203491211,0
159,1589883,0.028768327087163925,-0.011078755371272564,-1.009543538093567,0.20322372019290924,0.326030969619751,-0.844802737236023,29.44760513305664,-10.25886344909668,39.253177642822266,-1.264101266860962,-0.12877590954303741,-0.620542585849762,-0.3661321699619293,1.2391530275344849,-0.29636943340301514,1.2881464958190918,-1.0866320133209229,-1.5096489191055298,1.4889932870864868,2.236584186553955,-0.8708838224411011,0.46902671456336975,0.29353904724121094,0.06665648519992828,0
160,1600003,0.011612183414399624,0.02014107257127762,-1.0488938093185425,-0.6158015727996826,0.43444448709487915,0.07513971626758575,29.38601303100586,-10.616767883300781,39.6229362487793,0.9460731148719788,1.3816349506378174,-0.0338936373591423,1.549768328666687,1.1738049983978271,-1.3059059381484985,1.7081778049468994,1.013628602027893,0.7446365356445312,-0.37617000937461853,-0.294488787651062,-0.08926380425691605,-0.187336727976799,-0.5405225157737732,-1.2997617721557617,0
161,1609924,0.06418869644403458,-0.04683190956711769,-0.9833506941795349,-0.45580992102622986,-1.180354356765747,-0.14653444290161133,29.716548919677734,-10.55041790008545,38.181236267089844,2.1012189388275146,0.5630212426185608,-0.04836966469883919,0.9211222529411316,0.10967205464839935,-1.931225299835205,-0.1705683171749115,0.6699208617210388,0.33321696519851685,0.5848913788795471,1.0974429845809937,-0.020083563402295113,-1.2303317785263062,0.27487218379974365,-0.5624558329582214,0
162,1619768,0.06405490636825562,0.017343850806355476,-0.9830940961837769,0.8189914226531982,-0.4524441361427307,-0.5550153255462646,29.951372146606445,-10.596165657043457,41.72160339355469,-0.9896517395973206,1.622398018836975,-0.43798398971557617,0.12250015884637833,0.7281791567802429,0.7311639785766602,0.8181408643722534,-1.4543079137802124,0.19791218638420105,1.0785739421844482,-0.13734515011310577,0.6441332697868347,1.2108954191207886,-2.065685749053955,1.1602234840393066,0
163,1630108,0.02456621080636978,0.04127655550837517,-1.0011897087097168,-0.0833212211728096,-0.041526369750499725,0.534317135810852,27.681243896484375,-10.037737846374512,41.40681076049805,-0.1845841407775879,-1.3594733476638794,0.4851342439651489,-1.126487135887146,0.19348278641700745,-0.9488695859909058,0.6343836188316345,-0.8007776737213135,-0.7402952909469604,1.9861420392990112,-1.5340535640716553,0.600622832775116,0.3556182086467743,-1.3743221759796143,-1.2532228231430054,0
164,1639933,0.057800937443971634,-0.04840407893061638,-1.0146434307098389,-0.7735816836357117,0.22795969247817993,-0.5998252034187317,29.67206382751465,-10.817058563232422,40.13651657104492,0.496200293302536,1.2222588062286377,0.7071038484573364,0.6253051161766052,-0.33237385749816895,2.250216007232666,1.2031432390213013,0.17275726795196533,-0.05386839434504509,0.052958134561777115,1.3901044130325317,1.3976657390594482,-1.2701002359390259,0.25547730922698975,-0.5041903853416443,0
165,1649941,-0.0802728608250618,0.027324935421347618,-1.010526180267334,0.2664394974708557,0.5116170048713684,0.16339316964149475,28.801355361938477,-10.9318265914917,36.6522216796875,-0.3117235004901886,0.5909527540206909,0.9102303981781006,0.362209290266037,-0.2569194436073303,-0.20717863738536835,-1.4115879535675049,-0.761070728302002,-1.2127809524536133,-0.44449475407600403,-0.11648445576429367,-0.6043936610221863,-2.6630725860595703,0.9992184638977051,-1.4341139793395996,0
166,1660150,-0.01669171079993248,-0.05435794219374657,-0.997456431388855,-0.6874096989631653,-0.07809329777956009,0.7553784847259521,29.63274574279785,-9.11611557006836,39.44911193847656,-0.0563308410346508,-1.705531358718872,-0.3791169822216034,1.4548547267913818,-0.46816080808639526,-0.28921839594841003,0.8865392208099365,0.8747426271438599,-0.5474516749382019,-0.11327855288982391,0.41709163784980774,0.0020847886335104704,0.7960618734359741,-0.9018879532814026,1.3289700746536255,0
167,1670240,-0.04849080368876457,0.020340701565146446,-1.005384087562561,-0.16121342778205872,-0.4287062883377075,-0.3484981060028076,29.088714599609375,-11.201683044433594,41.24048614501953,-1.5626018047332764,2.404062271118164,-1.1020292043685913,1.3219058513641357,0.986248791217804,-0.46927812695503235,-1.598846673965454,0.19126176834106445,-0.9469053149223328,-0.24698598682880402,-1.7256418466567993,-1.0585631132125854,0.5392093658447266,-2.3845791816711426,-0.025860164314508438,0
168,1680027,0.07415657490491867,0.06875405460596085,-0.9934332370758057,-0.7273442149162292,0.3605840504169464,-0.6381407976150513,29.466197967529297,-10.102639198303223,38.46754455566406,0.12437379360198975,-1.1345325708389282,1.3361029624938965,0.2875450849533081,1.0081645250320435,0.31698235869407654,-1.1513975858688354,-0.3825116753578186,-0.08020123839378357,2.00628924369812,-0.9644178152084351,-0.8215973377227783,-1.3480223417282104,0.08614571392536163,1.1959196329116821,0
169,1689960,0.05451567471027374,-0.04984954744577408,-0.9807857275009155,0.7028356790542603,0.021062396466732025,0.42159217596054077,28.606184005737305,-10.894119262695312,41.05205535888672,0.4382613003253937,-0.9467180371284485,-0.6144132018089294,-1.1096889972686768,1.6678439378738403,-0.313851535320282,0.11175668239593506,0.4657062292098999,-1.1292719841003418,-1.613978385925293,-1.577362298965454,-0.5688917636871338,-0.23825207352638245,1.0760185718536377,0.48502811789512634,0
170,1700034,-0.017667502164840698,0.034210607409477234,-1.0249967575073242,-0.37569350004196167,0.13200297951698303,0.16861006617546082,28.99190330505371,-8.57371997833252,40.50534439086914,0.46976128220558167,1.3753408193588257,0.6206541657447815,2.6649820804595947,0.9816272854804993,1.5587537288665771,0.551066517829895,0.04143059253692627,0.8774915933609009,1.0924113988876343,-1.7780089378356934,0.6109114289283752,-0.3693963289260864,-0.8081454634666443,-2.540424108505249,0
171,1709840,-0.0018445146270096302,-0.013904466293752193,-0.9861055612564087,-0.4102489948272705,-0.3907545506954193,0.31207823753356934,30.665874481201172,-12.666470527648926,42.23977279663086,-0.04144363850355148,0.43206700682640076,0.6219154000282288,-0.13589313626289368,-0.5369213819503784,-1.011035442352295,0.09167414903640747,-0.09437412023544312,0.1392163336277008,0.6019020676612854,-0.516152024269104,0.18100270628929138,-1.0064475536346436,-0.1408548355102539,-0.1489502489566803,0
172,1720046,-0.012897428125143051,0.0063073416240513325,-0.9849637150764465,0.062089260667562485,-0.0703718364238739,0.15354567766189575,29.528961181640625,-9.532510757446289,41.788719177246094,0.10955516993999481,1.3021023273468018,0.906406819820404,1.1287237405776978,0.5988785624504089,-1.3386266231536865,2.42703914642334,-0.6152574419975281,0.44274598360061646,0.21083325147628784,1.167616605758667,-0.5303465723991394,-0.9822171926498413,-1.2124757766723633,1.6615546941757202,0
173,1730182,0.03698107600212097,-0.0335916243493557,-1.012402892112732,0.4336906373500824,0.4816769063472748,0.6183198094367981,28.397348403930664,-9.41910457611084,40.353511810302734,1.7803900241851807,-0.6184284687042236,-0.2547937035560608,-1.9502487182617188,-0.3023037314414978,1.6976007223129272,-0.605657160282135,1.1503567695617676,0.223402738571167,0.4993297755718231,-0.8587743043899536,0.7215180993080139,-0.012837603688240051,-0.8799884915351868,0.23117460310459137,0
174,1739752,0.043338555842638016,0.022339100018143654,-0.9980421662330627,0.5519558787345886,-0.048706792294979095,-0.23164363205432892,29.872709274291992,-10.297060012817383,39.35840606689453,1.152449131011963,-0.216769278049469,-0.24337217211723328,0.027349669486284256,0.3294808566570282,0.732063353061676,0.3339751660823822,-1.5156782865524292,1.1683733463287354,-1.1027345657348633,-1.359580636024475,-1.3399890661239624,0.05704842135310173,0.24117493629455566,-1.0001689195632935,0
175,1750099,-0.07276026159524918,-0.006411832757294178,-0.9758495688438416,-0.29863154888153076,-0.024272289127111435,-0.08516988903284073,29.73180389404297,-10.348587036132812,42.4893913269043,-1.560700535774231,-1.0798884630203247,-0.4972941279411316,1.8067971467971802,0.12757810950279236,0.03389905020594597,0.20959851145744324,1.3392632007598877,1.5994768142700195,0.24000084400177002,-0.4152022898197174,-0.7149294018745422,-0.8865461945533752,-0.6666625142097473,-0.14976857602596283,0
176,1759747,0.01355502288788557,-0.02927420102059841,-1.0036497116088867,-0.2915455400943756,0.06686113774776459,-0.2272513210773468,29.925376892089844,-11.262007713317871,38.769535064697266,-0.4912880063056946,0.9459359049797058,1.0806421041488647,0.2058403044939041,-1.381637692451477,2.0042457580566406,-1.7839304208755493,-1.5805119276046753,1.6471283435821533,1.0198578834533691,-0.19397282600402832,0.48874494433403015,-0.14004702866077423,-0.43430814146995544,-0.007606768514961004,0
177,1770183,0.016379933804273605,-0.06168283894658089,-1.052564263343811,0.5602715611457825,-0.13019919395446777,-0.20726419985294342,30.672115325927734,-10.006380081176758,38.6817626953125,0.6229759454727173,0.07255851477384567,1.8761879205703735,0.16025274991989136,1.4748034477233887,-0.36602330207824707,0.11366983503103256,1.685294270515442,-1.0443240404129028,0.30843448638916016,0.08466928452253342,-1.9093940258026123,-1.088067889213562,-0.9368369579315186,0.7956474423408508,0
178,1780042,-0.016470931470394135,0.03422631695866585,-1.007885217666626,-0.962326169013977,0.7646259069442749,-0.6861830949783325,30.72720718383789,-10.750749588012695,38.91608428955078,-0.4872826635837555,-0.19906464219093323,-0.8905262351036072,-0.34743547439575195,0.6553552746772766,0.01993671990931034,-0.28736186027526855,0.0013727492187172174,1.6799649000167847,-0.24377985298633575,0.566171407699585,-0.41912972927093506,0.16726702451705933,2.1302452087402344,0.9962322115898132,0
179,1789742,0.04736228287220001,0.0016396433347836137,-0.9936942458152771,0.08029302954673767,-0.367626816034317,0.40015050768852234,29.143505096435547,-8.646695137023926,39.33437728881836,-0.45030051469802856,-0.18893082439899445,0.40792444348335266,-0.31386932730674744,-1.0198278427124023,-0.18418796360492706,0.7843198180198669,0.1128404438495636,-0.49569618701934814,-0.2881433665752411,-0.48055461049079895,-0.24833965301513672,-0.48510897159576416,-0.676366925239563,0.8958714008331299,0
180,1799865,-0.05844423919916153,-0.03067108802497387,-0.9755455851554871,-0.1864340901374817,0.38428694009780884,-0.25564563274383545,28.266862869262695,-10.014118194580078,39.217002868652344,0.5254985690116882,-0.7569913864135742,-0.038208890706300735,0.21131044626235962,0.9306200742721558,-1.3412851095199585,0.4333305358886719,0.28129130601882935,0.3618720471858978,-0.8000092506408691,0.26298657059669495,0.8344351649284363,-0.5489798784255981,-1.5042312145233154,-0.3204243779182434,0
181,1810108,-0.03157612308859825,0.1299372911453247,-1.027862310409546,-0.02944101020693779,0.21164487302303314,0.772922933101654,30.9118709564209,-10.070140838623047,39.53645324707031,-1.5032637119293213,-0.40167587995529175,0.6081593036651611,-0.1457979381084442,1.3520804643630981,-1.1093238592147827,1.2387592792510986,-1.8188339471817017,-2.063171625137329,2.1704399585723877,-0.5854167938232422,0.38607826828956604,-1.4165489673614502,-0.5112130641937256,0.505932092666626,0
182,1819990,-0.06245389208197594,-0.02988848276436329,-1.0191439390182495,0.09166792035102844,-0.6781017184257507,0.05098319426178932,29.20522117614746,-8.813940048217773,41.0224494934082,0.20753173530101776,0.09539522230625153,-0.41192570328712463,0.8660068511962891,-0.05915142968297005,1.0977623462677002,0.06589726358652115,-1.6308917999267578,-1.7109949588775635,1.5878839492797852,2.1198344230651855,1.8282243013381958,-0.62847900390625,0.9140426516532898,-0.5177671909332275,0
183,1830029,-0.07998933643102646,0.04270179569721222,-0.96034836769104,0.2712223529815674,0.14638873934745789,-0.1485278308391571,29.8140869140625,-10.76169204711914,40.265380859375,0.8978168964385986,1.2834800481796265,-0.14959222078323364,-1.7405147552490234,-0.6723709106445312,-1.3264914751052856,-0.10504532605409622,0.29546689987182617,-0.7003180980682373,1.3378907442092896,-0.3769323527812958,-0.3783014416694641,0.49373963475227356,-1.535386562347412,-0.47184041142463684,0
184,1839948,-0.03298560157418251,-0.07357006520032883,-0.9906001687049866,0.4773600101470947,0.046261005103588104,0.3377155363559723,31.677661895751953,-11.09819221496582,38.41748046875,1.3625046014785767,-0.4451962411403656,1.0555953979492188,0.5980397462844849,-0.019213208928704262,0.7973858118057251,0.35129687190055847,-0.19543851912021637,0.11477378010749817,0.17114022374153137,-0.3557094633579254,0.7677413821220398,0.8122896552085876,-0.9159865975379944,0.9323749542236328,0
185,1849807,-0.019863102585077286,-0.07879040390253067,-1.029722809791565,0.32046499848365784,0.2996702492237091,0.26480162143707275,30.44606590270996,-11.466890335083008,38.4744758605957,0.05403997376561165,-1.028026819229126,0.7484776377677917,0.20590391755104065,0.6449654698371887,-0.485807329416275,0.01723189651966095,0.9908291101455688,1.3055373430252075,0.9256412386894226,-0.37546494603157043,1.043778419494629,-1.3925679922103882,0.5219538807868958,1.075758457183838,0
186,1859887,0.010654043406248093,0.018298011273145676,-1.0134683847427368,-0.24085982143878937,-0.07429665327072144,0.03397395834326744,29.697023391723633,-9.44920539855957,39.785728454589844,-1.2001389265060425,0.8627912402153015,-0.031112894415855408,-0.02772466652095318,0.2742038071155548,-1.4845011234283447,-1.4830644130706787,0.9382687211036682,-0.4461553990840912,-1.5110182762145996,1.9178106784820557,-0.46932920813560486,2.3605916500091553,1.126095175743103,1.4321742057800293,0
187,1870262,0.040990572422742844,0.02712658792734146,-0.9790894985198975,0.012036112137138844,0.47838833928108215,0.23431071639060974,30.51376724243164,-9.987204551696777,39.02406692504883,1.1887353658676147,-0.6413282155990601,-0.11773998290300369,1.1431173086166382,0.1305447667837143,-0.08766922354698181,1.6989918947219849,1.4770803451538086,1.6489579677581787,0.4631274342536926,-0.0012241422664374113,0.32275453209877014,1.972102165222168,0.05837378278374672,0.260820597410202,0
188,1879961,-0.13167348504066467,-0.00598163390532136,-0.9984914660453796,-0.2278861701488495,1.235607624053955,0.23651018738746643,31.195541381835938,-10.924332618713379,39.17599868774414,-1.7287284135818481,-0.5469502806663513,-0.9867681860923767,0.7868494987487793,-0.36903366446495056,1.314906358718872,-1.2121325731277466,0.5804586410522461,0.20980314910411835,1.8172016143798828,-0.8171555399894714,0.21743883192539215,-1.1108951568603516,1.9625345468521118,-0.5562694072723389,0
189,1889925,0.010324579663574696,-0.12691396474838257,-0.9760424494743347,0.19849829375743866,0.22621259093284607,0.1108214259147644,29.86017608642578,-9.411764144897461,40.58350372314453,1.6975475549697876,-1.2480918169021606,-0.030378250405192375,-0.8474129438400269,0.2180454581975937,-0.21483589708805084,-0.7457250356674194,0.1535211205482483,-0.00439997436478734,0.502295732498169,1.2949236631393433,0.1670331507921219,-0.33135154843330383,-0.7365292906761169,-0.3897504508495331,0
190,1900055,-0.04103853553533554,-0.09961491078138351,-1.0335438251495361,0.2762584388256073,0.5101610422134399,0.40864524245262146,30.411821365356445,-10.545711517333984,40.946556091308594,-0.2622200548648834,0.27581754326820374,0.2600814700126648,0.03529820591211319,-1.1692034006118774,-0.01674455776810646,-0.1857426017522812,-0.9667923450469971,-0.21082323789596558,0.3986610770225525,0.6284007430076599,1.8112444877624512,-0.1831217259168625,0.49658650159835815,-1.4137638807296753,0
191,1910166,0.020374156534671783,0.033389829099178314,-1.023309588432312,-0.37122052907943726,0.3382929861545563,-0.26268061995506287,30.47003936767578,-9.972416877746582,39.84550476074219,-0.5650955438613892,0.4603530466556549,0.8014609813690186,-1.0135470628738403,-1.3323341608047485,2.8327643871307373,0.34297680854797363,-1.397283673286438,0.850704550743103,0.9499781727790833,-1.865707278251648,0.5685349702835083,1.0402019023895264,0.7882707715034485,0.17629703879356384,0
192,1919806,0.056159619241952896,-0.024142302572727203,-0.9816885590553284,0.45983269810676575,-0.6628335118293762,0.14923541247844696,28.026348114013672,-10.019991874694824,38.83523178100586,0.06361307948827744,-0.34578758478164673,1.609493374824524,1.37540864944458,2.8388633728027344,0.5728079676628113,1.4086302518844604,0.12069397419691086,-1.057049036026001,-0.8406793475151062,3.3774220943450928,0.4573975205421448,-0.34768959879875183,-1.2855825424194336,-0.6393836140632629,0
193,1929865,-0.021860862150788307,0.044374193996191025,-0.9698824882507324,0.5286166071891785,-0.4714794158935547,-0.11385196447372437,30.471681594848633,-9.821675300598145,40.05389404296875,-1.519116997718811,-1.334930658340454,-0.28749433159828186,1.0564091205596924,0.03908058628439903,2.7543962001800537,-0.8183371424674988,2.9283177852630615,3.103295087814331,1.4205037355422974,0.4236544668674469,0.4705553948879242,0.4414609372615814,1.1876295804977417,-1.0211642980575562,0
194,1939864,0.023413371294736862,-0.13239037990570068,-1.0284713506698608,0.05196715146303177,-0.7801461219787598,0.6338702440261841,30.42161750793457,-9.988141059875488,40.518470764160156,-0.720883309841156,1.6206550598144531,1.1929429769515991,1.184232234954834,1.2833093404769897,1.0127032995224,1.6379506587982178,0.055593740195035934,1.1467355489730835,-0.7528963685035706,-0.47849005460739136,1.1160472631454468,0.24133285880088806,0.23065005242824554,2.0136024951934814,0
195,1950082,0.04860294237732887,0.03738109767436981,-1.0011671781539917,-0.5547127723693848,-0.6716457009315491,-0.5418421030044556,30.6458683013916,-9.775928497314453,40.005218505859375,-1.6019278764724731,2.0588691234588623,-0.16551733016967773,0.08291879296302795,0.7982966303825378,-0.4444045424461365,0.19289113581180573,-1.6390408277511597,-0.9547424912452698,0.27228084206581116,0.18266864120960236,1.2186466455459595,-0.46864694356918335,0.911539614200592,-0.7334771752357483,0
196,1959959,-0.025318192318081856,-0.06619968265295029,-1.0349960327148438,-0.4879463315010071,0.5189517140388489,0.40845444798469543,30.17833137512207,-8.7245512008667,40.64999008178711,-0.5709211230278015,0.5327790379524231,0.8931208252906799,-0.6128057837486267,-0.5232036113739014,-0.5807639956474304,-1.1773487329483032,1.6487830877304077,1.312253475189209,0.46857067942619324,-0.2516666054725647,-0.7720550298690796,-0.3715920150279999,0.6003853678703308,1.1728496551513672,0
197,1969932,0.06330514699220657,0.09114037454128265,-1.0088194608688354,-0.4326978921890259,0.5431801080703735,0.1598752737045288,28.582273483276367,-9.554070472717285,38.54832077026367,-0.3767126500606537,-0.7226827144622803,-0.49043503403663635,2.1553733348846436,0.36134251952171326,1.6914482116699219,-1.522410273551941,1.0774729251861572,-1.7618067264556885,-0.648659884929657,-0.9881256818771362,0.13416051864624023,0.16616685688495636,0.37649479508399963,0.8449845314025879,0
198,1979785,0.0218528900295496,-0.0010906602256000042,-1.0158933401107788,0.4257904589176178,0.24605046212673187,-0.7465830445289612,29.652868270874023,-9.94284439086914,39.97929000854492,-1.2167786359786987,0.5908870697021484,0.19787338376045227,-0.350173681974411,-0.12558677792549133,-0.859565794467926,1.7879036664962769,1.3794182538986206,-0.05036035552620888,1.2575137615203857,-0.9759781956672668,1.832474946975708,0.07045739144086838,1.451876163482666,0.1511111557483673,0
199,1990186,-0.04973124712705612,-0.046147670596838,-0.9761664271354675,0.535137414932251,-0.21429963409900665,-0.1115228608250618,30.098657608032227,-9.777544021606445,39.11542892456055,-0.6135130524635315,-1.131219744682312,0.29922497272491455,-0.3282491862773895,1.0878303050994873,0.2805030941963196,0.3212873935699463,-0.6880719661712646,-2.401981830596924,-2.5650219917297363,0.45306509733200073,-0.08841347694396973,0.13909444212913513,-0.6642563343048096,-2.293750524520874,0
200,1999623,-0.023456480354070663,-0.046334408223629,-1.0482114553451538,-0.21311287581920624,0.2902648448944092,0.8201634287834167,29.984792709350586,-10.474931716918945,41.48023986816406,0.7715848088264465,-1.0895532369613647,0.45652562379837036,-0.7756475210189819,-0.6477707624435425,1.7989832162857056,-1.1354169845581055,-0.6876232028007507,-0.2634963393211365,-0.06719405949115753,0.12810179591178894,-1.4426928758621216,2.231158494949341,-0.4450877904891968,0.1386687010526657,0
201,2009591,0.1093706488609314,0.0659063383936882,-0.9852584600448608,-0.11864274740219116,0.04801222309470177,0.17934377491474152,30.981922149658203,-9.859737396240234,40.579193115234375,-0.9410825967788696,0.35279661417007446,1.8654749393463135,-0.573158860206604,0.0417463518679142,0.40769022703170776,-0.5125089883804321,0.06272997707128525,2.0710487365722656,0.25818580389022827,0.06495019793510437,1.4765044450759888,0.3718620836734772,-0.35049304366111755,-0.886836051940918,0
202,2020150,-0.018981710076332092,0.003228444140404463,-1.0078243017196655,-0.32911375164985657,-0.5866251587867737,0.1396043747663498,29.112245559692383,-9.638065338134766,40.76228332519531,0.290959894657135,-1.9566495418548584,1.1105742454528809,0.39438238739967346,0.7197360396385193,0.1637006253004074,0.5682511329650879,-1.3430231809616089,-0.5664022564888,0.28041908144950867,-0.26432740688323975,-0.4518623650074005,-0.0845920592546463,0.7669618129730225,0.4838618338108063,0
203,2030149,0.001237718272022903,0.03072812594473362,-0.9798744320869446,-0.22295571863651276,0.03708522021770477,0.5498157143592834,29.99566078186035,-9.477738380432129,39.93159103393555,0.8968738913536072,0.45953258872032166,0.8305789232254028,0.45255425572395325,-2.7456893920898438,-0.3939676284790039,-1.0546929836273193,2.352933883666992,-0.18820978701114655,-1.2242542505264282,-0.45873191952705383,-1.3158670663833618,0.1612931191921234,-1.1898714303970337,-0.7863117456436157,0
204,2040054,-0.06711099296808243,-0.06858338415622711,-1.0114716291427612,-0.4255917966365814,0.1349097341299057,0.07274521142244339,29.990684509277344,-10.48119068145752,38.16981887817383,-0.0026801996864378452,-0.4847283363342285,0.5018811821937561,1.001139521598816,-0.7762030363082886,0.747443675994873,0.28106120228767395,1.650589108467102,1.7388206720352173,0.4589517116546631,0.6411051750183105,0.0627857968211174,0.4261568486690521,2.206362724304199,-1.5540152788162231,0
205,2049961,0.03275279328227043,-0.05038183927536011,-0.9783134460449219,0.4840855896472931,0.18636362254619598,0.7651962637901306,27.75912094116211,-9.590189933776855,41.03150177001953,-0.08450871706008911,1.018280029296875,-0.24285240471363068,-1.3332762718200684,-0.9209644198417664,0.31862983107566833,-1.149783730506897,0.7234112024307251,-0.22147564589977264,0.6825659275054932,1.122376799583435,-0.8177491426467896,-0.19120655953884125,-1.2618508338928223,0.15595871210098267,0
206,2060114,-0.02345898747444153,0.0004845420771744102,-0.9929220080375671,-0.055479660630226135,0.056152038276195526,-0.8235858678817749,29.025148391723633,-10.212885856628418,40.1033935546875,0.18508747220039368,-2.278263807296753,-0.0777893215417862,0.31520915031433105,0.9839935898780823,-0.22165551781654358,-0.9174027442932129,-1.1815754175186157,-1.4240033626556396,-1.243104338645935,-0.3869192600250244,0.3141906261444092,-0.14644762873649597,0.13836278021335602,0.515656590461731,0
207,2070061,-0.015031089074909687,-0.009578404016792774,-0.9976876974105835,0.11432097107172012,0.0968371108174324,0.2894316017627716,29.328786849975586,-8.481072425842285,40.15677261352539,-1.5072686672210693,0.4512682557106018,0.9320806264877319,-2.193174123764038,-0.03145035356283188,-0.8573814034461975,1.338199257850647,0.9072578549385071,1.8245552778244019,-0.20840127766132355,-0.28863778710365295,2.2706472873687744,-2.118659496307373,0.35938480496406555,0.26136133074760437,0
208,2079939,-0.03230351582169533,-0.03176967799663544,-1.0276570320129395,-0.0050267418846488,0.28185680508613586,0.30521899461746216,27.76767921447754,-8.604275703430176,40.7047233581543,-1.2486635446548462,-0.0026791051495820284,-1.8447221517562866,1.8876289129257202,1.3355554342269897,-2.325371265411377,0.7406495213508606,1.2735909223556519,1.8148181438446045,-1.433944582939148,0.42382681369781494,-1.0728362798690796,-0.08669061958789825,1.1879305839538574,0.6807639598846436,0
209,2090125,0.11032596230506897,-0.09029200673103333,-0.9703609347343445,-0.21251998841762543,0.5387728214263916,0.7457701563835144,29.77704620361328,-11.280966758728027,39.217464447021484,0.5488727688789368,-1.487197995185852,1.7271925210952759,0.06320127099752426,-0.8546332716941833,-0.6518443822860718,0.29487794637680054,0.4386804401874542,0.338447242975235,-0.4691612720489502,-1.065503716468811,-0.7323815822601318,-1.2420655488967896,-0.038335345685482025,2.0394222736358643,0
210,2099843,0.08293351531028748,-0.004484693519771099,-0.9649625420570374,-0.21411442756652832,0.35157090425491333,0.7567930221557617,30.247533798217773,-8.306992530822754,40.64219665527344,1.1331862211227417,0.5965341925621033,0.3854900896549225,0.22642400860786438,0.2737017571926117,0.3944999575614929,-1.3657071590423584,0.1647777408361435,-0.9828715324401855,0.6569697260856628,0.9494754672050476,0.8501983880996704,-0.036725759506225586,1.5807911157608032,0.746589720249176,0
211,2109917,-0.04032447561621666,-0.10162863880395889,-0.9813299775123596,0.8444581627845764,-0.06461204588413239,-0.5115141868591309,29.877126693725586,-7.928090572357178,39.626434326171875,1.0393692255020142,0.7524550557136536,0.1254500299692154,2.2630302906036377,-0.1945178061723709,0.5804193019866943,-0.5417990684509277,0.580387532711029,0.5444747805595398,0.9258371591567993,-1.9153668880462646,0.05745375156402588,-0.32522112131118774,0.739294171333313,1.7549257278442383,0
212,2120172,-0.0014057194348424673,-0.011432288214564323,-1.053327202796936,-0.32772397994995117,0.03815668821334839,0.04523342102766037,29.2519474029541,-10.748734474182129,40.7309684753418,1.4058319330215454,0.5735607147216797,0.3198605179786682,0.24097813665866852,-0.9599130153656006,-0.9188394546508789,-0.18812593817710876,-1.8854000568389893,1.0152581930160522,0.8932458162307739,-0.8423066139221191,-1.0263081789016724,-0.443514883518219,0.6818605661392212,0.3358985185623169,0
213,2129811,-0.05078211799263954,0.062403604388237,-0.9677556157112122,-0.407265305519104,0.3680710196495056,-0.363226056098938,28.922054290771484,-9.568936347961426,40.204002380371094,-0.7081441879272461,0.3568207621574402,0.11019759625196457,1.874899983406067,-1.0084362030029297,-0.8099114298820496,1.7373998165130615,0.3481869101524353,0.16725385189056396,-0.4381392002105713,-0.3878183960914612,-0.894784688949585,-1.2870289087295532,0.4084746837615967,2.133293390274048,0
214,2139948,-0.03293285146355629,-0.05213884636759758,-1.0021969079971313,-0.2838536202907562,0.4272274374961853,0.34001702070236206,28.753149032592773,-10.066190719604492,40.02036666870117,0.05966035649180412,1.6794354915618896,-0.9487181305885315,-0.685916006565094,0.6292562484741211,0.6135621666908264,-0.5308594107627869,-0.03417826071381569,1.8361272811889648,-2.6866955757141113,0.6372465491294861,-0.07870374619960785,-1.8561078310012817,0.12917764484882355,0.43344131112098694,0
215,2149964,-0.026599232107400894,0.08527500182390213,-1.0004520416259766,0.10893295705318451,0.08053085952997208,-0.6244708895683289,27.86617660522461,-11.503785133361816,40.63229751586914,0.3691335618495941,0.2793395221233368,-0.03530437499284744,1.0837371349334717,0.19342924654483795,-1.1143507957458496,0.17720916867256165,0.6228950023651123,0.5934502482414246,0.34200096130371094,0.18240979313850403,0.5400455594062805,1.9107519388198853,0.04014851897954941,-1.0962213277816772,0
216,2159919,-0.05502239242196083,0.032641440629959106,-0.9869444966316223,-0.31724077463150024,0.06538477540016174,-0.7808396816253662,29.86627960205078,-9.87481689453125,41.59759521484375,0.8422747254371643,2.3006861209869385,-1.461045503616333,0.975768506526947,-0.19689248502254486,-0.09983199089765549,-0.5292521119117737,-1.1362403631210327,-1.4542399644851685,0.292258620262146,1.573208212852478,0.1204243153333664,-0.9663321375846863,-0.21560345590114594,-0.9144869446754456,0
217,2170130,-0.027087058871984482,0.0010483373189345002,-0.9820987582206726,-0.41913530230522156,-0.019947025924921036,-0.6471227407455444,28.856962203979492,-10.6129150390625,39.24882888793945,-0.9200730323791504,0.41735339164733887,-0.8875419497489929,0.7007483243942261,1.102541446685791,0.03662075474858284,0.0659293383359909,0.31418663263320923,-0.5425134301185608,0.7813308238983154,-0.23608681559562683,0.2861923575401306,1.553632140159607,1.8047401905059814,-0.10169904679059982,0
218,2180182,-0.032096460461616516,-0.0014428668655455112,-0.9968298077583313,-0.6703723073005676,0.5676676630973816,0.6354675889015198,29.414735794067383,-10.646112442016602,41.4710807800293,-0.9677872061729431,-2.30324125289917,-1.3038113117218018,-0.024452978745102882,-1.161393404006958,-0.2157527059316635,0.06621672958135605,0.561345100402832,0.677073061466217,0.35660287737846375,0.46183255314826965,-0.976956844329834,1.9926546812057495,0.6641870737075806,-0.16186928749084473,0
219,2190140,-0.005322721786797047,-0.013138338923454285,-0.9914868474006653,-0.14196620881557465,-0.6009743809700012,0.14288239181041718,30.631750106811523,-9.998479843139648,40.74787139892578,-0.2136688530445099,-0.035043906420469284,0.056645363569259644,-1.3787366151809692,-0.7473338842391968,0.5969042778015137,0.032342758029699326,-0.17892371118068695,-0.4200168550014496,0.36524325609207153,0.4549044370651245,1.7089593410491943,-0.8211426138877869,0.6410369277000427,0.952328085899353,0
220,2199817,0.06383685022592545,-0.046467531472444534,-0.99223792552948,0.02993742749094963,-0.39764684438705444,-0.525201141834259,28.731868743896484,-8.615283012390137,39.29955291748047,-0.24354444444179535,-0.019288310781121254,0.3495314121246338,-0.5197550654411316,1.1134727001190186,0.40966954827308655,2.78877854347229,0.2868267893791199,1.1941018104553223,-0.5762026309967041,0.2046985626220703,2.150516986846924,-0.5317241549491882,-0.13971970975399017,0.0008329729898832738,0
221,2209949,0.036346904933452606,-0.007691935170441866,-1.0096616744995117,-0.17184855043888092,-0.12956145405769348,0.6899937987327576,30.92634391784668,-10.940298080444336,39.33264923095703,1.5185844898223877,-0.36828622221946716,0.17728018760681152,-0.5447580814361572,-1.5064513683319092,-1.0107190608978271,0.7371616363525391,-1.0552247762680054,-1.7981810569763184,-0.9320083856582642,0.5199379920959473,-0.9042834639549255,-0.06800065189599991,-0.3467491567134857,-1.11301589012146,0
222,2220055,0.036738183349370956,0.037958450615406036,-1.005222201347351,-0.21300962567329407,-1.2571853399276733,-0.192142054438591,31.15268325805664,-9.81186294555664,39.98319625854492,0.08715973794460297,0.6014679074287415,-0.2876073718070984,-1.288884162902832,0.03748852387070656,0.15215501189231873,-1.5294100046157837,0.7134630084037781,-0.8958953619003296,-0.5475608706474304,1.4447226524353027,1.221713900566101,-0.59512859582901,0.21573643386363983,-1.268743872642517,0
223,2230134,0.08753592520952225,0.045853860676288605,-1.0117734670639038,0.003463356988504529,0.07296501100063324,0.28852036595344543,28.522048950195312,-11.404364585876465,39.3772087097168,-0.4924857020378113,-0.7537028789520264,-1.969254732131958,-0.7336216568946838,-0.1572866141796112,-0.257470041513443,0.8678552508354187,0.007072458975017071,-2.0208146572113037,1.3674893379211426,-0.6253721714019775,0.7970066070556641,2.4820990562438965,0.36857813596725464,-0.8233513832092285,0
224,2239950,-0.06323917210102081,-0.03484111651778221,-0.9897221922874451,0.3316798508167267,0.002044706605374813,0.9906181693077087,29.85586166381836,-11.58782958984375,39.356201171875,0.03122824616730213,-1.132473349571228,-0.5184334516525269,0.7347360849380493,-0.12526124715805054,-1.2636871337890625,-0.6086970567703247,0.43680283427238464,-0.2454463541507721,-0.9339839816093445,1.1017167568206787,-1.598328948020935,0.20048658549785614,-0.5985427498817444,1.2432409524917603,0
225,2249918,-0.008813021704554558,0.07482226938009262,-0.9890530705451965,-0.2361837923526764,0.472276896238327,-0.4501354396343231,32.37482452392578,-8.515376091003418,38.85653305053711,0.13493478298187256,-0.48532116413116455,-0.46707233786582947,-0.6598698496818542,0.2401541769504547,-0.666638970375061,1.3689424991607666,-0.6325510144233704,-0.09281495958566666,-0.9495563507080078,-2.539309024810791,-0.3646942377090454,-0.652675211429596,-0.04339734464883804,1.5795899629592896,0
226,2259964,0.02258940413594246,-0.038678281009197235,-1.0031604766845703,0.8435803651809692,0.7322499752044678,-0.3977564573287964,31.191774368286133,-8.864338874816895,39.229557037353516,-0.19355712831020355,2.1967356204986572,-0.915398120880127,0.3245905935764313,-2.033092975616455,0.5684590935707092,0.22736535966396332,-0.7063273191452026,0.41048648953437805,-0.5426605343818665,0.47264590859413147,1.4374924898147583,-0.08251636475324631,0.9298032522201538,-0.9013358950614929,0
227,2270097,0.07241499423980713,-0.06739617884159088,-0.9819631576538086,-0.2691318392753601,0.19911208748817444,-0.6729743480682373,28.786136627197266,-9.855544090270996,39.21261978149414,0.2834586501121521,-0.612666666507721,0.39417728781700134,1.743958830833435,-1.8100711107254028,0.25412771105766296,-0.42694562673568726,-0.5425047874450684,0.5925666689872742,0.3736802041530609,0.0373847596347332,-0.5725806951522827,-1.1856762170791626,1.0098774433135986,0.33253732323646545,0
228,2280101,-0.01444433256983757,-0.09110401570796967,-1.0111008882522583,0.1705532819032669,-0.2702438533306122,0.20483742654323578,30.313457489013672,-9.210180282592773,40.19816970825195,-0.49698305130004883,1.095233678817749,0.9634360074996948,-0.47411322593688965,0.2974088788032532,-0.2937045693397522,-0.15851382911205292,-0.3925268352031708,0.4968887269496918,-0.6475210189819336,-0.5703396201133728,1.466614842414856,0.256162166595459,-0.1660851240158081,0.06003086268901825,0
229,2290049,0.03935195878148079,-0.05347006767988205,-0.9877212643623352,0.030587730929255486,0.5492627024650574,0.2650125026702881,28.95008087158203,-11.442458152770996,39.35797882080078,0.6241857409477234,-1.1011550426483154,-0.49218717217445374,-1.4107203483581543,0.9035302400588989,1.040681004524231,-0.0841246172785759,-0.1035555824637413,0.21221238374710083,-2.587334632873535,-0.20485049486160278,1.0284767150878906,-0.14706817269325256,-0.09945645183324814,1.3755180835723877,0
230,2300022,0.00623060017824173,-0.1026211753487587,-0.9891698360443115,0.05733487010002136,0.19384606182575226,-0.2998848259449005,29.412628173828125,-8.740730285644531,40.0704460144043,-0.04925232380628586,1.0622334480285645,-0.7189578413963318,-0.7492594718933105,1.3477060794830322,0.4311366379261017,1.6969045400619507,-0.1777188926935196,1.512576699256897,-1.288354516029358,0.4134964048862457,-0.1858360469341278,0.7629871964454651,0.7196388244628906,1.2368465662002563,0
231,2310038,-0.10249598324298859,0.06062962859869003,-1.0373446941375732,0.31131333112716675,-0.09374669194221497,0.14592495560646057,30.344806671142578,-12.120898246765137,38.950218200683594,-0.5968244075775146,1.212058663368225,-0.6030282974243164,1.6329580545425415,-0.6763114929199219,0.1803523302078247,2.5308523178100586,-1.670575737953186,1.2749216556549072,0.1705656200647354,-0.4957830011844635,0.09481030702590942,1.0198924541473389,-0.19915486872196198,-0.308491587638855,0
232,2319956,-0.004695439711213112,0.00860134419053793,-0.9788137078285217,0.6379517912864685,-0.5402875542640686,-0.37270277738571167,29.335243225097656,-10.292271614074707,39.011409759521484,1.1145941019058228,2.6488037109375,-0.06874730437994003,-0.02898724563419819,-0.028079994022846222,1.1876980066299438,-1.431604266166687,-0.17573751509189606,-0.5164421200752258,-0.1650892049074173,0.09307452291250229,-0.6235745549201965,0.15654827654361725,0.46106985211372375,0.02178211137652397,0
233,2330138,-0.06471612304449081,0.12248764932155609,-1.0224345922470093,0.016796784475445747,0.24942642450332642,-0.19474194943904877,29.72482681274414,-11.761503219604492,39.153465270996094,0.8719279766082764,0.08330705761909485,0.7164679169654846,-0.08513719588518143,1.3343925476074219,-0.41395822167396545,0.42342960834503174,0.6395214796066284,1.255832314491272,1.3526618480682373,0.08830283582210541,-2.312394618988037,0.1990637481212616,0.7882239818572998,-0.4744703471660614,0
234,2339985,0.017771117389202118,-0.044923581182956696,-0.9764214158058167,0.5878953337669373,-0.47598686814308167,0.12081747502088547,31.305906295776367,-11.063495635986328,41.47816467285156,1.4528051614761353,1.2296462059020996,0.6901296973228455,0.04948101192712784,-1.216630458831787,0.572367250919342,-0.9071146845817566,0.1240476742386818,1.217703104019165,-0.1557288020849228,-0.4492676854133606,0.8230886459350586,-0.9398375749588013,-0.8814765214920044,-0.5569058656692505,0
235,2350081,0.04180873557925224,-0.016866538673639297,-1.0011078119277954,-0.3230196237564087,-0.3883479833602905,0.18949317932128906,28.17006492614746,-10.140375137329102,40.77769470214844,0.3185744285583496,0.205081507563591,-0.2833802402019501,-0.4573249816894531,-0.30661994218826294,-0.15510882437229156,-0.07108829915523529,0.2063421756029129,-0.7379643321037292,-0.04097195342183113,-0.6932293176651001,-0.0025732803624123335,0.9895800948143005,1.0647791624069214,-1.1036806106567383,0
236,2360218,-0.017772041261196136,-0.007273412309587002,-1.0179656744003296,0.18432402610778809,0.4209650456905365,-0.5473309755325317,29.629011154174805,-10.15415096282959,38.60456848144531,1.0507302284240723,1.0258928537368774,0.030401870608329773,-0.6119289994239807,0.6900987029075623,-0.06542065739631653,-2.5479841232299805,-0.6783557534217834,0.439657062292099,0.23641052842140198,0.057592831552028656,-0.6302915811538696,0.3622603118419647,1.249326229095459,-1.09236478805542,0
237,2369970,-0.010430265218019485,0.02049381658434868,-0.984390139579773,-0.4622204005718231,-0.43722596764564514,-1.0405550003051758,28.836713790893555,-9.087003707885742,39.77083969116211,1.2478727102279663,-1.3506423234939575,-0.07076632976531982,-1.7390565872192383,-0.09333229064941406,0.057964857667684555,0.30022984743118286,0.8179768323898315,1.868586778640747,0.03348026052117348,-0.35228437185287476,1.03457510471344,-0.2294105440378189,0.6230217814445496,-0.4830304682254791,0
238,2380044,0.03749346733093262,-0.06963656097650528,-1.021360993385315,-0.11587610095739365,0.576368510723114,-0.8064196705818176,29.020381927490234,-9.385726928710938,37.60005187988281,-0.08644315600395203,-0.7106406688690186,-0.20029768347740173,0.45565006136894226,0.07240039110183716,-0.2091546207666397,-0.9150553345680237,1.2491353750228882,0.5768306851387024,0.0406615175306797,0.45466235280036926,0.27242836356163025,-0.40074610710144043,1.8547778129577637,0.2628982663154602,0
239,2390019,0.07596379518508911,-0.05360206961631775,-1.0136367082595825,-0.22358065843582153,0.410343736410141,-0.14227977395057678,30.256263732910156,-9.793386459350586,39.1072883605957,-0.2595185935497284,-1.8454667329788208,-0.8208736777305603,1.8456743955612183,-0.7392817139625549,1.5197290182113647,-0.4321441054344177,-0.40944769978523254,-1.624898076057434,-0.9860575795173645,0.3172304332256317,0.6818883419036865,0.022547854110598564,-0.17406149208545685,0.9304015636444092,0
240,2399862,-0.013036075048148632,0.008930359967052937,-1.0193592309951782,0.6026721000671387,-0.4083116948604584,-0.005515327677130699,30.365083694458008,-12.610145568847656,39.6802864074707,0.5334805250167847,1.7024998664855957,-1.622717261314392,1.358257532119751,-0.425359845161438,1.3714103698730469,0.09225554764270782,-1.313499093055725,-0.494023859500885,1.4396848678588867,0.20245659351348877,3.059959888458252,-0.3670458197593689,2.7840688228607178,-2.0387632846832275,0
241,2409914,0.012272089719772339,-0.012203725054860115,-1.0492947101593018,-0.9193248152732849,-0.2438257932662964,-0.033191051334142685,29.673221588134766,-9.580158233642578,40.51877975463867,-0.5012078881263733,1.933793544769287,-0.5619112849235535,-0.7544224858283997,-0.17949044704437256,-0.18307320773601532,0.3242155611515045,-0.39347946643829346,0.6337743401527405,1.5948022603988647,-0.7227810621261597,-0.6618167161941528,-0.2276579886674881,-0.722279965877533,0.5935782194137573,0
242,2420291,0.027294129133224487,0.0040281061083078384,-0.9611250162124634,-0.25780588388442993,0.6041549444198608,0.24768877029418945,28.751033782958984,-10.332460403442383,40.262115478515625,0.10602165758609772,0.297569215297699,0.591517984867096,-0.6860707998275757,-0.27530190348625183,-0.03355073928833008,0.03861449286341667,1.436010479927063,2.119626998901367,-0.9693166613578796,1.085984468460083,-1.9080488681793213,0.949572741985321,-1.6475729942321777,-0.7615004777908325,0
243,2429650,0.03262163698673248,-0.02387707680463791,-0.9890671968460083,0.8749526739120483,0.22320127487182617,-0.19794787466526031,28.860857009887695,-11.959202766418457,39.98043441772461,-1.6174345016479492,0.793696403503418,-1.341477870941162,-0.11993966996669769,-0.3917633891105652,-1.1981687545776367,0.4701424241065979,0.3923420310020447,-0.3896028995513916,-0.7985588312149048,-1.0203367471694946,-1.5196107625961304,-0.2708817422389984,-0.3772093653678894,0.20054277777671814,0
244,2440105,0.020944058895111084,0.005647521931678057,-1.0086419582366943,-0.3171469569206238,-0.49968162178993225,0.3525722324848175,31.516294479370117,-10.507339477539062,39.68183517456055,1.0410720109939575,-0.3413453698158264,1.549926519393921,-1.4730559587478638,-0.17923040688037872,0.8302696943283081,-0.5310384631156921,0.9578437209129333,-1.2425308227539062,0.03143772482872009,-0.2972555160522461,0.563477635383606,-0.2751694917678833,-0.1313350647687912,0.671394407749176,0
245,2449949,-0.03663937747478485,-0.013381578959524632,-1.0150861740112305,0.43143802881240845,-0.5887520909309387,-0.18749172985553741,29.566570281982422,-11.522826194763184,40.26561737060547,0.5602480173110962,0.17110076546669006,1.5216882228851318,-0.21506260335445404,-1.846900463104248,0.9847451448440552,0.28427034616470337,-0.8427473306655884,0.7854567766189575,-0.8343619704246521,-0.1993025541305542,0.30360716581344604,-0.3166614770889282,-0.539905846118927,1.375934362411499,0
246,2459851,0.011597057804465294,0.07605177909135818,-1.0181611776351929,-0.7402966022491455,0.9970924854278564,0.4504486918449402,29.811811447143555,-9.972674369812012,39.4289436340332,0.6255753636360168,0.9662285447120667,0.8399112820625305,0.7933976650238037,-0.1940338909626007,0.10289041697978973,1.8251863718032837,0.08089932799339294,-0.2807622253894806,-0.18896254897117615,-0.25083187222480774,1.2503260374069214,0.3929680585861206,-0.1556573510169983,0.6584020256996155,0
