seq,time_us,ax,ay,az,gx,gy,gz,mx,my,mz,drop_flag
0,0,0.024496836587786674,-0.008568579331040382,-0.9871803522109985,0.11875754594802856,0.5089627504348755,-0.5190351605415344,27.897701263427734,-9.922077178955078,40.28230667114258,0
1,10393,-0.05717361345887184,0.11014295369386673,-0.974496066570282,0.534461498260498,-0.4936245083808899,-0.5490414500236511,28.969690322875977,-10.031062126159668,41.268035888671875,0
2,20059,-0.008846285752952099,-0.03158740699291229,-0.9909417629241943,-0.5531526207923889,0.2818237841129303,0.3867245614528656,30.496959686279297,-9.309920310974121,39.22941970825195,0
3,30036,0.041421469300985336,0.03966301307082176,-1.0269938707351685,-0.3924632668495178,-0.10544663667678833,-0.6114543676376343,31.644989013671875,-10.887666702270508,41.587158203125,0
4,39824,-0.026407793164253235,-0.02621990442276001,-1.0197203159332275,-0.15157586336135864,0.2666022479534149,-1.098201870918274,30.145099639892578,-8.966323852539062,40.4882926940918,0
5,49914,0.016792623326182365,-0.003269065637141466,-1.0299193859100342,-0.1314481496810913,0.07340718060731888,0.06810630112886429,30.24130630493164,-10.587971687316895,39.59407043457031,0
6,59855,-0.06781534105539322,-0.08210091292858124,-0.9819121956825256,0.3326091170310974,0.3673965334892273,0.30339133739471436,30.28540802001953,-11.442636489868164,39.73710632324219,0
7,70290,0.04805086553096771,0.07147479802370071,-1.0107125043869019,0.09934847056865692,-0.27544939517974854,-0.6604775786399841,30.69615936279297,-11.36676025390625,39.10091781616211,0
8,80011,-0.03518848866224289,8.201878517866135e-05,-1.0094194412231445,-0.0960765853524208,-0.4281868040561676,-0.4619810879230499,29.40691375732422,-11.5319185256958,40.031463623046875,0
9,89935,-0.021693030372262,-0.015468746423721313,-1.0374689102172852,-0.1824694275856018,-0.42872095108032227,-0.05287381261587143,30.739227294921875,-10.067079544067383,40.395721435546875,0
10,99940,0.039246879518032074,0.0012111194664612412,-1.039223074913025,-0.12210851162672043,-0.4494985342025757,-0.4958879053592682,30.017011642456055,-9.794591903686523,39.11473846435547,0
11,109974,-0.07110129296779633,0.02657797373831272,-1.0102120637893677,0.6587811708450317,0.41162538528442383,0.3885539174079895,30.291675567626953,-9.041851997375488,38.329341888427734,0
12,119778,-0.021338477730751038,-0.03392042964696884,-0.99387127161026,0.22069841623306274,0.010769195854663849,0.3909088671207428,30.378660202026367,-8.34013557434082,38.639678955078125,0
13,130067,0.03177697956562042,0.0021045636385679245,-0.9558972120285034,0.1502750664949417,0.42766398191452026,-0.7329282164573669,29.136606216430664,-10.627023696899414,39.779048919677734,0
14,140076,0.024502214044332504,-0.0070577748119831085,-1.015395164489746,-0.9426189661026001,-0.10367923229932785,0.8102643489837646,31.184078216552734,-11.266277313232422,39.16300582885742,0
15,149942,0.009957652539014816,-0.049655456095933914,-0.991052508354187,-0.1397470235824585,-0.5472120642662048,0.10396252572536469,30.02667999267578,-10.373539924621582,39.86753463745117,0
16,159826,-0.028070179745554924,0.07035276293754578,-0.98652184009552,0.11628183722496033,0.011647574603557587,0.35821259021759033,30.01994514465332,-11.113497734069824,39.16127014160156,0
17,169798,0.06436192244291306,-0.03922949731349945,-0.990176796913147,-0.9255237579345703,0.4001125693321228,-0.413812518119812,29.449365615844727,-9.510655403137207,41.25587463378906,0
18,180093,0.022043950855731964,0.038364674896001816,-1.0048552751541138,0.047455865889787674,-0.8833960294723511,-1.166576862335205,28.903587341308594,-9.015552520751953,39.54264831542969,0
19,190166,-0.04960939288139343,-0.053336795419454575,-0.9860855340957642,-0.9177110195159912,-0.3274228870868683,-0.7832562327384949,30.712127685546875,-10.565285682678223,39.46353530883789,0
20,200209,0.029614945873618126,0.04133320227265358,-1.0001391172409058,1.3852860927581787,-0.1677751988172531,-0.27872565388679504,28.63291358947754,-10.254651069641113,40.97990036010742,0
21,210047,0.009972336702048779,-0.054223936051130295,-0.9800183176994324,0.13008971512317657,-0.11973913758993149,0.004664610140025616,31.236417770385742,-9.506065368652344,40.473480224609375,0
22,219892,0.05505331605672836,-0.028372872620821,-0.9998373985290527,-0.058865804225206375,-0.4852754771709442,-0.5726982951164246,29.58132553100586,-10.854218482971191,38.76837921142578,0
23,229853,0.007371142972260714,0.11807850003242493,-1.027401328086853,-0.3210074305534363,0.40845346450805664,-0.6567956805229187,29.85734748840332,-9.558298110961914,40.39836120605469,0
24,239764,0.006389439571648836,0.022743182256817818,-0.9855397939682007,-0.5659376978874207,-0.0748128816485405,-0.05700115114450455,30.847755432128906,-9.76041316986084,39.408714294433594,0
25,250031,0.0674394890666008,-0.014998112805187702,-0.9859917759895325,-0.23545683920383453,0.8633331060409546,-0.7129716873168945,29.543699264526367,-11.697794914245605,40.439693450927734,0
26,259854,0.09347612410783768,0.012795181013643742,-1.0288801193237305,-0.9961895942687988,0.3532355725765228,0.3775848150253296,29.173603057861328,-10.469101905822754,40.58271026611328,0
27,269974,0.01517645362764597,0.05719972774386406,-1.02504563331604,-0.3108397424221039,0.6002991795539856,-0.2252492904663086,29.43898582458496,-12.284076690673828,39.3356819152832,0
28,280020,-0.019910577684640884,0.1309426724910736,-0.9998521208763123,-0.04064374789595604,-0.07085981965065002,0.6854950189590454,31.350170135498047,-9.724578857421875,39.020347595214844,0
29,290292,0.010568206198513508,-0.045215312391519547,-1.0107842683792114,-0.5609377026557922,0.37956175208091736,-0.7694281935691833,29.523542404174805,-10.172829627990723,41.93521499633789,0
30,300131,0.07930055260658264,-0.05174122005701065,-0.9964045882225037,-0.4759730398654938,0.37603333592414856,0.6803420186042786,29.855628967285156,-9.507039070129395,40.98503875732422,0
31,310007,-0.09321457147598267,0.04621632769703865,-1.0005298852920532,-0.12372647225856781,-0.24671557545661926,-0.16373685002326965,30.015979766845703,-10.756861686706543,40.991024017333984,0
32,320172,0.009394706226885319,-0.016049690544605255,-1.0226305723190308,-0.08660653233528137,0.7227398157119751,-0.32904934883117676,31.817380905151367,-11.10801887512207,40.23310089111328,0
33,329836,-0.05086667835712433,0.07369465380907059,-1.0049580335617065,-0.02123771235346794,0.47445523738861084,0.09631550312042236,28.625524520874023,-8.612781524658203,41.2730598449707,0
34,340054,-0.08858785033226013,0.057216331362724304,-1.0055605173110962,0.5671375393867493,0.34590741991996765,-0.2932596206665039,30.5886173248291,-10.892402648925781,40.630252838134766,0
35,350060,-0.037395838648080826,0.06983166933059692,-0.9962260127067566,-0.5894324779510498,0.5088370442390442,0.5049129128456116,30.15614891052246,-10.555984497070312,41.05747604370117,0
36,359820,0.03193823620676994,-0.03692149743437767,-0.995319664478302,-0.38869887590408325,-0.733323872089386,0.10832402855157852,30.229530334472656,-9.143357276916504,40.07096862792969,0
37,369889,4.662440187530592e-05,-0.05664728209376335,-1.0014357566833496,0.2685573995113373,-0.07769724726676941,0.4951029419898987,29.062007904052734,-11.36636734008789,38.552982330322266,0
38,380143,0.016109667718410492,0.006539616268128157,-0.9894996285438538,0.6519392132759094,-0.28956136107444763,-0.5585172176361084,29.834383010864258,-11.09880542755127,39.512332916259766,0
39,389863,-0.073862224817276,0.004807344172149897,-0.9968569278717041,0.49821001291275024,1.0671710968017578,0.32438814640045166,30.63192367553711,-9.83845329284668,39.508567810058594,0
40,399773,0.056607265025377274,-0.002962045604363084,-1.041770577430725,0.08328519016504288,-0.2440195381641388,-0.32363083958625793,29.899555206298828,-9.79069995880127,39.63534927368164,0
41,410023,0.05841599404811859,-0.10390417277812958,-1.008527159690857,-0.3421593904495239,-0.2419954389333725,-0.824330747127533,29.84819984436035,-9.640231132507324,39.719966888427734,0
42,420028,-0.1095200702548027,0.03268004581332207,-1.0354454517364502,0.7582018375396729,-0.5590004324913025,0.5932982563972473,30.18007469177246,-10.080827713012695,41.02254104614258,0
43,430091,-0.006495135836303234,0.01740947738289833,-1.0097336769104004,0.0507543571293354,0.10005360096693039,-0.8285306692123413,31.281949996948242,-9.294466018676758,38.23133087158203,0
44,439754,-0.028135888278484344,-0.022281698882579803,-1.0075721740722656,0.10781572014093399,-0.014637581072747707,0.024443218484520912,30.099746704101562,-8.966935157775879,39.85442352294922,0
45,450249,0.004964988678693771,-0.018119540065526962,-1.0128462314605713,0.33019059896469116,0.2335960865020752,-0.6369190216064453,29.742830276489258,-10.167045593261719,40.46785354614258,0
46,460156,-0.036805011332035065,0.03197116032242775,-1.0087077617645264,-0.7825816869735718,-0.5285372734069824,-0.379075288772583,29.699487686157227,-9.373723983764648,42.65636444091797,0
47,469992,0.06925809383392334,-0.024170825257897377,-1.0117398500442505,-0.4785071313381195,-0.5013351440429688,-0.012441565282642841,28.550811767578125,-10.409404754638672,40.335079193115234,0
48,480437,0.003328820690512657,-0.040399786084890366,-0.9861159324645996,-0.26986464858055115,0.2067304253578186,1.0498815774917603,30.22002601623535,-7.651447772979736,40.05986404418945,0
49,490137,-0.032732948660850525,-0.03645551577210426,-0.9876726865768433,0.6026931405067444,-0.5145164728164673,-0.1092013493180275,29.57744026184082,-8.96403980255127,39.55338668823242,0
50,500001,-0.021888012066483498,0.007607809733599424,-1.0035918951034546,-0.40950292348861694,-0.10224957019090652,-0.165972039103508,30.271657943725586,-10.37403392791748,39.714595794677734,0
51,509880,0.025641433894634247,0.05813309922814369,-1.0038714408874512,-0.19958041608333588,-0.13041450083255768,0.2704123854637146,31.37999725341797,-11.24796199798584,41.16414260864258,0
52,519994,0.026415089145302773,0.013174465857446194,-1.0163507461547852,0.2831132113933563,-0.12365404516458511,-0.2682689428329468,29.507429122924805,-11.178247451782227,40.98297882080078,0
53,529964,-0.04808195307850838,-0.04143214598298073,-0.9778755307197571,1.1182162761688232,-0.09748611599206924,0.2147832065820694,30.592809677124023,-9.146360397338867,39.86146926879883,0
54,540126,-0.007180109620094299,0.03880300372838974,-1.0230497121810913,-0.7251917719841003,-0.16343216598033905,-0.6493914127349854,31.44822120666504,-11.691713333129883,39.23970031738281,0
55,550008,-0.06294362992048264,-0.007114407606422901,-1.0222257375717163,0.5243890285491943,0.09915359318256378,-0.23076988756656647,30.011911392211914,-11.603143692016602,39.705650329589844,0
56,560147,-0.008554036729037762,-0.05519549176096916,-0.9624384641647339,-0.25422412157058716,-0.5759432315826416,-0.28914183378219604,28.395742416381836,-9.039894104003906,40.89552688598633,0
57,569927,0.035307399928569794,-0.005780923180282116,-1.0238916873931885,-0.5153148174285889,-0.7814202308654785,-0.15196797251701355,28.771102905273438,-9.722661018371582,38.64613723754883,0
58,579779,-0.05142590403556824,0.12867328524589539,-1.0354231595993042,0.5660172700881958,-0.11980856209993362,0.0990169495344162,31.48358154296875,-10.538018226623535,38.788368225097656,0
59,590156,-0.0034867196809500456,0.04017465561628342,-1.006698489189148,1.2410039901733398,-0.47454598546028137,-0.1661614626646042,30.523950576782227,-9.783408164978027,37.98252868652344,0
60,600019,-0.02982521988451481,-0.022779379040002823,-1.0151807069778442,0.2956851124763489,-0.16808708012104034,0.9298721551895142,27.988523483276367,-9.9512300491333,39.808650970458984,0
61,609841,-0.05083278939127922,0.06743693351745605,-0.9572726488113403,0.4583563506603241,0.1438816338777542,-0.13271735608577728,26.946561813354492,-11.934517860412598,41.81879425048828,0
62,619851,0.04369819164276123,-0.09684458374977112,-1.0175466537475586,-0.20546644926071167,-0.24561087787151337,-0.22021934390068054,30.632625579833984,-9.94359016418457,39.38608932495117,0
63,629968,0.011336964555084705,0.07046706229448318,-0.9799244403839111,0.1649823933839798,-0.18081194162368774,0.598418653011322,30.6632022857666,-8.791020393371582,40.24442672729492,0
64,640303,0.012132049538195133,-0.014186485670506954,-0.9917588829994202,-0.16277313232421875,0.2656778395175934,0.27384036779403687,30.13258934020996,-9.19735050201416,40.072872161865234,0
65,649808,0.009799659252166748,-0.013384608551859856,-0.9796355962753296,-0.2761228382587433,0.4157983660697937,-0.07415572553873062,31.86444664001465,-8.888872146606445,40.024688720703125,0
66,659849,0.0249800905585289,-0.0048842704854905605,-0.9960547089576721,0.2572169303894043,0.1392735093832016,-0.1567273736000061,30.184368133544922,-9.856685638427734,39.938419342041016,0
67,670131,0.03868592903017998,0.009677880443632603,-0.9813504815101624,0.6587677001953125,0.01073581911623478,-0.2905140519142151,31.384239196777344,-9.669387817382812,39.9512939453125,0
68,679908,-0.04186485335230827,-0.045399025082588196,-0.9991899728775024,0.7451547384262085,1.0434386730194092,-0.6182548999786377,29.77690887451172,-8.749534606933594,39.83259963989258,0
69,690069,0.04417886584997177,-0.02132817544043064,-1.0073974132537842,0.12506505846977234,-0.915036678314209,0.22076207399368286,29.109031677246094,-9.645428657531738,39.579246520996094,0
70,700049,-0.016412723809480667,-0.003429098753258586,-0.9770208597183228,-0.06143924593925476,-0.1420505791902542,0.46529620885849,30.47620391845703,-10.709855079650879,41.149959564208984,0
71,710043,-0.011392349377274513,-0.06809508055448532,-1.003555178642273,-0.08486846089363098,-0.06594008952379227,0.027090035378932953,30.489654541015625,-9.788365364074707,41.215946197509766,0
72,720204,-0.016965368762612343,-0.03544474393129349,-0.9902687072753906,0.07335738837718964,-0.0418141670525074,0.42246273159980774,31.4604434967041,-10.087186813354492,40.90497589111328,0
73,729997,-0.03593463450670242,0.0639750137925148,-1.0026377439498901,-0.17959797382354736,1.3129171133041382,-0.9093822836875916,29.81775665283203,-8.829588890075684,39.35411834716797,0
74,740054,0.010573470033705235,0.004562743939459324,-0.9929184317588806,0.20661355555057526,-0.6552983522415161,0.21239887177944183,31.063331604003906,-8.989665031433105,40.0950927734375,0
75,749986,-0.04069693386554718,0.016075117513537407,-1.0172456502914429,0.22504167258739471,0.5217682123184204,-0.21488195657730103,29.77806854248047,-10.160228729248047,40.83812713623047,0
76,760071,0.07566727697849274,0.028290031477808952,-0.9807317852973938,0.31997403502464294,-0.62039715051651,0.13733427226543427,29.616924285888672,-9.494491577148438,39.614990234375,0
77,770285,0.052096765488386154,0.02080826461315155,-0.9669539928436279,0.4177951216697693,0.0421757847070694,0.39026105403900146,28.857908248901367,-11.20048713684082,39.633453369140625,0
78,779716,0.02611304074525833,-0.01903126947581768,-0.9889805912971497,-1.2988691329956055,-0.36897140741348267,1.0484859943389893,29.329593658447266,-9.881355285644531,41.11370086669922,0
79,790314,0.01931140571832657,-0.07918402552604675,-0.9804943799972534,-0.5093297362327576,-0.7226601243019104,0.19179198145866394,29.274559020996094,-9.302037239074707,39.22102737426758,0
80,799702,0.029300034046173096,-0.021049117669463158,-1.0064910650253296,0.7670352458953857,0.8160111904144287,-0.04111736640334129,30.666725158691406,-8.912200927734375,40.044403076171875,0
81,809936,-0.039953384548425674,-0.047747738659381866,-1.0482819080352783,-0.1262250393629074,-0.8584129214286804,-0.5522248148918152,28.739919662475586,-11.238248825073242,39.72536849975586,0
82,820019,0.0007821375038474798,-0.031101690605282784,-0.986697256565094,0.23707988858222961,0.8131202459335327,0.42451316118240356,28.41353416442871,-10.139304161071777,40.833621978759766,0
83,830005,-0.010789025574922562,-0.010690244846045971,-1.004534125328064,-0.034894827753305435,0.6653544306755066,0.22117285430431366,29.439132690429688,-11.596076965332031,40.530670166015625,0
84,839927,-0.016311688348650932,-0.05529845505952835,-0.9816651940345764,0.14248739182949066,-0.2774818539619446,-0.6612608432769775,28.0853271484375,-7.668059825897217,40.14108657836914,0
85,849965,0.10584091395139694,-0.005092245526611805,-1.0175467729568481,-0.4864555895328522,0.5881454944610596,-0.1904272884130478,30.4481258392334,-10.559274673461914,38.5924072265625,0
86,859730,-0.03646804764866829,-0.06829804182052612,-0.9742013216018677,0.8104685544967651,0.09192285686731339,0.37498801946640015,30.07244300842285,-9.393011093139648,38.25844955444336,0
87,869783,0.027384132146835327,-0.06325598061084747,-0.9675474762916565,-0.4943106472492218,0.0010506229009479284,0.5751036405563354,30.651384353637695,-10.393768310546875,38.600364685058594,0
88,879776,-0.025938015431165695,-0.07807330042123795,-0.9802767038345337,0.24344384670257568,0.6894453763961792,0.1382412314414978,31.48291778564453,-8.925873756408691,38.11165237426758,0
89,890146,0.037593185901641846,0.04940253496170044,-0.9848767518997192,0.5864583849906921,-0.3144226372241974,0.1330251395702362,29.61820411682129,-7.853839874267578,39.51065444946289,0
90,900093,0.011077300645411015,-0.003094777464866638,-0.9907960295677185,-0.07053762674331665,-0.7483779191970825,0.048300277441740036,30.199077606201172,-10.707448959350586,39.971378326416016,0
91,910278,0.020328601822257042,-0.02206505462527275,-1.0334993600845337,1.017969012260437,0.403209924697876,0.42197534441947937,30.30022430419922,-9.79194450378418,40.238338470458984,0
92,919952,0.01096214447170496,0.04773985967040062,-1.0338399410247803,-0.03765988349914551,0.3996075391769409,-0.3275187611579895,29.892210006713867,-9.461516380310059,40.23385238647461,0
93,930220,-0.00016909593250602484,-0.020018281415104866,-1.0129283666610718,-0.1709507405757904,-0.6814048886299133,-0.45102807879447937,29.176973342895508,-8.433274269104004,40.68272018432617,0
94,939887,0.00673788134008646,0.05394851788878441,-0.9740473031997681,0.9778384566307068,-0.17326895892620087,-0.25768765807151794,27.865550994873047,-10.758902549743652,40.445777893066406,0
95,950144,0.07360361516475677,-0.09705675393342972,-1.0155048370361328,0.3298057019710541,-0.09190383553504944,-0.034657180309295654,28.36094856262207,-9.843873023986816,40.02076721191406,0
96,960077,-0.008813949301838875,-0.018348846584558487,-0.9896235466003418,-0.45392173528671265,-0.004358736798167229,-0.05011747032403946,30.08494758605957,-11.73505973815918,39.87852096557617,0
97,970100,-0.0034082725178450346,-0.033714402467012405,-1.0017973184585571,-0.1493242084980011,-0.07297897338867188,0.09481128305196762,30.590639114379883,-9.825526237487793,40.34569549560547,0
98,979958,-0.016957765445113182,0.021491825580596924,-0.9980406165122986,-0.2723432779312134,-0.2199227660894394,0.18610887229442596,30.887914657592773,-10.084887504577637,38.97641372680664,0
99,990318,0.014284754171967506,0.07091843336820602,-1.0072038173675537,0.30913245677948,0.1666708141565323,-0.49358686804771423,28.172916412353516,-9.27017593383789,40.285430908203125,0
100,999783,0.028910478577017784,-0.04965408146381378,-0.9881585240364075,-0.7107022404670715,-0.5326864123344421,-1.410508394241333,29.599000930786133,-10.974101066589355,40.39891052246094,0
101,1010128,-0.010153759270906448,0.03690379485487938,-1.041725516319275,0.33691444993019104,-0.38214874267578125,0.3928411602973938,29.27042579650879,-10.073871612548828,40.37282180786133,0
102,1019916,-0.04059050604701042,-0.031206676736474037,-1.0298552513122559,0.41363292932510376,-0.7057050466537476,0.588697612285614,30.13248634338379,-9.05001163482666,40.59714126586914,0
103,1029768,-0.12325187772512436,-0.010115435346961021,-1.005589485168457,-0.17414021492004395,-0.4752921462059021,-0.2921043038368225,32.25103759765625,-10.189406394958496,43.279258728027344,0
104,1040052,0.011296386830508709,0.031176796182990074,-0.999738335609436,-0.05838485434651375,-0.2118602693080902,-0.0967436134815216,31.47998046875,-10.358869552612305,39.605220794677734,0
105,1050178,0.02294839359819889,0.055206429213285446,-1.003595232963562,-0.43033573031425476,0.06147382780909538,-0.04852752014994621,31.0813045501709,-9.806880950927734,39.73206329345703,0
106,1060141,0.08912352472543716,-0.014709706418216228,-0.984296977519989,-0.23641453683376312,-0.14923995733261108,0.7135633230209351,30.72925567626953,-12.08949089050293,38.44889450073242,0
107,1069942,-0.04802464321255684,-0.0379147008061409,-1.006971836090088,0.2813980281352997,0.4393182396888733,-0.13109605014324188,29.786285400390625,-10.570380210876465,39.92908477783203,0
108,1080078,-0.013548602350056171,-0.09565209597349167,-1.004482626914978,0.8331467509269714,0.1855442225933075,-0.6414957046508789,29.923938751220703,-12.744414329528809,40.87360382080078,0
109,1089960,-0.05148220807313919,0.02277308516204357,-1.0005812644958496,-0.16888879239559174,0.32140910625457764,-0.018368307501077652,30.282459259033203,-10.461509704589844,40.80744552612305,0
110,1099861,-0.017040854319930077,-0.06847141683101654,-0.9706766605377197,-1.2697736024856567,-0.765631914138794,0.15826287865638733,28.51478385925293,-10.034817695617676,39.62855529785156,0
111,1109817,-0.038278162479400635,0.03084254078567028,-0.9689193964004517,-1.2334526777267456,0.42978304624557495,-0.587779700756073,30.122358322143555,-8.962326049804688,38.48294448852539,0
112,1119883,0.010105534456670284,-0.013968303799629211,-0.9886079430580139,-0.15299344062805176,0.08279971778392792,-0.30129948258399963,30.63149070739746,-9.69079303741455,40.569053649902344,0
113,1129868,-0.020766830071806908,0.020087869837880135,-1.0048750638961792,0.03189331293106079,-0.23001721501350403,0.1886337846517563,30.066207885742188,-8.75717830657959,40.16059875488281,0
114,1139892,0.03724640607833862,0.0474296510219574,-1.0158278942108154,-0.8077189922332764,-0.2526305913925171,-0.6728940010070801,29.41684341430664,-8.310087203979492,41.193363189697266,0
115,1149821,0.03343329578638077,0.02371613308787346,-1.0068248510360718,0.009325366467237473,-0.8683164119720459,0.22836077213287354,29.150299072265625,-12.015253067016602,40.46916580200195,0
116,1160141,0.02135554328560829,-0.05813874676823616,-1.0228925943374634,-0.007288683205842972,0.318869948387146,0.1918843537569046,28.929128646850586,-8.760180473327637,39.991764068603516,0
117,1169882,-0.08661577105522156,-0.003601867938414216,-0.9705858826637268,-1.0278774499893188,-0.4550844728946686,-0.12922996282577515,29.668474197387695,-10.04981517791748,41.373252868652344,0
118,1179913,-0.05824257433414459,-0.014296687208116055,-1.0049537420272827,0.5180253386497498,0.23504112660884857,0.07970216870307922,30.013139724731445,-11.720352172851562,39.05923080444336,0
119,1190183,-0.0035375268198549747,0.070805124938488,-0.9997751116752625,-0.05665670707821846,-0.07568316906690598,0.4695666432380676,29.96368980407715,-11.816309928894043,40.42153549194336,0
120,1199978,0.0740402340888977,0.08189474046230316,-0.9815014004707336,-0.34107646346092224,-0.44249340891838074,-0.25311368703842163,28.326908111572266,-10.618012428283691,39.15919876098633,0
121,1209764,-0.03936544805765152,0.015615846030414104,-1.021614909172058,-0.2181245982646942,-0.6950235962867737,0.37393033504486084,30.096778869628906,-10.143209457397461,39.512027740478516,0
122,1220162,0.06737973541021347,0.09193537384271622,-0.9918385744094849,-0.2611228823661804,0.20329302549362183,-0.1093345582485199,29.522790908813477,-10.186391830444336,39.3455810546875,0
123,1230006,-0.09998087584972382,0.04552697762846947,-0.9809975028038025,-0.022400813177227974,0.06962697207927704,0.4186307489871979,29.718050003051758,-10.518752098083496,39.01420211791992,0
124,1240114,0.07157600671052933,0.019960131496191025,-1.0019252300262451,0.16923388838768005,0.02930246852338314,0.9357309341430664,28.67754364013672,-8.804020881652832,39.86697769165039,0
125,1250139,-0.050889451056718826,0.0334201380610466,-1.0118476152420044,0.7026987671852112,-0.5631470680236816,0.23087921738624573,30.49346923828125,-11.71041488647461,40.85524368286133,0
126,1259991,-0.011978776194155216,0.09828832000494003,-0.9961052536964417,1.0297495126724243,-0.20860882103443146,0.11899736523628235,29.53243637084961,-9.260916709899902,39.01813888549805,0
127,1269834,-0.017388982698321342,-0.053854454308748245,-0.9690815210342407,0.0878014788031578,-0.24627043306827545,-0.2944905757904053,30.62042236328125,-8.14656925201416,41.02119445800781,0
128,1280224,0.03528093919157982,-0.06416309624910355,-0.9817277193069458,-0.3619394600391388,0.6120836138725281,-0.46865954995155334,29.638975143432617,-9.677546501159668,39.1566276550293,0
129,1290285,-0.016336029395461082,-0.008435956202447414,-1.0272883176803589,-0.542858362197876,-1.1394578218460083,0.07760985195636749,31.012117385864258,-8.925102233886719,40.671592712402344,0
130,1300275,-0.013740700669586658,0.10535473376512527,-0.9993470311164856,0.15285049378871918,0.39265337586402893,-0.34058165550231934,31.618000030517578,-10.25823974609375,40.10232925415039,0
131,1310110,-0.05425168573856354,0.01451836246997118,-1.0072752237319946,-0.266875684261322,-0.4269736409187317,-0.45358961820602417,30.51380729675293,-9.932706832885742,40.414268493652344,0
132,1319995,-0.03309472277760506,0.04845777899026871,-0.9821667075157166,0.557340145111084,-0.02487926371395588,0.5870173573493958,30.386371612548828,-10.338722229003906,40.019927978515625,0
133,1329841,0.008591542020440102,-0.020954813808202744,-0.9654827117919922,-0.3999631702899933,0.6825990080833435,-0.04905837029218674,29.517732620239258,-7.7929911613464355,39.73990249633789,0
134,1339975,-0.032629601657390594,0.09949430078268051,-0.9785366058349609,0.3106972575187683,0.6424943208694458,-0.11718994379043579,29.680490493774414,-10.285886764526367,40.8387565612793,0
135,1349800,0.026539821177721024,0.025942418724298477,-1.0249072313308716,0.00682229595258832,0.03710313141345978,0.7540186047554016,31.938228607177734,-10.110749244689941,39.42732238769531,0
136,1359970,-0.07541350275278091,0.017966551706194878,-1.0152125358581543,-0.21743883192539215,0.051925335079431534,-0.5292390584945679,29.94511604309082,-11.09914493560791,40.98543930053711,0
137,1369970,0.07270494848489761,-0.03903187811374664,-1.0214178562164307,0.6735263466835022,-0.4084621071815491,-0.11673304438591003,29.746932983398438,-8.632183074951172,39.13059616088867,0
138,1379861,-0.02294934168457985,-0.07473930716514587,-1.0044859647750854,0.6620236039161682,0.4017590284347534,-0.5609362125396729,28.707584381103516,-8.819623947143555,40.65953826904297,0
139,1390177,0.008023975417017937,-0.01943383552134037,-1.003950834274292,0.3821111023426056,0.13859142363071442,0.4820353090763092,29.780136108398438,-10.60865592956543,39.95447540283203,0
140,1399975,-0.015623756684362888,0.045781996101140976,-0.9781496524810791,0.1233815848827362,0.7602203488349915,0.020466085523366928,29.859878540039062,-10.72068977355957,38.96441650390625,0
141,1410006,-0.017605241388082504,-0.1107720211148262,-0.9626807570457458,-0.2653603255748749,0.046575143933296204,0.46755707263946533,31.198205947875977,-9.441597938537598,37.64767074584961,0
142,1419937,-0.038185302168130875,-0.0023528337478637695,-1.0072778463363647,0.36354950070381165,-0.8800132274627686,-0.009539129212498665,29.227176666259766,-11.785721778869629,40.16907501220703,0
143,1429796,0.049809832125902176,0.064175084233284,-1.0198571681976318,-0.5766444206237793,-0.6334821581840515,1.1983927488327026,29.74434471130371,-7.690065383911133,39.74787521362305,0
144,1439732,0.07386737316846848,-0.009177016094326973,-1.0096405744552612,-0.6051560640335083,0.37310558557510376,0.027968214824795723,30.16535758972168,-10.160409927368164,40.72835922241211,0
145,1450194,0.040306802839040756,0.027276726439595222,-1.0208735466003418,-0.5658036470413208,-0.3892543315887451,0.22700293362140656,29.204910278320312,-11.412463188171387,40.21885681152344,0
146,1459851,-0.03665020316839218,0.08130743354558945,-0.996902346611023,-0.047777820378541946,-0.28044870495796204,0.6432595252990723,30.032506942749023,-10.488158226013184,40.263587951660156,0
147,1469987,-0.06019022688269615,0.07174801081418991,-1.011676549911499,-0.28995558619499207,0.7860887050628662,0.4831051230430603,27.621183395385742,-10.406783103942871,40.58592987060547,0
148,1479999,-0.0031123915687203407,-0.006106522399932146,-1.0491621494293213,-0.2363956868648529,-0.5864433646202087,-0.3224705457687378,29.080556869506836,-8.993546485900879,39.1014518737793,0
149,1489807,-0.034994665533304214,0.03874875605106354,-0.9952325820922852,0.2893628478050232,-0.36965468525886536,0.5245860815048218,29.257291793823242,-9.854812622070312,39.109745025634766,0
150,1499972,-0.04355909675359726,-0.017079610377550125,-1.0256338119506836,0.4759681820869446,0.40368303656578064,0.2914309501647949,31.67598533630371,-11.27745532989502,40.854854583740234,0
151,1510156,-0.024618204683065414,0.038111310452222824,-0.9982302784919739,-0.07788021862506866,1.0521026849746704,-0.005737525410950184,32.1748161315918,-10.763007164001465,38.83025360107422,0
152,1520008,0.02677302435040474,0.10473129898309708,-1.002771019935608,0.06789030879735947,-0.670316755771637,0.21660619974136353,29.990388870239258,-10.184951782226562,39.46240234375,0
153,1530093,-0.024324925616383553,-0.03392341732978821,-0.977890133857727,-0.23749496042728424,-0.19023926556110382,-0.06698343902826309,29.675748825073242,-8.60006332397461,40.49147415161133,0
154,1540045,0.04292190447449684,-0.03319278731942177,-0.9927067160606384,0.10282181203365326,-0.1387207806110382,-0.22178234159946442,28.87530517578125,-10.616827011108398,37.01601791381836,0
155,1550027,0.05189398676156998,-0.031129131093621254,-1.0132203102111816,-1.0308067798614502,-0.027546174824237823,-0.40376225113868713,30.266185760498047,-9.609058380126953,41.942848205566406,0
156,1559803,0.044735901057720184,-0.030568502843379974,-0.9937425851821899,-0.37559643387794495,0.21586033701896667,0.16883395612239838,30.333087921142578,-9.400762557983398,40.36274337768555,0
157,1569979,0.030668310821056366,0.07483692467212677,-0.9989405870437622,-0.11956030875444412,0.12087804079055786,0.49233049154281616,30.990177154541016,-9.931648254394531,38.83077621459961,0
158,1580303,0.013413278385996819,0.04435030743479729,-1.001185417175293,0.6368069052696228,-0.08091859519481659,0.09631353616714478,30.76177406311035,-10.722062110900879,39.15142059326172,0
159,1590161,0.15260645747184753,-0.03790333867073059,-1.0187580585479736,-0.4648960530757904,0.9793845415115356,1.1774195432662964,27.265077590942383,-10.378040313720703,38.69620895385742,0
160,1599849,-0.010152197442948818,0.050721846520900726,-1.0069299936294556,-0.04579980671405792,0.239992156624794,0.812810480594635,30.2143611907959,-9.503949165344238,38.9681510925293,0
161,1609704,-0.04353265091776848,-0.04820861294865608,-1.0183321237564087,-0.18468546867370605,-0.38020646572113037,0.10119820386171341,29.636167526245117,-9.585959434509277,39.09756851196289,0
162,1619664,0.04366055876016617,0.020938538014888763,-0.9843249320983887,0.42030730843544006,-0.46476203203201294,0.28485628962516785,29.426542282104492,-9.970846176147461,38.59912109375,0
163,1629892,0.04005385935306549,-0.008478909730911255,-0.9815440773963928,0.5777406692504883,0.0421423465013504,0.17639605700969696,28.609630584716797,-8.810908317565918,41.767398834228516,0
164,1639904,0.1390676200389862,-0.012706629931926727,-0.9781197309494019,0.5670897364616394,-0.1443309187889099,0.7423526048660278,29.66288948059082,-11.162598609924316,40.55445098876953,0
165,1649839,-0.052433185279369354,-0.03081870824098587,-1.012241244316101,-0.13443316519260406,1.2740038633346558,-0.3533511757850647,30.508041381835938,-10.479836463928223,41.07905197143555,0
166,1660233,-0.13831520080566406,-0.03750564530491829,-0.9918940663337708,-0.7293581962585449,-0.7250260710716248,0.7898721098899841,29.678010940551758,-10.636640548706055,39.385520935058594,0
167,1669966,0.060007378458976746,-0.014339633285999298,-0.9875842332839966,0.43293869495391846,-0.5609188675880432,-0.21312233805656433,28.694673538208008,-9.141536712646484,40.559024810791016,0
168,1680119,0.017225412651896477,-0.009954061359167099,-0.9816959500312805,0.20143473148345947,0.371268630027771,0.16391588747501373,30.85605812072754,-11.691542625427246,39.25138854980469,0
169,1689999,-0.01643364690244198,0.022551991045475006,-1.0064494609832764,-0.041958678513765335,0.05688059702515602,-0.8564419746398926,30.755277633666992,-10.552139282226562,38.74732971191406,0
170,1700089,0.08319640159606934,0.03962472453713417,-0.9915903210639954,0.3119170069694519,0.04480684921145439,0.08861304819583893,29.17576026916504,-11.015966415405273,40.28305435180664,0
171,1709775,0.017488600686192513,-0.03645896166563034,-0.989117443561554,-0.3417328894138336,0.34638869762420654,-0.08476540446281433,28.7547607421875,-9.973394393920898,39.3840446472168,0
172,1719898,-0.05046737939119339,-0.006155027542263269,-0.9920113682746887,0.05113263800740242,0.1382194459438324,-0.0400916151702404,30.07004737854004,-10.610725402832031,40.20585250854492,0
173,1729889,-0.09848977625370026,0.0017402267549186945,-1.010351300239563,0.2182871401309967,0.6733437180519104,0.9385412931442261,30.666461944580078,-10.523298263549805,41.1157112121582,0
174,1739792,0.08407104015350342,-0.06068072095513344,-1.0348560810089111,1.047730803489685,-1.1773220300674438,-0.027054082602262497,27.350221633911133,-10.213311195373535,42.21656799316406,0
175,1749996,-0.03905970975756645,-0.009970102459192276,-0.9684306979179382,-0.11235051602125168,-0.03558306023478508,0.12165994942188263,32.043846130371094,-8.127602577209473,39.57339859008789,0
176,1760079,-0.005793652031570673,-0.0033025972079485655,-0.9428271651268005,-0.745371401309967,-0.2604459524154663,-0.6613154411315918,30.59760093688965,-9.24365234375,40.02939987182617,0
177,1769862,0.035195011645555496,0.055716633796691895,-1.0203723907470703,-0.11316763609647751,-0.37684890627861023,0.18984176218509674,31.360797882080078,-8.879865646362305,40.374916076660156,0
178,1780049,-0.002576539060100913,0.010305874980986118,-1.0046138763427734,-0.3061154782772064,-0.46023064851760864,0.2796822190284729,29.816909790039062,-10.07624626159668,40.91777420043945,0
179,1790107,0.02900751866400242,0.05400780960917473,-0.9933701157569885,0.4073978364467621,0.6383412480354309,0.1350034475326538,31.015974044799805,-8.342123031616211,40.05556869506836,0
180,1799815,-0.015386151149868965,0.03896835073828697,-1.0029913187026978,-0.17520678043365479,0.14527127146720886,0.24218624830245972,30.6549072265625,-8.889299392700195,39.58542251586914,0
181,1810007,0.015601850114762783,0.01888270303606987,-0.977561354637146,-0.3348393440246582,0.004856002517044544,0.24246184527873993,31.38060188293457,-10.348352432250977,40.32410430908203,0
182,1820010,-0.1044883280992508,-0.038368288427591324,-0.9583328366279602,-0.5923836827278137,0.5861914753913879,-0.12869665026664734,29.410972595214844,-7.596378326416016,40.47632598876953,0
183,1829922,-0.04957357421517372,0.0448513999581337,-0.9856795072555542,-0.36155545711517334,-0.7466331720352173,0.6905488967895508,29.322248458862305,-11.811902046203613,40.47259521484375,0
184,1839995,-0.05183546990156174,0.03165217861533165,-0.9936830997467041,0.2940477728843689,0.4075292944908142,-0.536362886428833,30.36542510986328,-10.546122550964355,37.44594955444336,0
185,1849748,-0.020018789917230606,0.02941274642944336,-1.0031678676605225,0.5975084900856018,-0.4497841000556946,0.670060932636261,30.214502334594727,-11.403643608093262,39.08955001831055,0
186,1859884,-0.09819748997688293,-0.007099838461726904,-0.9797586798667908,-0.5832316279411316,-0.023795275017619133,0.08563094586133957,29.75286293029785,-9.784430503845215,40.8349609375,0
187,1870086,0.031572796404361725,0.03859599679708481,-0.9960298538208008,-0.19976095855236053,0.2462252676486969,-0.3233666718006134,30.57634735107422,-10.438653945922852,41.228824615478516,0
188,1880026,-0.014521765522658825,0.10152085870504379,-0.9770840406417847,0.11682508140802383,-0.0019771030638366938,0.18061035871505737,30.333316802978516,-9.662687301635742,39.19718551635742,0
189,1890160,0.022686948999762535,-0.05623052641749382,-1.0172044038772583,-0.21037107706069946,0.6102184653282166,0.09695196896791458,30.09100341796875,-9.284464836120605,39.87075424194336,0
190,1900028,0.03543262183666229,-0.08849076926708221,-1.0007621049880981,0.5493258833885193,-0.04606814682483673,0.2809011936187744,29.636390686035156,-11.88627815246582,39.89506149291992,0
191,1909765,-0.039079420268535614,-0.12031619995832443,-1.0119929313659668,0.9986886978149414,0.16967301070690155,0.268449991941452,30.136571884155273,-10.627299308776855,40.382816314697266,0
192,1920174,0.020795196294784546,0.108855701982975,-1.0238125324249268,0.26926910877227783,0.2752087414264679,-0.15938016772270203,28.42338752746582,-11.436434745788574,40.52001190185547,0
193,1929950,-0.03615095838904381,-0.0333174504339695,-0.9944700002670288,-0.4467581510543823,-0.09251189231872559,-0.1037600114941597,29.031110763549805,-11.070022583007812,39.88065719604492,0
194,1939730,0.016691239550709724,-0.021127158775925636,-1.0005943775177002,-0.993739902973175,-0.10129336267709732,-0.5095138549804688,29.783716201782227,-11.923401832580566,38.540916442871094,0
195,1950083,0.07467241585254669,0.02205168455839157,-0.9693462252616882,-0.7707898616790771,0.6227574348449707,-0.05247156694531441,31.098161697387695,-11.490175247192383,39.8634147644043,0
196,1959989,-0.017444903030991554,-0.07583890110254288,-0.9892491698265076,0.42124098539352417,-0.06541119515895844,0.006274465471506119,29.31560516357422,-11.60132122039795,39.89844512939453,0
197,1970086,-0.07609505951404572,0.007598633877933025,-1.0008281469345093,-0.9744491577148438,-0.4816730320453644,0.20873482525348663,30.22771644592285,-9.774373054504395,39.4828987121582,0
198,1979885,0.05122276768088341,0.019892040640115738,-1.033356785774231,-0.03805151209235191,-0.23599492013454437,-0.6981923580169678,32.46455383300781,-8.498109817504883,42.373165130615234,0
199,1990001,-0.009885304607450962,-0.024009838700294495,-0.9847289323806763,0.5615778565406799,-0.5342507362365723,-0.43297186493873596,29.199413299560547,-9.375807762145996,42.332984924316406,0
200,1999924,0.11551132798194885,0.004549062345176935,-1.018640398979187,0.26477962732315063,-0.6665316820144653,-1.0308958292007446,29.97352409362793,-9.695813179016113,39.48505783081055,0
201,2010048,-0.022460881620645523,0.04183702543377876,-1.001721739768982,0.11326594650745392,0.5048086643218994,-0.2249424159526825,30.056983947753906,-11.72852897644043,39.25981140136719,0
202,2019714,0.0879753902554512,0.03502791002392769,-0.9961538910865784,0.16614647209644318,-0.715822160243988,0.6829671263694763,29.99696922302246,-10.02417278289795,38.91307830810547,0
203,2030170,-0.03598250076174736,0.01714531145989895,-0.9713901877403259,-0.32687145471572876,-0.09411635249853134,-0.27934983372688293,31.61580467224121,-10.449660301208496,40.05086898803711,0
204,2039992,0.007314933929592371,-0.017454244196414948,-1.0198209285736084,-0.11923167109489441,0.5488360524177551,0.668454110622406,28.960084915161133,-10.970682144165039,40.4227180480957,0
205,2050123,-0.040373895317316055,-0.017802247777581215,-1.0155314207077026,-0.8454875349998474,-0.0667395070195198,-0.10364223271608353,29.346284866333008,-9.324304580688477,39.02805709838867,0
206,2059787,-0.03782936930656433,-0.0534043088555336,-0.9644964933395386,-0.5685746073722839,-0.264868825674057,0.8160465955734253,30.582483291625977,-10.2655611038208,38.10094451904297,0
207,2069879,0.009863936342298985,-0.005549866706132889,-0.999332070350647,0.5343477725982666,-0.6328378915786743,-0.3663451671600342,30.49243927001953,-11.041474342346191,38.07866668701172,0
208,2079948,-0.013248506002128124,0.04333417862653732,-0.9799502491950989,0.8847348093986511,-0.12101933360099792,-0.3964400291442871,30.032270431518555,-9.34217643737793,39.44493103027344,0
209,2089870,0.0393243171274662,0.11930166184902191,-1.0057001113891602,0.5927479863166809,0.6834571361541748,-0.5655954480171204,30.04816436767578,-10.74244213104248,39.16313552856445,0
210,2099810,-0.022376250475645065,0.005060414783656597,-0.9957891702651978,-0.14392830431461334,-0.0935145914554596,0.2639153003692627,28.48891830444336,-10.516220092773438,40.15507888793945,0
211,2109924,-0.08827286213636398,-0.0443950816988945,-1.0220776796340942,-0.7727913856506348,-0.3949874937534332,-0.7967795133590698,29.919858932495117,-9.532246589660645,38.31898880004883,0
212,2120134,-0.041670795530080795,0.019952084869146347,-1.0091935396194458,0.5993757247924805,0.6537875533103943,-0.33616960048675537,30.119007110595703,-10.653122901916504,40.26173400878906,0
213,2130023,0.026598623022437096,0.008639836683869362,-0.9753789305686951,-0.1372269093990326,-0.35335573554039,-0.437555730342865,30.45539665222168,-10.45101261138916,39.32341384887695,0
214,2139791,0.017323952168226242,0.021839233115315437,-1.040239691734314,-0.02572266012430191,-0.9366829991340637,0.009956608526408672,29.615638732910156,-10.4362211227417,39.16469192504883,0
215,2149989,0.1050289124250412,-0.01649637147784233,-0.9992551803588867,-0.19405563175678253,-0.36045265197753906,-0.32304349541664124,31.298416137695312,-10.387633323669434,39.30049133300781,0
216,2159890,-0.015416490845382214,-0.02173742465674877,-0.9795069694519043,0.08543825149536133,-0.21203866600990295,-0.2776070833206177,30.308574676513672,-8.922307014465332,38.24514389038086,0
217,2169858,0.008852314203977585,-0.07780148833990097,-1.0080280303955078,0.3798765540122986,-0.2786411643028259,0.04663705453276634,30.158103942871094,-11.51024341583252,40.10188674926758,0
218,2179987,0.011371256783604622,-0.0035274189431220293,-0.9975833296775818,-0.19279904663562775,0.26746666431427,0.1720091551542282,29.068603515625,-10.065693855285645,40.149051666259766,0
219,2190169,0.06891191750764847,0.026222379878163338,-0.9714410305023193,-0.19770750403404236,0.372204065322876,-0.3645963966846466,28.603151321411133,-11.434781074523926,42.267398834228516,0
220,2200009,0.056499212980270386,0.00913174543529749,-1.0125718116760254,0.022434687241911888,0.6266689300537109,0.4270768463611603,28.414091110229492,-10.584138870239258,39.97712707519531,0
221,2210040,0.07794249802827835,-0.03442508354783058,-0.9960674047470093,-0.3213675022125244,-0.8149814009666443,0.7527249455451965,29.577512741088867,-9.109837532043457,41.24191665649414,0
222,2219673,-0.07949088513851166,0.031519483774900436,-1.0192052125930786,-0.847582221031189,-0.16509602963924408,-0.042540546506643295,31.742042541503906,-10.234184265136719,38.92413330078125,0
223,2229934,0.06265140324831009,0.07851631939411163,-1.0002979040145874,0.07287057489156723,0.17776571214199066,0.8833438754081726,30.49534034729004,-11.435385704040527,38.91825485229492,0
224,2239893,0.011154026724398136,0.07510994374752045,-0.9891232848167419,0.023831844329833984,0.8468084931373596,0.1284940242767334,28.6229248046875,-9.22052001953125,37.706787109375,0
225,2249925,-0.011544151231646538,-0.03132396191358566,-0.9873991012573242,-0.1987687051296234,0.6632477641105652,0.5179195404052734,32.112972259521484,-9.199078559875488,39.73365020751953,0
226,2260417,-0.03645506501197815,0.002679467434063554,-0.9899483919143677,0.890418291091919,-0.24366019666194916,0.019765840843319893,31.0655517578125,-13.101956367492676,40.165096282958984,0
227,2269747,-0.022068850696086884,-0.012684531509876251,-1.0059940814971924,0.6776398420333862,-0.2358538955450058,-0.1491147130727768,29.79694938659668,-9.708073616027832,40.797847747802734,0
228,2280133,-0.04709777981042862,-0.02661697193980217,-0.981357216835022,-0.027939165011048317,0.05429390072822571,0.5471634268760681,28.683183670043945,-9.815531730651855,38.330650329589844,0
229,2290068,-0.03425932675600052,-0.07361659407615662,-1.011773705482483,0.046035170555114746,-0.633853018283844,0.49196186661720276,28.830799102783203,-10.540610313415527,39.75926971435547,0
230,2299770,-0.02884722501039505,0.11315710842609406,-1.0007752180099487,-0.47602134943008423,-0.05806775763630867,-0.4183111786842346,30.784700393676758,-11.417794227600098,40.92879867553711,0
231,2309966,-0.05128810182213783,0.027044516056776047,-0.9868316650390625,-0.04804887995123863,-0.4532589912414551,0.6473093628883362,30.44711685180664,-9.673559188842773,39.56039810180664,0
232,2319893,-0.007433662191033363,-0.05293132737278938,-0.9894881844520569,-0.01762925460934639,-0.29226043820381165,0.21968625485897064,27.905324935913086,-10.407317161560059,38.68346405029297,0
233,2330168,-0.0026450976729393005,0.038764871656894684,-0.9988881349563599,-0.34087035059928894,0.07198171317577362,-0.4083123207092285,31.045820236206055,-10.35130500793457,41.028770446777344,0
234,2340225,-0.06385459750890732,-0.08110588788986206,-1.0104612112045288,0.6467419266700745,-0.0703401044011116,-0.3021659851074219,30.9757022857666,-10.62399673461914,39.533111572265625,0
235,2349570,0.01579500362277031,-0.0256950706243515,-0.9890485405921936,0.233225017786026,0.17284438014030457,0.999596893787384,29.625322341918945,-11.445837020874023,39.46413040161133,0
236,2360008,0.008718105964362621,-0.03625562787055969,-0.9902456402778625,-0.38091281056404114,0.013654031790792942,1.127828598022461,29.51272964477539,-10.891141891479492,40.563812255859375,0
237,2369747,-0.024650847539305687,0.05492956191301346,-1.0170714855194092,0.14450396597385406,-0.10777409374713898,0.1306971162557602,31.879518508911133,-11.095834732055664,41.970157623291016,0
238,2379966,0.08855221420526505,-0.015644274652004242,-0.9943561553955078,0.8474471569061279,0.27911195158958435,-0.168190598487854,30.740140914916992,-10.014836311340332,40.74161148071289,0
239,2389978,-0.03298971801996231,0.025717612355947495,-1.0269449949264526,0.3806318938732147,-0.6384293437004089,0.3138931393623352,29.920888900756836,-9.164517402648926,39.00202941894531,0
240,2399807,-0.03538138419389725,0.03918807953596115,-0.9956406354904175,0.054673656821250916,-0.08722919970750809,-0.1609918475151062,31.578384399414062,-10.840960502624512,38.16886901855469,0
241,2410068,0.0005201470921747386,0.09861178696155548,-1.0006258487701416,0.5272237658500671,-0.14700230956077576,-0.5868905186653137,31.89120864868164,-10.72998332977295,38.93874740600586,0
242,2420071,-0.04050324857234955,0.09856944531202316,-0.9936279654502869,-0.1957056224346161,-0.31516122817993164,0.18866832554340363,30.23367691040039,-9.715967178344727,41.36199951171875,0
243,2430039,0.011621467769145966,-0.0020993577782064676,-0.9602141380310059,0.6597864031791687,0.6433014273643494,0.6420844197273254,29.831933975219727,-11.388561248779297,40.65779113769531,0
244,2439941,0.08193153142929077,-0.010743290185928345,-0.9931744337081909,0.14951178431510925,-0.6141592264175415,-0.16473250091075897,29.613210678100586,-10.000572204589844,40.219058990478516,0
245,2449981,0.06649841368198395,0.09296433627605438,-1.014611005783081,-0.5609524846076965,-0.04429098218679428,0.4447717070579529,30.861921310424805,-9.561685562133789,39.6080322265625,0
246,2459876,-0.1442098468542099,0.022859269753098488,-0.9881373047828674,-0.552196204662323,-0.28035175800323486,-0.06653036177158356,29.24323844909668,-9.185400009155273,40.63285827636719,0
247,2469852,0.010154915042221546,-0.018908927217125893,-1.0006191730499268,-1.2844852209091187,-0.1706591546535492,-0.5157537460327148,28.73168182373047,-10.378278732299805,40.909889221191406,0
248,2480102,-0.14170114696025848,-0.0014398532221093774,-0.9768639802932739,-0.3347412347793579,-0.14426745474338531,0.3854716122150421,30.158815383911133,-9.588638305664062,40.37763214111328,0
249,2490003,-0.0089554563164711,-0.0028197583742439747,-0.9923416972160339,0.8627399206161499,-0.08449764549732208,0.6035016179084778,28.682376861572266,-10.717339515686035,40.62124252319336,0
250,2500049,0.02180694416165352,0.014230324886739254,-0.9784486293792725,0.454436719417572,0.4875645935535431,-0.21456502377986908,29.70814323425293,-8.50910472869873,39.37803268432617,0
251,2510266,0.05130155384540558,-0.020229103043675423,-0.9958937168121338,0.16398471593856812,0.7390589714050293,-0.19212639331817627,30.007915496826172,-10.3905611038208,39.998416900634766,0
252,2519821,0.029736705124378204,0.07737108319997787,-1.0021439790725708,0.12109936028718948,-0.5918286442756653,-0.2607390284538269,31.21489715576172,-10.086337089538574,40.417808532714844,0
253,2529952,0.028263015672564507,0.03560347855091095,-1.0285412073135376,0.631078839302063,0.6657030582427979,0.3946809768676758,33.27635192871094,-8.386178970336914,40.66017532348633,0
254,2539811,0.0406188890337944,-0.07691649347543716,-1.0019426345825195,-0.17242801189422607,-0.3573433458805084,-0.3934021592140198,28.94215965270996,-9.27132797241211,40.85311508178711,0
255,2550091,0.06230016425251961,0.01046069711446762,-1.0361467599868774,-1.164921760559082,0.23013809323310852,0.5991691946983337,29.341869354248047,-11.233805656433105,39.559112548828125,0
256,2560286,0.07747907936573029,-0.10786911100149155,-1.0049153566360474,0.16822239756584167,-0.6544650793075562,0.5161274671554565,28.985721588134766,-9.984402656555176,40.7918701171875,0
257,2569846,-0.04203842207789421,-0.0607241615653038,-1.0172851085662842,0.6065440773963928,0.3319770097732544,0.37487557530403137,30.17131805419922,-10.097391128540039,38.47775650024414,0
258,2579921,0.06487783044576645,-0.007702001370489597,-1.0191309452056885,-0.16546794772148132,-0.7249891757965088,0.31700778007507324,30.47460174560547,-10.6519193649292,38.40568542480469,0
259,2589701,-0.023127974942326546,-0.0467289574444294,-1.0181818008422852,0.5236003994941711,0.41579464077949524,-0.9209079742431641,28.668119430541992,-9.933201789855957,39.885780334472656,0
260,2600091,-0.07237809151411057,-0.07648977637290955,-0.9841870069503784,1.085433006286621,0.2984502911567688,-0.08526411652565002,30.62636375427246,-10.067533493041992,40.603111267089844,0
261,2610043,0.09488923102617264,-0.003143279580399394,-1.0175317525863647,0.44307753443717957,0.16510368883609772,-0.3888944685459137,29.73354148864746,-8.787035942077637,40.816261291503906,0
262,2620208,-0.07842501252889633,-0.10140318423509598,-1.010860562324524,1.5191587209701538,-0.1011887788772583,-1.298799753189087,28.97975730895996,-9.468865394592285,39.760643005371094,0
263,2630119,-0.016120819374918938,0.033589042723178864,-1.0032720565795898,-0.14300547540187836,0.2900758981704712,0.6701105833053589,28.370574951171875,-9.526274681091309,41.159637451171875,0
264,2639919,0.038391850888729095,-0.009536851197481155,-0.995684802532196,0.5360777378082275,0.8270282745361328,-0.2946418225765228,30.780351638793945,-9.574920654296875,39.00570297241211,0
265,2649978,-0.012338378466665745,-0.005493911914527416,-1.0219155550003052,-0.008712832815945148,-0.329978346824646,0.1317136138677597,29.31357765197754,-10.875062942504883,41.31123733520508,0
266,2660000,-0.01640583761036396,-0.006805972661823034,-0.9651147127151489,0.6034683585166931,-0.1134447306394577,0.5156728625297546,30.083120346069336,-9.243695259094238,41.120906829833984,0
267,2669845,0.09002753347158432,-0.02060658484697342,-1.013291597366333,-0.44521385431289673,0.2741072475910187,0.07962551712989807,30.37250518798828,-9.812580108642578,40.75800704956055,0
268,2679930,0.061986323446035385,-0.023979099467396736,-0.9600621461868286,0.8004409670829773,-0.031513482332229614,-0.2816252112388611,29.798885345458984,-10.203206062316895,39.3320426940918,0
269,2690124,-0.03647232428193092,-0.07396481931209564,-0.9891331195831299,-0.7063208222389221,0.23042647540569305,-0.511672854423523,30.009679794311523,-11.040704727172852,39.15363693237305,0
270,2699961,-0.0909106433391571,0.027579190209507942,-0.9675763249397278,0.4777691662311554,0.1923544555902481,0.21507129073143005,31.516897201538086,-9.708221435546875,41.28186798095703,0
271,2709982,-0.018440132960677147,0.012944689951837063,-0.9995966553688049,0.3773766756057739,-0.4149841070175171,-0.8394870162010193,28.819427490234375,-9.145090103149414,39.96806335449219,0
272,2719903,0.005700193345546722,-0.017209023237228394,-0.9787861704826355,0.3758159875869751,-0.3205488324165344,1.3982778787612915,27.78799057006836,-11.47361946105957,39.86113357543945,0
273,2730018,-0.029573529958724976,0.022832205519080162,-0.9603663682937622,0.1545305848121643,0.34484604001045227,0.5616529583930969,30.9222469329834,-9.466582298278809,39.3824462890625,0
274,2739927,0.0018963717157021165,-0.04319378733634949,-1.0083600282669067,-0.45351773500442505,-0.4999866187572479,-0.11075524985790253,30.69745635986328,-10.285752296447754,40.6035041809082,0
275,2750167,0.03472261503338814,-0.11002612113952637,-1.0200080871582031,-0.49472248554229736,-0.2985338568687439,0.45337656140327454,29.861906051635742,-9.572051048278809,40.73814392089844,0
276,2759959,0.002460337011143565,0.005638513248413801,-1.0052118301391602,0.7606209516525269,0.4223783612251282,-0.13179436326026917,29.4533634185791,-9.08736801147461,39.99488067626953,0
277,2770023,0.02163219265639782,0.07961638271808624,-0.9813975691795349,0.6332980990409851,0.5166704058647156,-0.24330966174602509,29.843896865844727,-10.436582565307617,40.45100784301758,0
278,2779914,-0.021856136620044708,0.019301770254969597,-0.9822457432746887,1.1656780242919922,0.32896706461906433,-0.35966601967811584,30.401935577392578,-9.799731254577637,38.598365783691406,0
279,2789846,-0.09101525694131851,-0.06700148433446884,-0.9961769580841064,0.601471483707428,0.34392184019088745,0.21226060390472412,29.091873168945312,-9.327947616577148,39.3536491394043,0
280,2799924,0.03416384011507034,0.08638175576925278,-1.0003948211669922,0.23224830627441406,-0.8242716789245605,0.21173253655433655,29.71575164794922,-9.898890495300293,38.68293380737305,0
281,2809848,-0.029681174084544182,0.07645843178033829,-1.0012943744659424,0.4186924695968628,-0.17539192736148834,0.13619577884674072,30.342267990112305,-9.753485679626465,39.37345886230469,0
282,2820008,-0.016083676367998123,0.0739421620965004,-0.988885223865509,-0.0875546783208847,-0.3022458255290985,0.09033148735761642,30.60320281982422,-10.340659141540527,39.33418273925781,0
283,2829820,0.004849681165069342,0.016154279932379723,-0.9829608201980591,0.46424031257629395,0.6579124331474304,-0.047900114208459854,29.093759536743164,-11.163152694702148,40.35831069946289,0
284,2839930,-0.024935930967330933,0.030116837471723557,-1.0156707763671875,0.18114055693149567,0.3626234233379364,-0.16655178368091583,31.32391929626465,-10.858929634094238,38.74933624267578,0
285,2849888,0.0280913058668375,0.03731977567076683,-0.9838247895240784,-0.6262088418006897,1.207396149635315,-0.05334360897541046,30.905168533325195,-8.996870994567871,39.648380279541016,0
286,2859806,-0.017113300040364265,0.06757673621177673,-0.981037974357605,0.16158020496368408,0.4352637231349945,0.504981517791748,29.232654571533203,-10.774345397949219,42.67472457885742,0
287,2869999,0.006434469483792782,-0.04363737255334854,-1.0044124126434326,-0.06210846081376076,0.04496084898710251,-0.3190011978149414,29.42169952392578,-10.506329536437988,38.94298553466797,0
288,2879839,-0.03405645489692688,0.006923761684447527,-1.025606632232666,0.07980044186115265,-0.7134281992912292,0.034347038716077805,29.40628433227539,-10.232709884643555,40.78945541381836,0
289,2890003,-0.040822140872478485,0.02903207577764988,-0.9995577335357666,0.06582396477460861,1.1859807968139648,0.7428137063980103,30.853525161743164,-10.341676712036133,40.725887298583984,0
290,2900011,-0.024363862350583076,0.006329688709229231,-1.017668604850769,0.11637009680271149,-0.022913111373782158,-1.5788003206253052,29.83579444885254,-9.725972175598145,40.2889289855957,0
291,2909844,0.02254762314260006,-0.0014679856831207871,-1.0022683143615723,-0.5531302690505981,0.12837490439414978,-0.7149943113327026,28.570409774780273,-10.196816444396973,40.62675094604492,0
292,2919919,0.040808599442243576,0.009707090444862843,-1.007018804550171,-1.0669986009597778,0.5438057780265808,0.17077305912971497,31.881757736206055,-8.94444465637207,38.45587921142578,0
293,2929989,-0.0018594615394249558,-0.019022900611162186,-0.9770749807357788,-0.35870859026908875,-0.1589958518743515,-0.7690938711166382,30.698780059814453,-11.028249740600586,39.7770881652832,0
294,2939984,0.03847913071513176,0.0020901730749756098,-0.9970850348472595,0.5242985486984253,-0.0799199640750885,0.017392797395586967,29.62670135498047,-10.685851097106934,39.5816764831543,0
295,2949984,0.04954668506979942,-0.051927726715803146,-1.0192208290100098,0.2938721179962158,-0.05696958303451538,0.18241176009178162,30.348339080810547,-9.585829734802246,39.95370864868164,0
296,2959962,0.0162319615483284,-0.03008539043366909,-0.9916760921478271,0.2738843858242035,-0.056647889316082,-0.4055326282978058,27.830087661743164,-9.186798095703125,37.58820724487305,0
297,2969843,0.040335141122341156,-0.04625556245446205,-1.00287663936615,0.01079531665891409,-1.0366718769073486,0.6969444155693054,30.037029266357422,-8.479790687561035,37.379127502441406,0
298,2980126,-0.01566629856824875,0.057071752846241,-1.0119887590408325,-1.0102205276489258,-0.1954232156276703,-0.8731785416603088,27.9571533203125,-10.78144645690918,40.43463897705078,0
299,2989859,0.03507909178733826,-0.059580013155937195,-1.0005017518997192,0.6954783201217651,-0.7618694305419922,-0.3820499777793884,30.738500595092773,-10.673696517944336,40.53190612792969,0
300,3000159,-0.058096401393413544,-0.0064570908434689045,-1.018731713294983,-0.1400488168001175,-0.15010234713554382,-0.3639998435974121,30.1690673828125,-9.687274932861328,40.09258270263672,0
301,3009878,0.06894224137067795,-0.020176947116851807,-1.0191683769226074,-0.0909765362739563,0.6413370370864868,0.9515748620033264,28.434349060058594,-11.57609748840332,40.98745346069336,0
302,3019905,0.03710759058594704,0.01744011975824833,-1.0189846754074097,-0.4199332594871521,0.3231160342693329,-0.31015655398368835,30.162437438964844,-8.634881973266602,38.496551513671875,0
303,3029919,0.06573176383972168,0.04337194561958313,-0.9716371297836304,0.3117654025554657,0.12463688105344772,0.035750988870859146,28.067535400390625,-8.30130386352539,40.04188919067383,0
304,3040184,-0.0012474250979721546,-0.029501836746931076,-0.9947726726531982,-0.5187535881996155,-0.18628782033920288,0.010233744978904724,30.7853946685791,-8.756656646728516,39.01704025268555,0
305,3050212,-0.0387691967189312,-0.012469013221561909,-1.0016810894012451,-0.001594981411471963,0.08884973078966141,0.559100866317749,30.6717529296875,-9.516674041748047,39.22511672973633,0
306,3059972,-0.025514867156744003,0.048549480736255646,-1.03057062625885,-0.2973942458629608,-0.20175006985664368,-0.5095722079277039,29.003032684326172,-9.84027099609375,39.767154693603516,0
307,3069973,-0.09992647916078568,0.07436412572860718,-1.0118283033370972,-0.470987468957901,-0.002575321588665247,0.8457703590393066,29.646991729736328,-10.35690689086914,39.748321533203125,0
308,3079942,-0.06811732053756714,-0.10070791095495224,-1.00993812084198,-0.5703167915344238,-0.21873581409454346,-0.6340764760971069,29.98518943786621,-9.069594383239746,38.99073028564453,0
309,3090171,-0.08331234753131866,-0.004382236395031214,-0.9998151659965515,0.11679840832948685,-0.19629783928394318,-0.39185309410095215,29.373441696166992,-11.216196060180664,40.84588623046875,0
310,3100044,-0.059369802474975586,0.050602804869413376,-0.9860222935676575,-0.8087644577026367,0.21824705600738525,-0.4111669957637787,30.587051391601562,-10.05321216583252,40.873924255371094,0
311,3110164,0.09341207146644592,0.06036604195833206,-1.030542016029358,0.4413589537143707,0.6076986789703369,0.06561485677957535,28.27493667602539,-9.18977165222168,39.55725860595703,0
312,3119925,0.036341939121484756,-0.06594274938106537,-1.0064972639083862,-0.25796449184417725,0.6978089213371277,-0.19426321983337402,31.314533233642578,-9.481683731079102,38.589569091796875,0
313,3129807,0.036942243576049805,0.0335797555744648,-0.9518503546714783,-0.5775277018547058,-0.043089695274829865,-0.2749132812023163,29.566808700561523,-9.515515327453613,39.44438171386719,0
314,3139871,-0.018052540719509125,0.10406595468521118,-0.9721738696098328,-0.41854026913642883,-0.35652244091033936,-0.029403887689113617,31.516321182250977,-10.606893539428711,41.12584686279297,0
315,3150126,-0.015922868624329567,-0.01322844810783863,-0.9836691617965698,-0.38397476077079773,-0.7205077409744263,-0.08033891767263412,29.76198959350586,-9.257355690002441,39.08418273925781,0
316,3159989,0.06671048700809479,-0.05332903936505318,-0.9948636889457703,0.5439717769622803,-0.28287264704704285,0.14235976338386536,30.12808609008789,-9.953923225402832,40.91889953613281,0
317,3169927,0.014988263137638569,-0.01914491318166256,-0.9988548755645752,-0.3477759063243866,0.15634185075759888,-0.3083270788192749,27.998872756958008,-10.92961311340332,40.97563552856445,0
318,3180071,0.010670207440853119,0.03618897497653961,-1.0108222961425781,0.23893851041793823,0.581352174282074,-0.07722519338130951,28.504817962646484,-10.48770809173584,39.72288131713867,0
319,3190168,0.032881226390600204,0.06124008074402809,-0.989771842956543,-0.05574257671833038,0.07558650523424149,-0.40961596369743347,29.385053634643555,-8.897039413452148,41.830020904541016,0
320,3200063,-0.056349433958530426,-0.058246638625860214,-0.9882938861846924,0.50766521692276,-0.04569219425320625,0.001985351089388132,30.77146339416504,-9.590555191040039,39.925987243652344,0
321,3210130,0.007092287763953209,0.025186892598867416,-1.0177112817764282,-0.18697425723075867,0.8433209657669067,0.6120231747627258,29.751649856567383,-10.850144386291504,41.55686950683594,0
322,3220010,0.009504894725978374,-0.023216169327497482,-1.0235196352005005,0.5887020826339722,-0.09413942694664001,-0.043174151331186295,28.760005950927734,-11.880046844482422,40.11682891845703,0
323,3229894,-0.10819816589355469,-0.0028793567325919867,-0.989315927028656,0.2204221934080124,0.24741734564304352,0.0342874601483345,29.601375579833984,-11.021443367004395,38.70554733276367,0
324,3240117,0.0038654739037156105,-0.03371923044323921,-0.9707275032997131,1.0211505889892578,0.6989120244979858,-0.7442846894264221,29.34956169128418,-10.806323051452637,40.47889709472656,0
325,3249876,0.02186710201203823,-0.014637431129813194,-1.0015262365341187,-0.2939884066581726,0.173905611038208,0.47627905011177063,28.170005798339844,-10.839760780334473,39.23062515258789,0
326,3260037,0.07780945301055908,0.03767061233520508,-0.9512305855751038,-0.01568645052611828,-0.23605194687843323,0.028003782033920288,29.51990509033203,-9.459455490112305,39.08517074584961,0
327,3270011,-0.00955150742083788,0.06996451318264008,-0.9828417301177979,0.558111310005188,-0.34513694047927856,0.5922485589981079,30.383024215698242,-10.164410591125488,41.975181579589844,0
328,3280124,0.0036874974612146616,0.0202560443431139,-1.0126391649246216,-0.0013042003847658634,0.3544340133666992,0.30643436312675476,31.736804962158203,-11.554338455200195,39.59699249267578,0
329,3290096,0.026366686448454857,0.01753220334649086,-0.984777569770813,-0.436400830745697,0.06803512573242188,0.04636331647634506,29.8819637298584,-11.620701789855957,39.44723892211914,0
330,3300032,-0.02137518674135208,-0.058148667216300964,-1.0096509456634521,-0.05124290660023689,-0.21573062241077423,-0.07049451023340225,29.472627639770508,-11.300415992736816,41.164825439453125,0
331,3309783,-0.11123596131801605,-0.05496008321642876,-0.9789523482322693,-0.6412516832351685,-0.5037611722946167,0.06855271756649017,30.180179595947266,-9.894719123840332,40.838661193847656,0
332,3320148,-0.020634915679693222,-0.06469397991895676,-0.9975939989089966,0.3572157919406891,0.15216027200222015,-0.8615501523017883,28.635175704956055,-9.890375137329102,40.88401794433594,0
333,3330096,0.004013154190033674,-0.05581885948777199,-0.9752269387245178,0.19157913327217102,-0.48161110281944275,1.0539147853851318,30.195701599121094,-10.491090774536133,39.53756332397461,0
334,3339860,0.02996833436191082,0.06561411917209625,-1.0179076194763184,0.042077843099832535,-0.218844473361969,0.03215138614177704,29.15367889404297,-8.429549217224121,39.735267639160156,0
335,3350094,-0.025214949622750282,0.025623744353652,-1.0218111276626587,-0.6039493680000305,-0.17804141342639923,-0.3062851130962372,29.725849151611328,-9.203935623168945,41.97422790527344,0
336,3359811,0.015829281881451607,0.05267975479364395,-0.9881432056427002,-1.1000946760177612,0.2271772176027298,0.5475621819496155,29.81061363220215,-8.881464958190918,37.573429107666016,0
337,3370198,0.05769287422299385,-0.029454447329044342,-1.0118489265441895,0.2268824726343155,-0.07294216752052307,0.20220449566841125,30.96730613708496,-11.158235549926758,39.48088073730469,0
338,3379813,0.04737675189971924,0.13365909457206726,-1.0106451511383057,-1.009178638458252,0.6354374885559082,0.2225375473499298,29.782499313354492,-8.342706680297852,38.93886184692383,0
339,3390172,-0.05389447137713432,-0.11793798208236694,-1.0058324337005615,-1.4390318393707275,-0.5860453248023987,0.33361443877220154,30.488109588623047,-8.035423278808594,40.409114837646484,0
340,3399892,0.05631876736879349,0.011119140312075615,-1.0180654525756836,-0.015466106124222279,-1.0969429016113281,-0.46761026978492737,29.751962661743164,-12.344820976257324,40.73765182495117,0
341,3410177,0.052037447690963745,0.03280125558376312,-0.9854559302330017,1.4557338953018188,0.36445584893226624,0.6606875061988831,30.33053207397461,-10.32079029083252,41.94989776611328,0
342,3419822,0.042707670480012894,-0.04749744012951851,-1.0143917798995972,-0.876753032207489,0.5167834162712097,0.37624117732048035,30.227245330810547,-10.344527244567871,39.10756301879883,0
343,3429912,0.08219946175813675,0.03334728255867958,-0.9987379908561707,-0.293613076210022,-0.9772942066192627,-1.3564203977584839,31.226594924926758,-10.385181427001953,38.66328811645508,0
344,3439734,0.07926208525896072,0.009749689139425755,-0.9911727905273438,0.07919992506504059,0.04284483194351196,0.5929887294769287,29.226577758789062,-9.706755638122559,40.805049896240234,0
345,3449936,0.03590153902769089,-0.07900159806013107,-1.007182002067566,0.14278113842010498,0.6450467109680176,0.29552480578422546,30.233091354370117,-10.118511199951172,41.25370407104492,0
346,3459774,0.042226001620292664,0.044538967311382294,-1.0232319831848145,0.2938370108604431,0.33330869674682617,0.17847512662410736,31.118392944335938,-10.815871238708496,39.39445877075195,0
347,3470136,-0.007860924117267132,-0.007209757808595896,-0.9945506453514099,0.3298611044883728,-0.17248861491680145,-0.7207084894180298,31.30075454711914,-9.576892852783203,39.797752380371094,0
348,3480158,-0.019647197797894478,0.0718163326382637,-0.9911872148513794,0.5271052718162537,0.6468790173530579,-0.4707404375076294,30.181278228759766,-9.431267738342285,39.480220794677734,0
349,3489757,-0.005757344886660576,-0.00913698598742485,-0.9957212209701538,0.23819540441036224,-0.4358440637588501,0.49958470463752747,31.551025390625,-9.512317657470703,39.42578887939453,0
350,3500107,-0.038260526955127716,0.025918105617165565,-0.9824217557907104,-0.6061168313026428,0.27444779872894287,1.2396240234375,30.981586456298828,-11.98746395111084,38.8978271484375,0
351,3509985,-0.034386441111564636,0.027691425755620003,-0.9647845029830933,-0.19438649713993073,-0.1633991301059723,0.6233987808227539,29.005281448364258,-9.761881828308105,39.43492889404297,0
352,3519921,0.060605697333812714,-0.026148954406380653,-0.9674233794212341,-0.17491719126701355,-0.18355661630630493,-0.552351176738739,31.38037109375,-11.209068298339844,41.855735778808594,0
353,3530186,-0.05476994812488556,-0.023409336805343628,-1.0143440961837769,-0.4539678692817688,-0.05210823938250542,-0.8659831285476685,31.490371704101562,-11.693379402160645,39.79311752319336,0
354,3540024,-0.00993184745311737,-0.011948798783123493,-1.0327962636947632,-0.5234098434448242,0.3408535122871399,-0.6032022833824158,30.817630767822266,-9.105982780456543,41.73302459716797,0
355,3550240,0.02172120474278927,-0.03539801761507988,-1.0001940727233887,0.24930772185325623,-0.8127709031105042,0.14286276698112488,31.891014099121094,-10.469594955444336,40.38175582885742,0
356,3559845,0.095549076795578,-0.019039656966924667,-1.0213842391967773,0.08927405625581741,-0.9545571804046631,0.7189478874206543,29.73723793029785,-11.393472671508789,40.017242431640625,0
357,3570251,-0.002139005344361067,0.04199597239494324,-0.9933561086654663,0.23604683578014374,0.13283495604991913,4.946482295054011e-05,32.22800827026367,-11.904684066772461,39.505638122558594,0
358,3580175,0.03401707112789154,-0.031391341239213943,-0.9890171885490417,0.2434478998184204,-0.4037564694881439,0.1034257560968399,29.07904052734375,-10.800607681274414,39.862186431884766,0
359,3590094,-0.0487581230700016,0.08641847968101501,-1.028947114944458,-0.11539089679718018,0.28988951444625854,-0.08735767006874084,29.306909561157227,-8.99439525604248,39.010982513427734,0
360,3600118,-0.004603696055710316,-0.0453965961933136,-0.9755540490150452,0.1670358031988144,0.550903856754303,-0.8499945402145386,30.84433364868164,-9.691435813903809,39.38624572753906,0
361,3609842,-0.060789719223976135,-0.07631189376115799,-0.9891601204872131,-0.13215294480323792,-0.006159307900816202,0.25053873658180237,29.75101661682129,-10.605854988098145,37.63914489746094,0
362,3619895,-0.05056152865290642,-0.05998695269227028,-1.0335161685943604,1.0157119035720825,-0.6685734391212463,0.6862388849258423,30.41521644592285,-9.812333106994629,39.42300796508789,0
363,3630148,0.029469357803463936,-0.07084151357412338,-0.9710538983345032,0.4235326945781708,0.08700148016214371,-0.5354669094085693,28.34101104736328,-9.979979515075684,39.726409912109375,0
364,3639840,-0.09311597049236298,0.007496345788240433,-0.9845697283744812,-0.1808769255876541,-0.16791869699954987,-0.27695006132125854,29.77890968322754,-11.31924819946289,40.25652313232422,0
365,3650055,-0.024444611743092537,-0.02112444117665291,-0.989753007888794,1.4798519611358643,-0.09937094151973724,0.14866186678409576,28.451152801513672,-9.572965621948242,39.73043441772461,0
366,3660235,0.033928245306015015,0.03190610185265541,-0.9747734665870667,0.8231635093688965,0.33421579003334045,0.17877627909183502,31.568660736083984,-10.295392990112305,41.26409912109375,0
367,3670239,0.040705543011426926,-0.07609795033931732,-1.0285426378250122,0.09856432676315308,0.5610525012016296,0.7534013986587524,30.89395523071289,-9.488055229187012,42.18722152709961,0
368,3679723,-0.028671294450759888,-0.05387407913804054,-0.9737603664398193,-0.9652838110923767,0.27907270193099976,0.7175925374031067,28.514541625976562,-9.643438339233398,40.23506546020508,0
369,3690005,0.07361418008804321,0.055739790201187134,-1.0078192949295044,-0.4767407476902008,-1.3336296081542969,0.4811563193798065,29.844043731689453,-10.348596572875977,38.57422637939453,0
370,3700014,0.05676599591970444,-0.08776307851076126,-1.0285433530807495,-0.7132193446159363,0.08475898951292038,-0.2747739553451538,29.692047119140625,-7.910820007324219,39.140323638916016,0
371,3710222,-0.021413525566458702,0.13706131279468536,-0.9781044721603394,0.027138810604810715,0.5801805853843689,0.876575767993927,28.65407371520996,-8.887442588806152,40.41129684448242,0
372,3719858,0.047692954540252686,-0.023307684808969498,-0.9626898169517517,-0.09959060698747635,-0.637649655342102,-0.24438224732875824,30.390098571777344,-9.65888500213623,39.739559173583984,0
373,3730247,0.006280857138335705,0.030266111716628075,-0.9875593781471252,-0.5011903643608093,0.8884864449501038,-0.12529587745666504,30.902055740356445,-9.298794746398926,40.10528564453125,0
374,3740239,-0.03482593968510628,-0.05109918490052223,-0.9858106970787048,0.1389111876487732,-0.12117192149162292,-0.5690136551856995,28.51800537109375,-8.970254898071289,41.74296569824219,0
375,3749969,-0.0009175512241199613,-0.03805684670805931,-1.0099247694015503,-0.2734510600566864,0.04479062557220459,0.8221965432167053,29.154508590698242,-11.08818244934082,41.79489517211914,0
376,3760126,0.11112947762012482,0.012467291206121445,-0.9828863143920898,0.2032698541879654,-0.05972936376929283,-0.4740210175514221,29.941844940185547,-10.365971565246582,40.68792724609375,0
377,3770300,-0.08164823055267334,0.0397094264626503,-0.9936280846595764,0.383411705493927,-0.4605134427547455,-0.1340332180261612,31.42595100402832,-9.950210571289062,41.36050796508789,0
378,3779818,0.0488777831196785,-0.01539513748139143,-1.0366593599319458,-0.8036972284317017,-0.21438169479370117,0.25866222381591797,30.38128089904785,-9.581564903259277,41.710777282714844,0
379,3789880,0.06803938001394272,-0.009873919188976288,-0.9675154089927673,-0.26383379101753235,0.5527235269546509,0.15494635701179504,30.741785049438477,-9.81544017791748,38.726768493652344,0
380,3799883,0.05241035297513008,-0.0013078827178105712,-0.9726255536079407,0.3026115596294403,0.4992951452732086,0.24664181470870972,29.341392517089844,-9.598657608032227,40.493167877197266,0
381,3809905,-0.04324309527873993,0.0009872011141851544,-0.9946470260620117,0.1265314221382141,-0.6622808575630188,0.5148316025733948,31.81878089904785,-10.157099723815918,39.05533218383789,0
382,3820309,-0.029201753437519073,-0.002434690948575735,-1.0044727325439453,-0.026685811579227448,-0.7117412686347961,0.29792049527168274,29.848134994506836,-9.465482711791992,41.24275588989258,0
383,3829966,0.012708703987300396,-0.06288860738277435,-1.0105880498886108,-1.3225287199020386,0.031036317348480225,-0.43129074573516846,28.93813133239746,-8.193114280700684,40.37937545776367,0
384,3839993,0.0802447497844696,0.0735044926404953,-0.9967459440231323,-0.41389650106430054,-0.1542966067790985,-0.22874082624912262,29.56930923461914,-9.68222713470459,40.864070892333984,0
385,3850212,0.00701033603399992,0.03275090083479881,-1.0399243831634521,0.2823322117328644,0.2875612676143646,-0.27689889073371887,28.84197235107422,-9.785131454467773,40.16413497924805,0
386,3860009,-0.027811381965875626,-0.010184554383158684,-1.0004863739013672,-1.1677464246749878,0.4644322395324707,0.5993644595146179,33.16265869140625,-10.568142890930176,39.56269836425781,0
387,3869880,-0.003182601183652878,-0.013130905106663704,-1.0202564001083374,-0.2004026621580124,0.48234859108924866,0.5138401985168457,29.2239933013916,-10.217975616455078,39.737449645996094,0
388,3879991,-0.017407240346074104,0.032920051366090775,-0.9997350573539734,0.5267845392227173,0.6465665698051453,-0.3931114971637726,31.247901916503906,-10.852675437927246,41.36005783081055,0
389,3890057,-0.01927895098924637,-0.054988566786050797,-1.0077483654022217,0.5155319571495056,0.10147421807050705,-0.2978672385215759,29.540542602539062,-11.024209022521973,39.96078872680664,0
390,3899750,0.030261527746915817,-0.052207592874765396,-1.0094224214553833,0.7196139693260193,-0.37068963050842285,0.7316471934318542,28.974773406982422,-8.650652885437012,40.40303039550781,0
391,3909903,-0.05110732093453407,-0.023817073553800583,-1.029823899269104,-0.22235628962516785,-0.19142797589302063,0.4735199511051178,28.93874168395996,-9.61227798461914,42.00625228881836,0
392,3920168,-0.030702073127031326,-0.07210105657577515,-0.980624258518219,-0.026050060987472534,0.0352717749774456,-0.2100711464881897,30.808074951171875,-9.713674545288086,40.27410125732422,0
393,3930043,-0.026866868138313293,-0.037142667919397354,-0.9794030785560608,-0.09111374616622925,-0.8714781999588013,0.22679246962070465,28.717784881591797,-9.443036079406738,40.64142608642578,0
394,3939954,-0.15883532166481018,0.019067782908678055,-0.9698386788368225,0.8166114687919617,-0.12018819898366928,0.0094728609547019,30.618305206298828,-8.99908447265625,40.2284049987793,0
395,3949995,-0.04934417083859444,0.047137029469013214,-1.0134828090667725,0.04205740615725517,-0.3060748875141144,0.33489200472831726,30.176204681396484,-12.318218231201172,39.65510940551758,0
396,3959912,0.03049095906317234,0.10637097805738449,-0.9988251328468323,-0.42049410939216614,0.2077324539422989,0.17681095004081726,30.35088348388672,-10.211338996887207,40.4732780456543,0
397,3969925,0.019419824704527855,0.10920467972755432,-1.0012388229370117,-0.8929898142814636,0.9536171555519104,-0.18674351274967194,28.536897659301758,-10.964669227600098,39.44203186035156,0
398,3979927,0.10168791562318802,0.04057152941823006,-1.0138226747512817,-0.7382064461708069,0.17479568719863892,0.537166953086853,28.895187377929688,-10.113422393798828,39.11700439453125,0
399,3989889,0.016104863956570625,-0.0313384085893631,-1.0277202129364014,-0.053972695022821426,0.24043907225131989,-0.4155479669570923,29.407236099243164,-9.839794158935547,39.98664093017578,0
400,4000091,0.01772378571331501,0.052091311663389206,-0.9893229007720947,-0.05889493599534035,-0.2958584129810333,-0.06187642738223076,29.37053871154785,-9.501119613647461,41.02919387817383,0
401,4010031,0.03293071314692497,-0.0869392454624176,-0.9997859597206116,0.11155402660369873,-0.3681730628013611,-0.537636399269104,29.847463607788086,-9.850531578063965,39.75101089477539,0
402,4020078,0.015306765213608742,-0.026258355006575584,-1.0036860704421997,0.34382784366607666,1.4659948348999023,-0.1204967349767685,27.93360137939453,-9.06495475769043,40.676212310791016,0
403,4029935,0.001967487158253789,-0.017472445964813232,-0.9971838593482971,-0.40712305903434753,-0.2088329941034317,-0.18953557312488556,30.02903938293457,-9.090776443481445,39.55808639526367,0
404,4040030,0.05725986883044243,-0.008869406767189503,-0.9931914210319519,0.575029730796814,0.16361947357654572,0.2770899534225464,30.047319412231445,-10.909460067749023,39.253639221191406,0
405,4050278,0.11206086724996567,-0.005409617908298969,-1.0021779537200928,-0.7110277414321899,-0.06002913787961006,0.019035087898373604,30.904361724853516,-11.34046459197998,40.866241455078125,0
406,4059981,-0.017845790833234787,-0.004691889975219965,-0.9951966404914856,0.46904173493385315,-0.08717240393161774,0.8173450231552124,30.11187744140625,-9.246255874633789,40.9847526550293,0
407,4069739,-0.02089342102408409,0.1631961464881897,-0.9861617088317871,0.40238112211227417,-0.15790672600269318,-0.7032294869422913,31.248451232910156,-10.695181846618652,38.82650375366211,0
408,4080078,0.019952302798628807,0.048641178756952286,-0.974808394908905,0.5820847749710083,0.3557388186454773,-0.783313512802124,29.55003547668457,-11.085801124572754,39.83211898803711,0
409,4089997,0.038925305008888245,-0.006189742591232061,-1.0028716325759888,-0.837422251701355,0.41698434948921204,-0.9725481271743774,31.607515335083008,-11.60118579864502,39.65141296386719,0
410,4100263,0.02125522308051586,-0.08090536296367645,-0.9956054091453552,-0.32081151008605957,0.6855531334877014,-0.30132874846458435,28.237831115722656,-8.992653846740723,40.22133255004883,0
411,4109826,0.02691793628036976,0.07045860588550568,-1.0110520124435425,0.4050193727016449,0.16896112263202667,0.40874797105789185,28.212968826293945,-8.563262939453125,39.689395904541016,0
412,4119601,-0.018456142395734787,-0.1273408830165863,-1.043185830116272,-0.6850069761276245,0.38211870193481445,0.4696875810623169,30.949134826660156,-10.887466430664062,40.14701843261719,0
413,4130066,0.0718357264995575,0.07034796476364136,-1.0047551393508911,-0.3926483392715454,0.04598192125558853,0.3422849178314209,29.489791870117188,-9.303326606750488,40.05636215209961,0
414,4140076,-0.00914549920707941,-0.06066557392477989,-1.0156787633895874,0.10068175196647644,0.291106253862381,-0.08106230944395065,29.274194717407227,-9.83240032196045,41.037147521972656,0
415,4149984,0.03895470127463341,-0.02278333716094494,-1.0118558406829834,-0.015359964221715927,0.13604645431041718,-0.8889613747596741,28.38461685180664,-7.662254810333252,39.44719696044922,0
416,4159948,0.07648336887359619,-0.0801151916384697,-0.9929448962211609,0.5379135608673096,-0.7182798981666565,-0.25339755415916443,30.49117088317871,-8.91621208190918,37.9561767578125,0
417,4170203,0.021146191284060478,0.03562290221452713,-0.9991586804389954,0.2642752528190613,-0.3120829164981842,0.5269257426261902,29.824296951293945,-10.508657455444336,38.323123931884766,0
418,4179819,-0.009818779304623604,-0.003838592441752553,-0.998296856880188,0.990269124507904,-0.5429909229278564,0.4711269736289978,29.741453170776367,-9.67130184173584,38.485958099365234,0
419,4189943,-0.053186722099781036,-0.002294747857376933,-1.00043785572052,0.03769439458847046,0.0462409108877182,-0.2992667853832245,31.42733383178711,-8.079460144042969,40.129981994628906,0
420,4199880,-0.02090141922235489,-0.01697155274450779,-0.9804621338844299,0.1367500126361847,0.5229137539863586,-0.3518640697002411,29.402097702026367,-9.391486167907715,41.21542739868164,0
421,4210000,0.0574103444814682,0.058496054261922836,-0.9923276305198669,-0.31248635053634644,-0.49476832151412964,0.5361313819885254,29.610942840576172,-8.670438766479492,40.293087005615234,0
422,4220164,0.0562535859644413,-0.01373231690376997,-1.003857970237732,-0.2739887237548828,0.23847071826457977,0.8155988454818726,31.08032989501953,-9.796716690063477,39.13945007324219,0
423,4230190,-0.019796214997768402,0.053247563540935516,-1.0016783475875854,0.7348265051841736,0.46486562490463257,-0.04759610816836357,31.710290908813477,-10.311626434326172,38.124576568603516,0
424,4240076,-0.04419544339179993,-0.0944429412484169,-1.0081837177276611,0.14579501748085022,0.942284882068634,-0.17562638223171234,30.596044540405273,-9.775675773620605,38.331092834472656,0
425,4250010,-0.05179419368505478,0.03303105756640434,-1.01088285446167,-0.3676588237285614,0.42170876264572144,-0.5861669182777405,30.084184646606445,-10.128108024597168,39.04270553588867,0
426,4259960,-0.03235990181565285,-0.12307724356651306,-1.0407099723815918,-1.0046000480651855,0.3628379702568054,-0.6501392722129822,29.85569953918457,-9.77058219909668,40.15568923950195,0
427,4270111,0.00133753742557019,0.027159081771969795,-1.0131436586380005,-0.05910465866327286,-0.17495866119861603,-1.063644289970398,29.30434226989746,-10.292452812194824,39.723541259765625,0
428,4280287,0.0517173632979393,0.06120425462722778,-0.9744040966033936,-0.3054819107055664,0.3463585078716278,0.6320284008979797,29.137659072875977,-10.541866302490234,40.350677490234375,0
429,4290031,0.04317522421479225,0.030956417322158813,-0.9900484681129456,-0.4464423358440399,-0.16671249270439148,-0.12888802587985992,29.288379669189453,-9.378596305847168,38.57440948486328,0
430,4299769,-0.03670654445886612,0.08680395781993866,-1.0120041370391846,-0.5220813751220703,0.9491382241249084,0.35177427530288696,30.181488037109375,-8.923707008361816,40.91791915893555,0
431,4309961,0.045613277703523636,0.02520393766462803,-1.019090175628662,0.4523179531097412,-0.04240849241614342,0.19737593829631805,29.594945907592773,-9.005008697509766,39.13166046142578,0
432,4320002,-0.03577902913093567,0.03529929742217064,-1.0109612941741943,-0.1604851335287094,0.24222269654273987,-0.5342963933944702,29.91709327697754,-10.4245023727417,40.43590545654297,0
433,4330189,0.014146233908832073,0.047380782663822174,-0.9927918314933777,0.5366532206535339,0.6283971667289734,-0.30038177967071533,32.158145904541016,-9.786365509033203,40.60313034057617,0
434,4339921,0.034419212490320206,0.15062817931175232,-1.006664514541626,-0.5431066751480103,-0.12739990651607513,-0.9242473840713501,29.51361083984375,-10.389683723449707,40.71161651611328,0
435,4350059,0.0070249419659376144,-0.06298692524433136,-1.0439128875732422,0.3594236373901367,-0.370250403881073,0.10296355187892914,29.008804321289062,-9.754769325256348,40.27174758911133,0
436,4359790,0.017035890370607376,0.022907540202140808,-0.9809733629226685,0.6542527675628662,-0.07549910992383957,-0.10915453732013702,31.072471618652344,-10.557745933532715,41.59170150756836,0
437,4370044,0.04107419028878212,-0.020618289709091187,-0.9950541853904724,0.7106391787528992,-0.6669895052909851,0.6189522743225098,28.110069274902344,-9.388923645019531,40.458885192871094,0
438,4380080,-0.053126316517591476,-0.05088058486580849,-0.9754654169082642,-0.1898629069328308,0.6277558207511902,0.7879674434661865,28.166568756103516,-11.163597106933594,37.80050277709961,0
439,4390376,0.06862994283437729,-0.06827650219202042,-0.9881756901741028,-0.25158989429473877,0.08880127221345901,0.19943873584270477,29.869062423706055,-9.650596618652344,39.41823959350586,0
440,4399856,0.04326104372739792,-0.058941565454006195,-1.0113749504089355,-0.5176988244056702,0.5594357848167419,-0.4716411232948303,27.67906379699707,-10.289599418640137,39.77190017700195,0
441,4410016,-0.06759244948625565,-0.031274836510419846,-0.9575417637825012,0.06441766768693924,-0.05287640541791916,0.15875208377838135,30.108264923095703,-11.632369041442871,39.791099548339844,0
442,4419727,-0.03684040904045105,0.05950741097331047,-1.0192152261734009,0.4146455228328705,0.09056821465492249,-0.6332824230194092,30.096858978271484,-10.566251754760742,40.040157318115234,0
443,4430151,0.006652900017797947,-0.05099081993103027,-0.9968531727790833,0.2536742687225342,0.44918471574783325,-0.17513106763362885,30.145063400268555,-9.245260238647461,39.50483322143555,0
444,4439915,0.005212919320911169,-0.009408198297023773,-1.0529483556747437,0.44607648253440857,-0.12418777495622635,1.0567989349365234,28.313739776611328,-7.996208190917969,40.660945892333984,0
445,4450060,0.060271091759204865,-0.06410731375217438,-1.0079302787780762,-0.11229735612869263,0.8039219379425049,-0.21886973083019257,30.87748146057129,-10.81405258178711,40.05522918701172,0
446,4460011,-0.012228679843246937,-0.061352457851171494,-0.9884878396987915,0.07100213319063187,-0.4767318665981293,-0.28196606040000916,29.86071014404297,-9.348670959472656,39.93400192260742,0
447,4469877,0.03434004634618759,-0.009106343612074852,-0.974120020866394,-1.0443878173828125,0.23342342674732208,0.18595388531684875,28.924428939819336,-10.233189582824707,40.24607849121094,0
448,4480379,-0.07837868481874466,0.027108483016490936,-1.0082180500030518,0.30996984243392944,-0.09639040380716324,0.14507919549942017,29.656002044677734,-10.32103157043457,41.01220703125,0
449,4489847,-0.01258004829287529,-0.009238678961992264,-1.0025818347930908,0.38674280047416687,-0.558276355266571,-0.2597060799598694,31.484630584716797,-10.123761177062988,40.26454162597656,0
450,4500131,0.027912432327866554,-0.043367061764001846,-0.9940926432609558,-0.3504253327846527,-1.1986206769943237,0.5464922785758972,29.044633865356445,-9.791728019714355,41.408905029296875,0
451,4509870,-0.05258436128497124,0.049496281892061234,-0.9915813207626343,0.2558523118495941,-0.41985252499580383,0.13053250312805176,30.42099952697754,-11.382877349853516,40.80241394042969,0
452,4520063,-0.036758288741111755,0.031447090208530426,-0.9984252452850342,-0.21404941380023956,0.42868900299072266,-0.13964450359344482,29.524263381958008,-9.010159492492676,40.90258026123047,0
453,4530053,0.029102852568030357,0.008095858618617058,-1.0301867723464966,-0.3577641248703003,0.004031454678624868,0.6520963311195374,29.089237213134766,-8.724629402160645,39.0560302734375,0
454,4539947,-0.06538738310337067,0.02053682506084442,-1.0017552375793457,0.5398240685462952,0.09171832352876663,-0.2813199758529663,31.326398849487305,-10.785040855407715,39.07722854614258,0
455,4550274,-0.007139744237065315,0.031031399965286255,-0.9508665800094604,0.214680477976799,-0.3100200891494751,1.2922128438949585,29.483530044555664,-9.57760238647461,38.36760330200195,0
456,4559937,0.021193161606788635,0.09909194707870483,-1.0047410726547241,-0.4160615801811218,0.21750342845916748,-0.28456413745880127,30.898326873779297,-11.574545860290527,41.07156753540039,0
457,4569987,0.0010372193064540625,0.017163684591650963,-0.9625483155250549,0.25689515471458435,0.12896887958049774,0.5562437772750854,29.398029327392578,-9.613045692443848,38.6413688659668,0
458,4579912,0.04049263894557953,-0.06109607592225075,-1.006872296333313,-0.18760468065738678,0.17070810496807098,-0.3629899322986603,29.65073013305664,-8.259511947631836,39.33864212036133,0
459,4590097,0.08225255459547043,-0.05680709332227707,-0.9646252989768982,0.37925925850868225,0.6691602468490601,-0.09730179607868195,28.519556045532227,-10.505857467651367,41.21822738647461,0
460,4600128,0.03562086448073387,0.019065605476498604,-0.9897840619087219,0.11590731889009476,0.7154924273490906,-1.003738284111023,29.136180877685547,-10.481980323791504,38.33195877075195,0
461,4610139,-0.05719238519668579,-0.10419484227895737,-1.021916151046753,0.7504624128341675,0.4297637641429901,-0.024488547816872597,29.271099090576172,-10.238286018371582,41.25811004638672,0
462,4620117,0.05570773780345917,0.02807300165295601,-1.039898157119751,0.3107350170612335,-0.22735443711280823,0.11054854094982147,30.084102630615234,-9.771709442138672,39.22249984741211,0
463,4629779,0.027483630925416946,0.05175531655550003,-0.9828501343727112,-0.1234845221042633,-0.031805552542209625,-0.766206681728363,29.755172729492188,-8.676446914672852,40.586570739746094,0
464,4640116,-0.07303949445486069,-0.014542569406330585,-1.005768895149231,0.46375271677970886,0.24149182438850403,-0.4538572430610657,30.31186866760254,-10.643989562988281,39.44401931762695,0
465,4649929,0.02703806757926941,0.06541398912668228,-0.990710973739624,0.3579655587673187,-0.5560219287872314,-0.22767089307308197,30.90657615661621,-10.175189018249512,40.97090148925781,0
466,4660064,-0.004039876628667116,-0.003418681677430868,-0.9930600523948669,0.6349299550056458,0.5662150979042053,-0.27426838874816895,30.549766540527344,-10.436513900756836,39.002342224121094,0
467,4670132,-0.03320499137043953,-0.003893766086548567,-1.0062239170074463,0.2738516628742218,0.22004899382591248,0.1718994379043579,30.01457405090332,-9.394277572631836,40.55357360839844,0
468,4679880,-0.0012152373092249036,-0.020935365930199623,-0.979504406452179,-1.032541275024414,-0.4797860085964203,0.529695451259613,28.387008666992188,-9.035080909729004,40.52150344848633,0
469,4690062,0.01287122257053852,-0.0510215237736702,-1.0009859800338745,0.3645819425582886,-0.6933706402778625,-0.5901245474815369,31.230144500732422,-8.808584213256836,40.473243713378906,0
470,4699714,-0.08582913875579834,-0.0037512232083827257,-0.9970346093177795,-0.35447365045547485,-0.25910094380378723,-0.12975576519966125,30.087448120117188,-11.1096830368042,39.30185317993164,0
471,4710204,-0.013007751666009426,0.03754748776555061,-1.0328567028045654,0.47534695267677307,-0.649077832698822,0.6366967558860779,30.780881881713867,-11.579291343688965,42.86368179321289,0
472,4719962,0.02691173367202282,-0.09326165914535522,-0.9733780026435852,0.30702704191207886,-0.6657024621963501,0.9770777225494385,29.092897415161133,-10.334226608276367,39.78983688354492,0
473,4730130,0.031654566526412964,-0.11691703647375107,-0.9838398694992065,0.005384934600442648,-0.026586076244711876,0.29126811027526855,30.378799438476562,-9.810296058654785,40.24036407470703,0
474,4739761,0.05464346334338188,-0.029920609667897224,-0.9610466957092285,-0.6604881286621094,-0.13726235926151276,0.7819945812225342,29.981979370117188,-9.540640830993652,40.62441635131836,0
475,4750138,-0.06163335591554642,-0.03884239122271538,-1.0250587463378906,-0.6425124406814575,-0.34560859203338623,-0.3269161581993103,30.427553176879883,-9.081271171569824,40.15803527832031,0
476,4760069,-0.08165767043828964,-0.01272453274577856,-0.9943850636482239,-0.4809107780456543,-0.15919062495231628,0.4533270299434662,30.623401641845703,-11.146164894104004,40.001468658447266,0
477,4770021,0.09754719585180283,0.003654730971902609,-0.9918889403343201,-0.4245387017726898,-0.25245174765586853,0.8673243522644043,31.128591537475586,-10.312756538391113,41.580345153808594,0
478,4779970,0.036419957876205444,0.006628287956118584,-0.9909753799438477,0.8215457797050476,0.09379938244819641,-1.0968843698501587,30.610851287841797,-8.837303161621094,37.69354248046875,0
479,4789772,0.005571565590798855,0.04221593216061592,-1.0190205574035645,0.38373714685440063,0.19989433884620667,-0.08734682202339172,30.313919067382812,-9.907654762268066,38.96340560913086,0
480,4800210,-0.13879916071891785,-0.01747191697359085,-1.017000436782837,0.22885647416114807,-0.06916884332895279,0.5704258680343628,29.742795944213867,-11.219420433044434,39.55968475341797,0
481,4809894,-0.09302638471126556,0.07594527304172516,-0.9837381839752197,-0.5440958738327026,-0.27488431334495544,-0.3885173201560974,29.81553077697754,-9.950496673583984,40.132179260253906,0
482,4820090,0.08420341461896896,-0.06898775696754456,-1.0033005475997925,-0.7782350778579712,-0.39673125743865967,0.15106648206710815,30.944459915161133,-9.724836349487305,41.58795166015625,0
483,4829742,0.01390624325722456,0.062433503568172455,-1.013944149017334,0.7861427664756775,0.3711322247982025,0.5741837620735168,31.875446319580078,-10.594815254211426,39.77758026123047,0
484,4839856,-0.07761870324611664,-0.05449620634317398,-1.0229058265686035,-0.2307865172624588,-0.21081867814064026,-0.22981703281402588,30.60978889465332,-11.254776000976562,38.032989501953125,0
485,4849976,-0.06613273173570633,0.03924064338207245,-1.0293391942977905,-0.22791214287281036,-0.03509915992617607,-0.15127341449260712,29.097375869750977,-10.232215881347656,38.73528289794922,0
486,4859860,-0.011732819490134716,-0.05139820650219917,-1.0133754014968872,-0.06956937909126282,0.19342570006847382,-0.005042127333581448,31.1099853515625,-10.715576171875,38.4112548828125,0
487,4869918,0.006012402940541506,0.011302845552563667,-0.9805808067321777,0.6436391472816467,-0.4262477159500122,0.12536561489105225,31.914236068725586,-10.664655685424805,41.122528076171875,0
488,4879872,-0.03366527333855629,-0.00876486673951149,-1.0211447477340698,-0.8231800198554993,0.16561250388622284,0.29086822271347046,30.402822494506836,-11.077536582946777,39.95424270629883,0
489,4889945,-0.05602876842021942,0.006933141499757767,-0.9882976412773132,-0.2221144139766693,-0.2733037769794464,0.05272659659385681,29.280410766601562,-10.701438903808594,40.89976119995117,0
490,4900065,-0.05776725709438324,-0.0023681826423853636,-1.003582239151001,-0.6434277296066284,-0.07442513853311539,0.3399691879749298,29.028608322143555,-8.855269432067871,39.31072235107422,0
491,4909832,-0.008783313445746899,0.017652180045843124,-0.9832339286804199,0.7470624446868896,0.8099550604820251,-0.1612538844347,31.628833770751953,-8.969854354858398,38.89220428466797,0
492,4919873,0.046486396342515945,0.07759147882461548,-1.0092774629592896,0.46386808156967163,-0.5731061100959778,-0.3499200940132141,28.289461135864258,-10.38650894165039,40.56361770629883,0
493,4930041,0.0007173141348175704,0.005787668749690056,-0.9927980303764343,1.1053951978683472,-1.238931655883789,0.3307031989097595,30.905031204223633,-9.319072723388672,40.0158576965332,0
494,4940116,0.023112257942557335,-0.00846190843731165,-1.0091954469680786,-0.6564317345619202,-0.31945884227752686,0.3574463427066803,29.753604888916016,-10.487560272216797,37.48750686645508,0
495,4950015,-0.031977925449609756,0.05495272949337959,-1.0130552053451538,0.5204963088035583,-0.2860334515571594,-0.47160807251930237,29.912382125854492,-9.451459884643555,38.61756896972656,0
496,4959735,-0.07930497825145721,-0.03342751786112785,-0.9933822154998779,1.0189909934997559,-0.4414134621620178,-0.23445983231067657,28.2017822265625,-9.924579620361328,41.148895263671875,0
497,4970057,-0.033723898231983185,-0.05916919931769371,-1.0005229711532593,-0.011936405673623085,0.2686680853366852,-0.46780267357826233,28.391704559326172,-9.590856552124023,42.36051940917969,0
498,4979918,0.028939472511410713,-0.052154503762722015,-0.9951595067977905,-0.5177879333496094,-0.0612436980009079,-1.0309157371520996,28.671855926513672,-10.81843090057373,41.226226806640625,0
499,4990039,-0.03222864493727684,-0.014772182330489159,-0.9828037619590759,0.2584165036678314,0.5240345597267151,0.2768014073371887,30.168760299682617,-9.961526870727539,39.83789825439453,0
500,5000268,0.017605261877179146,-0.04425494372844696,-1.017764687538147,0.042859483510255814,0.14990049600601196,0.15801601111888885,29.493680953979492,-9.930051803588867,39.770782470703125,0
501,5009953,-0.012958718463778496,0.023900117725133896,-0.979665994644165,0.17859596014022827,-0.795137882232666,-0.021160559728741646,28.447172164916992,-10.59858512878418,39.989471435546875,0
502,5019836,0.024426668882369995,0.015958622097969055,-1.0051530599594116,-0.4638935625553131,0.6967078447341919,0.04754454642534256,30.99823760986328,-11.686037063598633,40.2272834777832,0
503,5029991,0.05603738874197006,-0.10005483776330948,-0.9900574088096619,0.2842177152633667,-0.5924648642539978,0.03331110253930092,30.91840362548828,-10.907529830932617,39.39619064331055,0
504,5040289,0.00708908261731267,0.037797920405864716,-1.0012768507003784,0.030999982729554176,-0.39664068818092346,1.0997657775878906,29.1417236328125,-9.430765151977539,41.658226013183594,0
505,5049750,-0.03764796257019043,0.07630638778209686,-1.0013867616653442,0.10638885945081711,-0.45920005440711975,-0.4607331156730652,28.86992645263672,-10.591805458068848,39.40287780761719,0
506,5060024,-0.012834833934903145,-0.0003657332272268832,-0.9803223609924316,-0.8568235039710999,0.7781366109848022,-0.9048352241516113,29.301727294921875,-11.297533988952637,42.2116813659668,0
507,5070119,0.02520475909113884,0.03691278025507927,-1.018054485321045,0.35562676191329956,-0.5115266442298889,-0.11418876051902771,29.882638931274414,-9.644150733947754,39.72359848022461,0
508,5079980,-0.009397588670253754,-0.06930683553218842,-1.0455268621444702,-0.014199547469615936,-0.4842398464679718,0.08758831769227982,30.829593658447266,-10.31751823425293,38.234989166259766,0
509,5090111,-0.09219949692487717,-0.006902848836034536,-0.9862387776374817,0.6160300374031067,0.07636720687150955,0.07383917272090912,30.56916618347168,-10.255178451538086,39.64271545410156,0
510,5099871,-0.062003202736377716,-0.05831277370452881,-1.0178158283233643,-0.21704962849617004,-0.05204767361283302,-0.19719167053699493,29.197858810424805,-8.819317817687988,39.56167221069336,0
511,5110223,-0.009901855140924454,-0.04926770552992821,-1.0001208782196045,-0.13593034446239471,-0.14604496955871582,0.04114804044365883,30.04053497314453,-11.351922035217285,40.31670379638672,0
512,5120148,0.009925848804414272,-0.01857263594865799,-0.9861466288566589,0.6951591968536377,-0.6309406757354736,0.2239605337381363,31.68724822998047,-10.97658634185791,41.138004302978516,0
513,5130079,-0.012540369294583797,-0.019674435257911682,-0.9788818359375,-0.6868667602539062,-0.5897563695907593,-0.12269686907529831,31.344446182250977,-12.053600311279297,40.00465774536133,0
