seq,time_us,ax,ay,az,gx,gy,gz,mx,my,mz,drop_flag
0,185,-0.007555524818599224,-0.053898878395557404,-1.0050331354141235,0.46037399768829346,-0.43476060032844543,-0.10231973230838776,30.899005889892578,-9.155158996582031,38.74822998046875,0
1,9915,-0.009875749237835407,-0.03162810206413269,-0.9704526662826538,-0.07911129295825958,0.03580528497695923,0.7258408665657043,29.239946365356445,-10.770600318908691,40.585418701171875,0
2,19821,-0.020089607685804367,-0.034714654088020325,-0.9646917581558228,0.23238961398601532,-0.20035961270332336,0.24548181891441345,29.26873016357422,-9.318241119384766,40.55560302734375,0
3,29979,-0.09071274846792221,-0.004902973771095276,-0.9750482439994812,0.3279533088207245,0.7390679717063904,-0.7711079716682434,29.055294036865234,-9.5221529006958,38.18891525268555,0
4,40105,0.01464943028986454,0.0635182112455368,-0.9895531535148621,-0.23143263161182404,-1.036056637763977,-0.13327351212501526,31.475807189941406,-10.977165222167969,39.09907150268555,0
5,50009,0.0757250040769577,0.06760302186012268,-0.9483004808425903,0.2872181832790375,-0.5934747457504272,0.41960152983665466,29.47831153869629,-10.551793098449707,40.61106872558594,0
6,60196,0.04550744220614433,0.060531776398420334,-0.9590460658073425,0.1143377348780632,1.3034732341766357,-0.05415453016757965,28.886316299438477,-9.315340042114258,39.868751525878906,0
7,69795,-0.0503251813352108,0.001984769245609641,-0.9953324198722839,-0.12688452005386353,-0.46669459342956543,-0.13950027525424957,29.7939395904541,-9.453038215637207,39.69987106323242,0
8,79982,-0.019751960411667824,-0.04293006286025047,-0.9576464295387268,-0.6165512800216675,-0.029361268505454063,0.5927819013595581,29.138736724853516,-8.600744247436523,39.11347198486328,0
9,89807,0.037145622074604034,-0.09784896671772003,-1.028900146484375,-0.7979460954666138,-0.11985243856906891,1.0504404306411743,29.32704734802246,-11.076741218566895,40.100643157958984,0
10,100234,0.023084068670868874,0.07194861769676208,-0.9867966175079346,-0.040786825120449066,-0.3285922408103943,1.1176236867904663,30.829864501953125,-10.508112907409668,40.73212432861328,0
11,109987,0.12824414670467377,0.07486122101545334,-0.9864683151245117,-0.3107585608959198,-0.5088479518890381,-0.7116656303405762,29.140687942504883,-9.264156341552734,39.791561126708984,0
12,119843,0.04422364383935928,0.010262381285429,-0.9608105421066284,-0.48341479897499084,-0.3029269278049469,-0.7858244776725769,30.218584060668945,-9.979681968688965,39.098045349121094,0
13,130068,-0.028735894709825516,-0.05307498946785927,-0.968633770942688,0.31705355644226074,-0.13473518192768097,-0.3171669542789459,30.65054702758789,-10.333731651306152,40.262657165527344,0
14,139875,-0.009842381812632084,0.016605328768491745,-1.0156255960464478,0.5273050665855408,-0.43085977435112,0.634917676448822,30.490394592285156,-10.381370544433594,39.20774459838867,0
15,149863,0.07469738274812698,-0.08377660065889359,-0.99669349193573,0.22798390686511993,-0.7208631038665771,-0.3316037356853485,29.67475700378418,-10.298125267028809,40.541934967041016,0
16,160066,-0.09983782470226288,-0.11114377528429031,-0.9660683870315552,1.3060870170593262,0.7046321630477905,-0.2051568180322647,29.23883628845215,-9.202455520629883,40.831661224365234,0
17,170085,0.015218372456729412,0.02199658937752247,-1.01364004611969,-0.47699493169784546,-0.3599207401275635,0.5246370434761047,29.349397659301758,-10.36707878112793,38.93266296386719,0
18,180023,-0.010729977861046791,-0.004793273750692606,-0.9826154708862305,-0.8114272356033325,-0.5948022603988647,-0.5795972347259521,29.764720916748047,-8.192305564880371,38.93209457397461,0
19,190000,-0.05243134871125221,-0.0030278307385742664,-1.0007765293121338,-0.2475949078798294,-1.1639868021011353,0.32663118839263916,31.015535354614258,-10.656003952026367,40.74936294555664,0
20,199878,-0.06915272772312164,-0.006338877137750387,-0.9670093655586243,-0.012567995116114616,0.2634618580341339,-1.0277774333953857,29.04279899597168,-8.98945140838623,39.64527130126953,0
21,209935,-0.041662055999040604,0.0001530406007077545,-1.0203639268875122,0.13753709197044373,-1.1254643201828003,0.38045534491539,31.104162216186523,-10.190113067626953,40.61857604980469,0
22,220057,0.015807705000042915,-0.012148953042924404,-0.9973363280296326,0.15757966041564941,-0.20399057865142822,-0.7373206615447998,28.493240356445312,-10.296645164489746,41.06330871582031,0
23,229991,0.02586181089282036,-0.08282144367694855,-0.9623833298683167,0.00207247375510633,0.8312847018241882,-0.09639084339141846,29.521488189697266,-9.834415435791016,38.86751937866211,0
24,239908,0.06326273828744888,-0.0231825802475214,-0.9910847544670105,-0.6657432913780212,0.17249341309070587,0.3454877436161041,30.781742095947266,-11.633639335632324,38.22627639770508,0
25,250015,-0.02782471664249897,0.016493648290634155,-1.0170106887817383,0.5047690868377686,0.7592707872390747,0.4022713005542755,30.552175521850586,-10.081241607666016,39.60026931762695,0
26,259982,-0.014285624027252197,-0.01942390203475952,-0.968396782875061,-0.07927913963794708,-0.005839196499437094,0.5454235076904297,30.983762741088867,-10.604578018188477,39.76754379272461,0
27,269870,0.06340853869915009,-0.07545047253370285,-1.01277494430542,-0.32007545232772827,-0.34606051445007324,-0.05933915451169014,28.681503295898438,-7.8174004554748535,38.19568634033203,0
28,279705,-0.018784407526254654,-0.00732599338516593,-0.9945074319839478,0.15325810015201569,-0.3238329291343689,0.2309138923883438,31.296310424804688,-10.592175483703613,40.62575149536133,0
29,289761,0.0014121028361842036,0.014775831252336502,-1.0104647874832153,-0.7426184415817261,0.85484778881073,0.6642693877220154,30.40172576904297,-9.640146255493164,40.678287506103516,0
30,299995,-0.03163944184780121,0.029353497549891472,-1.0077952146530151,0.8184446096420288,0.3339199125766754,0.21622250974178314,29.282455444335938,-10.16203784942627,39.84861373901367,0
31,310135,-0.01094852201640606,-0.02726038172841072,-0.9560200572013855,0.21625584363937378,0.8737815022468567,0.45997950434684753,30.288841247558594,-9.570287704467773,39.21918487548828,0
32,319857,-0.0026915078051388264,0.007013590540736914,-0.9926053285598755,-1.5102814435958862,0.8681449294090271,0.33904242515563965,29.168420791625977,-11.396008491516113,39.7448844909668,0
33,330067,-0.03354325518012047,0.015160252340137959,-1.0211130380630493,0.9915074706077576,0.6021775603294373,-0.4459608495235443,30.978403091430664,-9.515789031982422,41.11215591430664,0
34,340040,0.09979662299156189,0.06476379185914993,-0.9980923533439636,0.5468990802764893,-1.2506266832351685,1.1237385272979736,33.13608932495117,-10.73482894897461,40.609283447265625,0
35,350205,-0.02768334560096264,-0.048490505665540695,-0.9942349791526794,-1.4645938873291016,-0.6189388632774353,0.07853173464536667,29.387975692749023,-10.331855773925781,38.789878845214844,0
36,360001,0.02274514175951481,-0.015427155420184135,-1.0241400003433228,-0.4863179922103882,0.3808470070362091,-0.4638218283653259,30.85601234436035,-11.873591423034668,38.40019989013672,0
37,370267,0.0657728910446167,0.06533916294574738,-0.9959999918937683,-0.6526703834533691,-0.6610292196273804,-0.629243791103363,29.59380340576172,-9.971985816955566,40.03690719604492,0
38,379882,-0.02997586317360401,0.014418715611100197,-1.0326941013336182,-0.10898452997207642,-0.4427894353866577,0.2507626712322235,30.848527908325195,-10.646464347839355,40.37678146362305,0
39,389996,0.053636204451322556,0.014782657846808434,-0.9733850955963135,0.02062816172838211,0.6684759259223938,-0.2782343924045563,29.87337875366211,-8.599520683288574,40.83285140991211,0
40,400005,-0.03027309849858284,-0.10992471128702164,-1.007272720336914,-0.6110595464706421,-0.05289749428629875,0.15792977809906006,31.36819076538086,-10.042009353637695,40.19929122924805,0
41,410106,-0.026627397164702415,-0.017969796434044838,-1.0173583030700684,0.4773710072040558,0.13370230793952942,-0.41920530796051025,29.61716651916504,-9.582758903503418,39.57980728149414,0
42,420119,0.07300057262182236,-0.014972071163356304,-1.006507396697998,0.055911336094141006,-0.48896101117134094,-0.0038065905682742596,28.348499298095703,-10.60744857788086,40.346771240234375,0
43,430002,-0.039876967668533325,-0.02506832964718342,-1.0168180465698242,0.24637532234191895,-0.11094331741333008,0.7213061451911926,28.586814880371094,-10.688436508178711,38.636714935302734,0
44,439908,0.09996586292982101,0.06752407550811768,-0.99637770652771,-0.0620725192129612,0.08374449610710144,-0.2783219814300537,29.9389705657959,-9.80532455444336,41.865325927734375,0
45,450057,-0.0009697307250462472,-0.04058569297194481,-0.9750800728797913,0.3499019742012024,0.03694017231464386,0.5797528624534607,29.368980407714844,-11.418551445007324,39.94257354736328,0
46,459824,-0.023393085226416588,0.062879778444767,-0.992338240146637,-0.7666909098625183,0.6085819602012634,0.3000446557998657,30.408676147460938,-10.08877182006836,38.01677322387695,0
47,469898,0.007099376525729895,-0.027011943981051445,-1.0242372751235962,0.17813590168952942,0.7642215490341187,0.17890645563602448,29.075838088989258,-10.270026206970215,37.702884674072266,0
48,480068,0.05062291398644447,0.01268705353140831,-1.048248291015625,0.20480066537857056,0.6823581457138062,-0.30380046367645264,31.974416732788086,-8.822036743164062,40.366920471191406,0
49,490039,-0.013932921923696995,-0.059270698577165604,-0.992455780506134,0.6878772974014282,0.7838796973228455,-0.15188157558441162,28.028505325317383,-10.23780345916748,39.11570739746094,0
50,500239,-0.036125294864177704,0.10318655520677567,-1.0152966976165771,0.22714965045452118,0.018941476941108704,-0.07047538459300995,29.58197021484375,-10.095549583435059,39.414588928222656,0
51,510231,-0.05145975202322006,-0.06138158217072487,-1.0296493768692017,0.47752106189727783,-0.167817160487175,0.8751882910728455,29.74399757385254,-9.35624885559082,39.40407180786133,0
52,520036,-0.010432061739265919,0.007668477948755026,-1.0106760263442993,-0.09723316878080368,0.10150670260190964,-0.5387609004974365,31.223793029785156,-9.179265022277832,39.930870056152344,0
53,529790,-0.08072317391633987,-0.03812558576464653,-1.0004199743270874,0.23481591045856476,-0.42480480670928955,-0.4257351756095886,29.427845001220703,-9.525960922241211,40.730281829833984,0
54,539906,-0.020910106599330902,0.11588101834058762,-1.0044498443603516,-0.8092779517173767,-0.8060334920883179,0.38942962884902954,32.25466537475586,-10.364397048950195,39.94732666015625,0
55,550280,0.04226231202483177,0.060421835631132126,-0.9801164269447327,0.39329418540000916,-0.6413910984992981,0.31018760800361633,30.578140258789062,-9.604643821716309,40.724281311035156,0
56,560318,0.17882688343524933,-0.02879125252366066,-0.997618556022644,-0.20295342803001404,-1.2045564651489258,0.21387863159179688,28.8696346282959,-11.147884368896484,39.07257843017578,0
57,570118,0.028806649148464203,0.028146572411060333,-0.9797467589378357,-0.141654372215271,-0.35399940609931946,-0.2861683666706085,29.70535659790039,-9.757111549377441,40.62699890136719,0
58,579896,-0.03191685304045677,0.006320773623883724,-0.983980119228363,0.14933589100837708,-0.0789908841252327,0.22353239357471466,29.685155868530273,-11.004714012145996,39.1182861328125,0
59,590257,0.056899022310972214,-0.0026184958405792713,-0.9689461588859558,-0.14105269312858582,0.5612002015113831,0.6567018032073975,30.518566131591797,-9.707808494567871,40.48506546020508,0
60,599875,-0.062026623636484146,0.036849942058324814,-1.0160746574401855,-0.5279949307441711,1.0464738607406616,-0.7364888191223145,28.805343627929688,-10.01279354095459,42.52961730957031,0
61,609966,-0.02660319209098816,0.057788729667663574,-0.9692828059196472,-0.691322922706604,-0.8886342644691467,-0.0474715456366539,29.400184631347656,-9.47659683227539,40.62682342529297,0
62,620009,0.03822827339172363,0.015616505406796932,-1.0245441198349,0.11473172158002853,0.09150554984807968,-0.27369797229766846,28.732023239135742,-10.494169235229492,40.723751068115234,0
63,630001,0.08350611478090286,0.028282402083277702,-0.9700676202774048,-0.06144029647111893,-0.035109397023916245,-0.049800384789705276,30.910707473754883,-9.317605018615723,40.04313659667969,0
64,639852,0.032809555530548096,0.05002513527870178,-1.035474181175232,-0.5880070328712463,-0.36808040738105774,-0.06516928225755692,28.957517623901367,-10.855018615722656,40.835693359375,0
65,650368,-0.04634810984134674,-0.0450112521648407,-1.0312646627426147,-0.4813692271709442,-0.13859426975250244,1.2621406316757202,29.151535034179688,-10.895411491394043,40.07378005981445,0
66,660114,-0.055443599820137024,0.006953970529139042,-1.0090148448944092,-0.5524539947509766,0.5295542478561401,0.18040497601032257,29.402042388916016,-8.949239730834961,42.013004302978516,0
67,669699,0.024656975641846657,0.0518203005194664,-1.0197087526321411,0.05305261164903641,-0.4043806493282318,-0.37967997789382935,28.881723403930664,-9.60818099975586,42.44094467163086,0
68,680000,-0.0178790595382452,0.04067954421043396,-1.0162099599838257,0.062113407999277115,0.4414058029651642,-0.316437691450119,30.30630111694336,-8.864487648010254,40.15298843383789,0
69,689844,-0.03223510459065437,-0.018955184146761894,-1.0273772478103638,-1.0623047351837158,0.18893499672412872,0.46694567799568176,29.446840286254883,-9.603534698486328,40.421478271484375,0
70,699893,0.13881491124629974,-0.0668223574757576,-1.0079325437545776,0.930161714553833,-0.38353267312049866,-0.5446876883506775,28.392642974853516,-8.0411376953125,40.36251449584961,0
71,710054,-0.03014301136136055,-0.03207989037036896,-0.991905689239502,-0.3466750383377075,0.1434188038110733,-0.00848587416112423,30.218669891357422,-9.654013633728027,40.584861755371094,0
72,719999,0.04126478731632233,-0.056314222514629364,-1.0039691925048828,0.5588792562484741,0.035275526344776154,-0.173875093460083,29.579864501953125,-10.988293647766113,38.86547088623047,0
73,729868,-0.06143258512020111,-0.06768590956926346,-0.9716483950614929,0.08441796898841858,0.29182860255241394,-0.7575775980949402,29.736495971679688,-9.851547241210938,41.15328598022461,0
74,740152,-0.018873361870646477,0.040919192135334015,-1.0221045017242432,-0.6649790406227112,-0.4931120276451111,-0.3848150670528412,31.51618194580078,-9.537667274475098,38.97628402709961,0
75,749987,-0.021849850192666054,-0.051698584109544754,-0.9750166535377502,4.501684452407062e-05,0.35926589369773865,0.2560136318206787,30.138755798339844,-9.505636215209961,39.83963394165039,0
76,759949,0.04232446849346161,0.04365594685077667,-0.972221314907074,-0.28329843282699585,-0.18704618513584137,-0.4625323414802551,29.707626342773438,-11.529314041137695,40.8812141418457,0
77,769976,0.0006635900354012847,0.010900609195232391,-0.9921766519546509,0.4847484529018402,0.6696261167526245,-0.35253655910491943,29.450712203979492,-11.092525482177734,40.240272521972656,0
78,780071,0.022645393386483192,0.0445341020822525,-0.9876971244812012,0.12291432917118073,0.4538709819316864,0.6717945337295532,31.298709869384766,-9.485869407653809,40.915565490722656,0
79,789783,0.07794108241796494,-0.023505879566073418,-0.9995110630989075,0.3199962079524994,-0.0649263933300972,-0.1315087378025055,29.43712043762207,-9.01732349395752,39.573516845703125,0
80,800075,-0.01710815727710724,0.024474257603287697,-0.9841399788856506,-0.49800410866737366,0.21875280141830444,0.4685569405555725,28.856334686279297,-9.666749000549316,38.712425231933594,0
81,809924,0.04936222732067108,0.0010767665226012468,-1.0294911861419678,-0.04887538403272629,0.5954754948616028,-0.22622887790203094,30.03997039794922,-11.065119743347168,39.29541015625,0
82,819819,0.015050000511109829,0.03266414254903793,-1.020282506942749,0.4915015995502472,0.7344368696212769,0.09701050072908401,31.768878936767578,-9.50190544128418,38.95257568359375,0
83,830063,0.008861000649631023,0.06033515930175781,-1.0213931798934937,1.1075730323791504,-0.9092745780944824,-0.35835057497024536,27.7380428314209,-11.093925476074219,40.32955551147461,0
84,839977,-0.004468412604182959,-0.02414659596979618,-1.0321255922317505,0.15704374015331268,0.19906489551067352,0.3676285147666931,29.883468627929688,-10.76829719543457,41.28335952758789,0
85,849777,0.14580900967121124,-0.004332999233156443,-1.0311129093170166,-0.3489091992378235,-0.4909609258174896,-0.360725462436676,30.776329040527344,-10.572198867797852,38.68718719482422,0
86,859914,0.0028328869957476854,0.003225284395739436,-1.0095949172973633,0.5937444567680359,-0.6883170008659363,0.6636120080947876,28.459991455078125,-9.820691108703613,40.27111053466797,0
87,870104,0.021271923556923866,-0.06817488372325897,-1.0126498937606812,-0.5693509578704834,-0.594017505645752,-0.39660510420799255,29.09815216064453,-9.956561088562012,40.42424011230469,0
88,880082,-0.03302856534719467,-0.020578626543283463,-1.0446559190750122,-0.0055087860673666,-0.8731169104576111,-0.29353123903274536,30.82160186767578,-11.29777717590332,41.58061599731445,0
89,890170,0.03795776143670082,0.015528739430010319,-1.0053064823150635,-0.6088540554046631,-0.3691220283508301,0.1281241625547409,29.886415481567383,-10.191412925720215,39.91997528076172,0
90,900341,-0.037374723702669144,0.04666382446885109,-1.0038461685180664,0.6444128155708313,-0.012628475204110146,0.49724826216697693,30.436025619506836,-9.942310333251953,39.78219223022461,0
91,910005,0.0678136795759201,0.045791979879140854,-1.0020694732666016,-0.34597763419151306,0.3337947726249695,-0.585467517375946,29.947580337524414,-10.974074363708496,40.64256286621094,0
92,919948,0.05540444701910019,-0.038122452795505524,-0.9916641712188721,-0.45170435309410095,1.2414168119430542,-0.4624190032482147,29.009489059448242,-10.454045295715332,39.245723724365234,0
93,929841,-0.05791330710053444,0.026504134759306908,-1.0024038553237915,0.3377104103565216,-0.648159384727478,0.57911616563797,29.553438186645508,-11.009016990661621,39.97385787963867,0
94,939801,-0.03965124115347862,-0.002840863773599267,-0.9765663743019104,0.047467976808547974,-0.09222716093063354,0.4376382529735565,28.488540649414062,-9.694738388061523,40.3079948425293,0
95,949958,0.012640940956771374,-0.1913488805294037,-1.015740990638733,0.22796081006526947,-0.40429896116256714,-0.5508243441581726,30.34964942932129,-9.921968460083008,40.06490707397461,0
96,959963,0.025833215564489365,-0.0632602870464325,-0.9898608326911926,-0.6046542525291443,0.5181625485420227,0.28554287552833557,28.982894897460938,-11.619132995605469,39.95714569091797,0
97,970039,-0.04232703894376755,0.06536390632390976,-0.9810383319854736,0.6059381365776062,-0.04278157651424408,0.8581854701042175,29.371551513671875,-9.808757781982422,40.25614547729492,0
98,980134,0.08991121500730515,-0.07625303417444229,-0.9679480195045471,-0.5819619297981262,-0.2774326205253601,-0.23598897457122803,31.233015060424805,-8.965075492858887,40.19975280761719,0
99,990114,0.05396701768040657,-0.023261088877916336,-0.9915831685066223,-0.1939658522605896,-0.1879940629005432,0.9244540333747864,29.08198356628418,-9.651853561401367,39.74747848510742,0
100,999955,-0.0220530703663826,-0.0010854993015527725,-0.9832404255867004,-0.4724905490875244,-0.18961980938911438,-0.06798876076936722,29.230709075927734,-10.01428508758545,39.62205505371094,0
101,1009859,-0.028777586296200752,-0.05740034580230713,-0.9998637437820435,-0.12364641577005386,0.243267223238945,-0.07095904648303986,30.117115020751953,-10.780811309814453,40.29033279418945,0
102,1020301,0.011468378826975822,-0.020549776032567024,-1.0012365579605103,0.20838770270347595,0.6596176624298096,0.8326039910316467,30.669992446899414,-9.611198425292969,39.329322814941406,0
103,1029835,0.01001056283712387,0.029174378141760826,-0.986906886100769,0.41155505180358887,0.025728745386004448,0.7309268116950989,28.292097091674805,-11.779085159301758,40.38479995727539,0
104,1040069,-0.09298813343048096,0.008603815920650959,-0.9803693294525146,-0.37963375449180603,0.4026505947113037,-0.24951201677322388,28.65509033203125,-9.134997367858887,38.576881408691406,0
105,1050041,-0.1201692596077919,-0.01028846949338913,-0.9921424388885498,0.3238793611526489,0.18893598020076752,0.4119868278503418,31.245018005371094,-9.70343017578125,39.73194122314453,0
106,1059880,0.0879807323217392,-0.015559680759906769,-1.0083025693893433,-0.33014893531799316,-0.4222450852394104,0.4158196747303009,31.412508010864258,-7.5423502922058105,41.182533264160156,0
107,1069862,-0.00454872939735651,-0.04470853507518768,-0.9803906083106995,1.4441229104995728,0.12631744146347046,0.8968870639801025,31.580305099487305,-9.899786949157715,38.84477233886719,0
108,1080031,0.043140728026628494,-0.04202725738286972,-1.0152274370193481,0.6785944104194641,0.22896122932434082,0.12896618247032166,32.57208251953125,-10.322776794433594,38.990474700927734,0
109,1090020,-0.04177660122513771,0.01862945966422558,-0.981947660446167,-0.4571482539176941,-0.07186883687973022,0.37308162450790405,28.556533813476562,-8.771379470825195,40.176124572753906,0
110,1099750,0.09107019007205963,-0.025497794151306152,-1.0462003946304321,0.5504555702209473,0.5244861841201782,-0.07885207235813141,28.21246337890625,-8.700370788574219,41.40385818481445,0
111,1109982,-0.09651023149490356,0.04728184640407562,-1.0092945098876953,0.7531961798667908,-0.25739020109176636,-0.38844650983810425,30.462491989135742,-8.73027515411377,40.5069465637207,0
112,1119714,-0.04157585650682449,-0.035615354776382446,-0.9990880489349365,-0.118358314037323,0.03226226568222046,0.16926929354667664,29.616943359375,-9.710103034973145,39.72255325317383,0
113,1129974,0.06813770532608032,0.06769652664661407,-1.014404296875,-0.23588663339614868,-0.4789295196533203,0.6611666679382324,29.514068603515625,-8.952116012573242,40.564308166503906,0
114,1139856,-0.020850809291005135,0.04499797895550728,-0.9802759289741516,-0.32277172803878784,-0.6172423362731934,0.4238816797733307,28.42780876159668,-7.935455799102783,39.286685943603516,0
115,1149847,0.00016024131036829203,0.08642663806676865,-0.990487813949585,-1.1227682828903198,0.23982207477092743,0.05646967142820358,29.852615356445312,-9.933838844299316,39.42020797729492,0
116,1159890,0.018851086497306824,-0.03666688874363899,-1.0055736303329468,1.1219916343688965,-0.25801172852516174,-0.23899014294147491,30.851909637451172,-9.734258651733398,40.06778335571289,0
117,1169917,-0.04807513579726219,0.01881854236125946,-1.0299272537231445,-0.021987710148096085,0.2608393132686615,-0.3209927976131439,28.931859970092773,-10.291533470153809,40.883392333984375,0
118,1180298,-0.011192933656275272,0.03781067579984665,-0.9638350605964661,-0.5339280366897583,0.32832711935043335,-0.009861285798251629,29.946224212646484,-9.142158508300781,41.962886810302734,0
119,1189861,-0.01420591864734888,0.007670555729418993,-1.017900824546814,-0.28083229064941406,0.41196081042289734,-1.403001070022583,31.099409103393555,-11.140701293945312,38.97004318237305,0
120,1199953,-0.007051520980894566,-0.07601748406887054,-0.9807118773460388,0.35531458258628845,0.19142094254493713,0.2944396734237671,28.60915184020996,-9.663431167602539,40.61726379394531,0
121,1210223,-0.048129256814718246,0.09906118363142014,-1.0147185325622559,-0.05024455487728119,-0.5855703353881836,-0.19143249094486237,29.65666389465332,-10.928109169006348,39.31414794921875,0
122,1219975,-0.01829732581973076,-0.011422357521951199,-0.9817805886268616,-0.2242579311132431,-0.4688088297843933,-0.08096640557050705,30.35918617248535,-9.948080062866211,41.73563766479492,0
123,1230100,-0.06553392857313156,-0.03801935911178589,-1.0115907192230225,-0.7995491623878479,0.26916542649269104,-0.057555146515369415,29.093183517456055,-10.47346019744873,40.511962890625,0
124,1240119,0.03569239750504494,0.005889558233320713,-0.9945102334022522,-0.902898371219635,-1.0217809677124023,0.3344639539718628,29.577226638793945,-9.401240348815918,39.07741928100586,0
125,1250101,-0.0338902473449707,0.07885884493589401,-1.0092357397079468,-0.26273927092552185,0.31614404916763306,0.10954281687736511,30.578811645507812,-10.511826515197754,41.55826950073242,0
126,1259863,-0.09607068449258804,0.019705714657902718,-1.0056196451187134,0.4711282551288605,0.5733560919761658,-0.15297698974609375,28.948028564453125,-11.136279106140137,40.2597541809082,0
127,1270001,0.06923440843820572,-0.009434525854885578,-1.037152647972107,-0.2871967852115631,0.08158204704523087,-0.4828793406486511,29.80177116394043,-8.795764923095703,37.96977615356445,0
128,1279920,0.043061546981334686,-0.062387626618146896,-1.0430200099945068,0.06359848380088806,-0.1845245063304901,0.2416142076253891,30.636547088623047,-9.940162658691406,39.84516906738281,0
129,1289971,-0.04219173267483711,-0.06560831516981125,-1.006301760673523,-0.3828526437282562,-0.007966109551489353,-0.3583245575428009,30.277761459350586,-10.718270301818848,39.520103454589844,0
130,1300091,0.0025289517361670732,-0.000657620606943965,-0.9884691834449768,0.3998986482620239,1.415926456451416,-0.3026462197303772,29.192607879638672,-9.818678855895996,40.34458541870117,0
131,1309939,-0.004694952629506588,-0.04305415228009224,-1.0240017175674438,-0.016248874366283417,-0.2808245122432709,0.00974650401622057,29.669189453125,-9.739771842956543,39.9425048828125,0
132,1319950,0.04958885535597801,0.024307960644364357,-1.012321949005127,-0.6076885461807251,0.9052093029022217,0.46778950095176697,29.12542724609375,-10.172394752502441,39.301361083984375,0
133,1330121,0.022193249315023422,0.029571035876870155,-0.9672293663024902,0.14360252022743225,-0.42877674102783203,0.5160846710205078,30.862567901611328,-9.065727233886719,39.246219635009766,0
134,1339924,0.059476397931575775,-0.033940404653549194,-1.011953353881836,-0.03764767572283745,-0.13950186967849731,-0.0716341882944107,31.457672119140625,-11.745789527893066,41.26433181762695,0
135,1349943,0.08166887611150742,-0.025459961965680122,-0.9717810750007629,0.3340213894844055,-0.38367390632629395,0.6127212047576904,30.518535614013672,-11.209632873535156,39.384178161621094,0
136,1359891,0.09207688271999359,0.07789190858602524,-1.0262863636016846,0.08692295849323273,0.3672468364238739,0.09659703075885773,31.421480178833008,-9.868861198425293,40.43197250366211,0
137,1369855,-0.017129316926002502,-0.02898467890918255,-1.0336098670959473,-0.8950130939483643,-0.6466412544250488,-0.7651006579399109,30.28359031677246,-9.7149076461792,38.371768951416016,0
138,1379961,0.029285553842782974,0.12984809279441833,-0.9932420253753662,-0.5198436379432678,-0.3010231554508209,0.349627822637558,30.275724411010742,-10.965313911437988,38.796653747558594,0
139,1389997,0.06833111494779587,0.0188626479357481,-1.0064709186553955,1.3429386615753174,-0.7610886096954346,-0.3049701452255249,31.12107276916504,-10.248181343078613,40.100677490234375,0
140,1400110,-0.11692985892295837,-0.029403546825051308,-1.0038604736328125,0.02682807669043541,-0.04781853407621384,-0.09254302829504013,29.726215362548828,-9.525045394897461,40.3530158996582,0
141,1409984,0.0077341292053461075,0.0684117004275322,-0.9978342056274414,0.697644054889679,-0.33728522062301636,-0.07312125712633133,31.850040435791016,-9.506587982177734,39.91645050048828,0
142,1419756,-0.006578481290489435,-0.032008614391088486,-0.9994558095932007,-0.23919448256492615,-0.12998060882091522,0.4845348000526428,30.703155517578125,-10.693647384643555,39.738956451416016,0
143,1430045,0.008426494896411896,-0.010072723962366581,-0.9956023693084717,-0.29334205389022827,0.15705835819244385,-0.47762373089790344,29.919740676879883,-10.40964126586914,39.71453094482422,0
144,1440371,-0.005623925477266312,0.035073138773441315,-0.9664497971534729,-0.17788341641426086,0.29404520988464355,-0.6912498474121094,27.530704498291016,-10.103501319885254,41.616859436035156,0
145,1449882,0.015965299680829048,0.028954336419701576,-1.0266135931015015,-0.059611622244119644,0.6102020740509033,-0.08078578859567642,29.64410972595215,-9.231290817260742,40.40556716918945,0
146,1460115,-0.03628900647163391,-0.06172126159071922,-1.0355737209320068,-0.3661724030971527,-0.3523094952106476,0.4221070110797882,31.67191505432129,-9.662750244140625,41.43344497680664,0
147,1469857,0.004182786215096712,0.028061410412192345,-1.0012569427490234,0.5862928032875061,-0.9127060174942017,0.8830763101577759,29.323299407958984,-11.578630447387695,39.70022964477539,0
148,1480255,-0.02427816577255726,-0.15710163116455078,-1.0179895162582397,0.19355756044387817,-0.4522005319595337,-0.44592493772506714,30.497142791748047,-11.913702011108398,40.36469268798828,0
149,1489765,0.07665112614631653,-0.02419019117951393,-0.9827907085418701,0.20817115902900696,-0.6727983951568604,0.24956125020980835,31.245357513427734,-9.941540718078613,40.145545959472656,0
150,1500009,-0.01291611511260271,-0.00555702717974782,-1.0381226539611816,0.3764621615409851,-0.044417187571525574,0.14377841353416443,30.641475677490234,-10.690703392028809,39.12246322631836,0
151,1509734,0.023404795676469803,-0.03236798942089081,-1.003343105316162,0.6273507475852966,-0.8022221326828003,0.20366783440113068,29.335512161254883,-9.828415870666504,39.78438949584961,0
152,1519933,0.011614871211349964,0.02251501940190792,-1.0046610832214355,-0.36276698112487793,-0.12600944936275482,0.6750462651252747,30.61016082763672,-11.524571418762207,39.11800003051758,0
153,1529899,-0.06014704704284668,-0.07760809361934662,-1.0389670133590698,0.7295921444892883,0.5866082906723022,-0.32367661595344543,28.605632781982422,-10.155908584594727,40.75576400756836,0
154,1539909,-0.01763436757028103,0.03063056990504265,-0.9891733527183533,-0.27595165371894836,-0.17651350796222687,0.9000194072723389,30.265892028808594,-11.309832572937012,41.211612701416016,0
155,1549812,-0.02254042774438858,0.047953832894563675,-0.9939242005348206,0.10269486159086227,-0.13283291459083557,-0.2827746570110321,30.95551300048828,-9.768904685974121,39.34698486328125,0
156,1559940,0.02586304023861885,0.033531904220581055,-0.9844975471496582,-0.1394646316766739,-0.5963112115859985,0.19666408002376556,29.72848892211914,-10.397905349731445,38.714210510253906,0
157,1569999,-0.03359711170196533,0.01078266091644764,-0.9820077419281006,0.5919514894485474,0.4418613016605377,0.46444225311279297,27.33309555053711,-9.77303409576416,41.140220642089844,0
158,1580125,-0.04629133641719818,0.022017603740096092,-1.031188726425171,-0.10177215188741684,0.28433558344841003,0.08966799825429916,30.024473190307617,-10.38643741607666,39.44032669067383,0
159,1589910,-0.007495475932955742,0.014029902406036854,-1.0259610414505005,0.4421696364879608,0.7890572547912598,0.8691418766975403,29.266664505004883,-11.504061698913574,39.836708068847656,0
160,1600163,0.02190314792096615,-0.025502998381853104,-1.016497254371643,-0.7882674932479858,-0.34809109568595886,0.8202322721481323,30.498443603515625,-9.731902122497559,38.93442153930664,0
161,1609859,0.013872447423636913,-0.03791368007659912,-1.0184060335159302,0.30862119793891907,0.2519492506980896,0.2442167103290558,29.174278259277344,-10.176591873168945,41.20901870727539,0
162,1620040,-0.015457166358828545,-0.05914444848895073,-0.9966819286346436,0.26641714572906494,0.24358369410037994,-0.32282474637031555,30.06119728088379,-9.761032104492188,38.490150451660156,0
163,1630007,-0.06899678707122803,-0.031648408621549606,-1.0157392024993896,-0.21471650898456573,0.3163684606552124,0.476235955953598,30.303142547607422,-8.676178932189941,38.69938278198242,0
164,1640054,-0.05766909942030907,0.039750851690769196,-1.0246260166168213,1.3066445589065552,-0.4165002703666687,-0.03173752501606941,30.3759765625,-9.95207405090332,40.61249923706055,0
165,1650139,-0.053349073976278305,-0.041297584772109985,-1.0114500522613525,-0.12554924190044403,0.3884452283382416,0.21597374975681305,27.527801513671875,-7.94538688659668,40.1854362487793,0
166,1659953,-0.026973627507686615,-0.03345920890569687,-0.9877678751945496,-0.09343630075454712,0.4868614077568054,-0.16098713874816895,28.616971969604492,-10.143163681030273,41.389888763427734,0
167,1670025,-0.009890862740576267,-0.038856055587530136,-0.9729227423667908,-0.454651415348053,0.49492740631103516,0.9198093414306641,32.70008087158203,-9.772635459899902,41.2486457824707,0
168,1680076,0.027170466259121895,-0.02841561660170555,-1.053187370300293,-0.7062906622886658,0.2244860827922821,0.6049879193305969,31.032094955444336,-10.369979858398438,41.61277389526367,0
169,1690094,0.0036771262530237436,0.04975267872214317,-0.9924405217170715,-0.03681110963225365,0.3898265063762665,0.3434803783893585,31.401357650756836,-9.297041893005371,40.48027801513672,0
170,1700047,-0.0009946064092218876,-0.03531105816364288,-0.9670388698577881,0.7641457915306091,0.21675825119018555,-0.6333447694778442,29.773006439208984,-9.922188758850098,39.747093200683594,0
171,1710000,0.0055038840509951115,0.0025857053697109222,-0.9745569825172424,-0.2161598801612854,0.36930882930755615,-0.007885667495429516,29.31650733947754,-10.253918647766113,41.26451110839844,0
172,1719701,-0.047058384865522385,0.028571534901857376,-1.002799391746521,-0.7589630484580994,0.6439491510391235,-0.14137053489685059,30.829050064086914,-8.97309684753418,39.31868362426758,0
173,1729863,-0.02175653539597988,0.04744147136807442,-1.0133309364318848,0.5135310292243958,-0.6454708576202393,-0.9625291228294373,29.98955535888672,-8.789711952209473,41.272064208984375,0
174,1740172,-0.020573778077960014,0.0008542158757336438,-1.003129005432129,-0.18164144456386566,0.26799196004867554,-0.2931000590324402,32.35060501098633,-11.07572078704834,39.20634078979492,0
175,1750240,0.03778496012091637,0.06051253527402878,-0.9886240363121033,-0.1291414052248001,-0.1507136970758438,0.306537926197052,29.906024932861328,-9.638909339904785,39.61232376098633,0
176,1760000,0.021086178719997406,0.06215594336390495,-0.9735224843025208,0.6402307748794556,-1.1969447135925293,0.3511759340763092,29.509140014648438,-10.725519180297852,41.17729187011719,0
177,1770121,-0.05443686619400978,-0.04363036900758743,-1.013787865638733,0.5488477945327759,-0.004552406258881092,-0.7495195269584656,28.880821228027344,-8.463399887084961,39.702293395996094,0
178,1780039,0.04896479845046997,-0.03383969888091087,-0.987592875957489,0.40115171670913696,-0.12827005982398987,-0.3988220691680908,31.431936264038086,-9.06120491027832,41.109676361083984,0
179,1790091,0.026572108268737793,-0.03360402211546898,-0.9845178127288818,0.9447201490402222,-0.2669576406478882,-0.2644624710083008,30.932268142700195,-9.77706241607666,39.90668869018555,0
180,1799872,-0.04524775594472885,0.05277038738131523,-0.9758856892585754,1.1293277740478516,-0.08939430117607117,0.2710709869861603,31.52472496032715,-9.847125053405762,39.62114334106445,0
181,1809899,-0.05810767412185669,0.020487457513809204,-1.0305016040802002,-0.2765933573246002,-0.7877741456031799,0.3250229060649872,27.78774070739746,-10.456692695617676,40.427371978759766,0
182,1820082,-0.0756881833076477,0.08286937326192856,-1.032516598701477,-0.1313762366771698,-0.014046096242964268,-0.17965564131736755,28.59479522705078,-9.20515251159668,39.20161437988281,0
183,1830022,-0.10220129042863846,-0.006760016083717346,-1.0068161487579346,-0.2550208270549774,0.07783589512109756,-0.3538467586040497,29.13422393798828,-11.39867115020752,41.0328369140625,0
184,1840168,0.015922384336590767,0.002998405136168003,-1.0220643281936646,-0.5294795036315918,0.2596869468688965,-0.4544357359409332,31.286142349243164,-10.105692863464355,41.06773376464844,0
185,1850017,-0.05356965586543083,-0.03794340789318085,-1.0103896856307983,-0.1603420525789261,-0.006765923462808132,0.36678221821784973,28.677534103393555,-10.796010971069336,38.90435791015625,0
186,1860198,0.044428225606679916,0.0068866172805428505,-0.9800481796264648,-0.19218775629997253,0.18240010738372803,-0.6689336895942688,29.236371994018555,-9.310064315795898,38.72705841064453,0
187,1870230,-0.04468342289328575,-0.03763127699494362,-0.9929731488227844,-0.10383378714323044,-0.34120839834213257,1.5432686805725098,29.441333770751953,-9.183100700378418,41.900516510009766,0
188,1880097,0.07569582015275955,-0.03241642192006111,-0.9787446856498718,-0.23195505142211914,-0.14988070726394653,-0.3186551034450531,30.855934143066406,-9.562911033630371,40.26287841796875,0
189,1889824,-0.008893209509551525,-0.011529599316418171,-0.9951652884483337,-0.4987334907054901,-0.26978129148483276,0.5454213619232178,30.95946502685547,-9.60549545288086,39.38444519042969,0
190,1900040,-0.03408391401171684,0.0850476399064064,-1.03397798538208,0.27816611528396606,0.33088117837905884,-0.3462694585323334,29.115243911743164,-8.318235397338867,39.04472732543945,0
191,1910137,-0.06013062596321106,-0.00791768915951252,-1.0215532779693604,-0.3337830901145935,1.214454174041748,-0.9419683814048767,27.32946014404297,-9.753146171569824,40.77943801879883,0
192,1920106,0.04340732842683792,0.02041107602417469,-1.0088378190994263,0.12332058697938919,0.3187713325023651,-0.7012025713920593,30.445775985717773,-9.836980819702148,40.18998718261719,0
193,1929934,-0.003438703715801239,0.016640136018395424,-1.0192173719406128,0.01293555274605751,0.1439092457294464,0.2113932967185974,29.573348999023438,-11.133196830749512,39.339569091796875,0
194,1940040,-0.013403516262769699,0.11930131912231445,-1.0102765560150146,0.007197917439043522,-0.03575628250837326,0.14931954443454742,29.738754272460938,-10.489725112915039,41.57794189453125,0
195,1949962,-0.03171242028474808,0.06117071583867073,-1.0415349006652832,0.8116850256919861,0.5884118676185608,-0.5522734522819519,30.03879165649414,-10.17737102508545,39.39540100097656,0
196,1959940,0.0469079464673996,-0.05641692876815796,-0.9991475343704224,-0.357435017824173,-1.5463414192199707,-0.06339778006076813,30.48885726928711,-9.660852432250977,40.123924255371094,0
197,1970130,-0.04235875979065895,-0.02906295284628868,-1.037325382232666,0.1417495608329773,0.2768438756465912,-0.16612131893634796,27.029552459716797,-8.512112617492676,38.31325149536133,0
198,1980123,0.022511878982186317,0.02098640240728855,-1.0141018629074097,0.007806613575667143,-0.1851951777935028,-1.0087170600891113,30.30640411376953,-9.62693977355957,39.06174087524414,0
199,1990002,-0.06843074411153793,0.008900688029825687,-1.0024398565292358,0.36878684163093567,-0.40492549538612366,0.09210064262151718,30.76922035217285,-9.036089897155762,40.60378646850586,0
200,1999897,0.1104925200343132,-0.03997117653489113,-0.9932487607002258,-0.2856697142124176,0.9482173919677734,0.2985171675682068,30.794532775878906,-11.321524620056152,39.91041946411133,0
201,2010044,-0.04239124804735184,-0.11009199917316437,-0.9759857654571533,0.11162936687469482,-0.040154166519641876,-0.09041756391525269,29.042146682739258,-9.719789505004883,38.43327331542969,0
202,2019936,0.058798015117645264,-0.025051310658454895,-0.9978943467140198,-0.2313636988401413,0.002129011321812868,0.7764714360237122,30.07160186767578,-9.146774291992188,41.37758255004883,0
203,2030137,0.035473842173814774,-0.02747766114771366,-0.9914157390594482,-0.06056365370750427,-0.08751365542411804,0.010471866466104984,27.530662536621094,-9.536149024963379,42.14296340942383,0
204,2040049,0.044425249099731445,-0.0014764302177354693,-1.006758213043213,-0.0691179484128952,0.2193925678730011,0.6738309860229492,28.620174407958984,-9.873106956481934,40.37511444091797,0
205,2049945,-0.048185866326093674,0.042783308774232864,-0.9920039176940918,0.690264105796814,-0.3235588073730469,0.31299227476119995,29.84889793395996,-8.967153549194336,40.58869552612305,0
206,2059989,-0.03110724315047264,-0.04485497251152992,-1.0316543579101562,-0.6525561213493347,-0.3990804851055145,0.5037707090377808,29.768451690673828,-9.517122268676758,40.13804244995117,0
207,2069887,-0.006095199845731258,-0.0759468600153923,-0.9939755201339722,-0.4254251718521118,-0.3751872777938843,0.19518716633319855,30.685592651367188,-10.329660415649414,41.447261810302734,0
208,2080144,0.08997850120067596,0.025641879066824913,-0.9712297320365906,-0.35414814949035645,0.014452716335654259,0.3363966643810272,31.6450138092041,-11.157915115356445,40.32785415649414,0
209,2089873,-0.016010979190468788,0.021464712917804718,-0.9933823943138123,-0.13263490796089172,-0.1914360672235489,-0.008445286191999912,29.691810607910156,-10.858865737915039,39.71853256225586,0
210,2100003,0.06235002353787422,-0.02641705982387066,-1.0249764919281006,-0.23528093099594116,0.9001210927963257,-0.7346611618995667,30.29511070251465,-7.851905822753906,40.05664825439453,0
211,2110239,0.04822820797562599,-0.04870735853910446,-0.9761286973953247,0.4409392774105072,0.41923025250434875,-0.04844364523887634,29.55179786682129,-9.369413375854492,38.426395416259766,0
212,2119848,0.10677389800548553,0.07295950502157211,-1.0252221822738647,-0.7362314462661743,0.05034418776631355,-0.10295215249061584,31.074481964111328,-9.776504516601562,39.73533248901367,0
213,2129936,0.054513320326805115,-0.02261076495051384,-0.9865736961364746,-0.3762627840042114,-1.4032524824142456,-0.10842756181955338,29.131956100463867,-11.63980484008789,42.057804107666016,0
214,2140157,0.03800780698657036,-0.009935636073350906,-1.018049955368042,-0.10424526780843735,0.16065716743469238,-0.2272794246673584,29.63943099975586,-9.525527954101562,39.37730407714844,0
215,2149874,0.030991218984127045,0.024175409227609634,-1.0012695789337158,0.35200777649879456,0.39798492193222046,0.42662468552589417,28.822406768798828,-9.99260139465332,39.26012420654297,0
216,2160000,0.022348403930664062,0.04591495916247368,-0.9958246946334839,-0.4833435118198395,-0.015470165759325027,0.712592363357544,29.065372467041016,-8.710397720336914,37.8741455078125,0
217,2169962,0.08455515652894974,-0.04847381263971329,-1.0156984329223633,0.8328981995582581,0.12683077156543732,0.5853235721588135,30.220956802368164,-10.702691078186035,38.550472259521484,0
218,2179807,0.045475248247385025,-0.00503807608038187,-0.9905494451522827,0.2958773076534271,0.08486045151948929,0.4497036039829254,31.68650245666504,-7.520348072052002,40.307586669921875,0
219,2190021,-0.046550314873456955,0.011716587468981743,-0.991608202457428,0.532206118106842,-0.12625037133693695,-0.6814589500427246,28.121423721313477,-9.570650100708008,40.15995407104492,0
220,2199967,-0.020548341795802116,0.05620724335312843,-0.9931838512420654,0.8988797664642334,-0.6986937522888184,0.45553696155548096,31.586181640625,-8.857224464416504,38.30156326293945,0
221,2209848,0.00779128959402442,0.053033214062452316,-0.998397946357727,0.5829070806503296,-0.14015813171863556,0.548535943031311,29.90910530090332,-9.644943237304688,39.483524322509766,0
222,2219803,-0.06482776999473572,0.01240608375519514,-1.0547151565551758,-0.3226599097251892,0.39228567481040955,-0.4164166748523712,29.917301177978516,-10.861093521118164,39.465885162353516,0
223,2230025,0.09160792827606201,0.06224675849080086,-0.9956167936325073,0.13425956666469574,-0.22428707778453827,0.4320027828216553,30.08778190612793,-11.419373512268066,41.035011291503906,0
224,2240002,-0.010058972984552383,0.07118699699640274,-0.9834448099136353,0.20234975218772888,1.1402361392974854,0.6839613914489746,30.6519775390625,-8.99836540222168,37.889564514160156,0
225,2249780,0.034657999873161316,-0.006918851751834154,-1.013027548789978,-0.19466426968574524,-0.3712064027786255,0.12209900468587875,30.715396881103516,-8.82183837890625,39.91381072998047,0
226,2260005,0.05193280056118965,-0.011892792768776417,-0.9838467240333557,0.03169897571206093,0.7070242166519165,0.05761834979057312,31.822511672973633,-8.561026573181152,39.40122604370117,0
227,2269854,-0.023401064798235893,0.0008422938990406692,-1.0020214319229126,0.8994654417037964,0.8603271245956421,-0.052487410604953766,31.426206588745117,-9.487324714660645,40.26560974121094,0
228,2280020,-0.034962914884090424,-0.046939510852098465,-1.0140117406845093,-0.3860381245613098,-0.09175826609134674,0.05348915606737137,30.945663452148438,-10.686319351196289,40.63483810424805,0
229,2290023,-0.05054618790745735,-0.08275270462036133,-1.009045958518982,0.0376422256231308,-0.16796566545963287,-0.5848371982574463,31.752248764038086,-9.15408992767334,38.715606689453125,0
230,2299842,-0.00786798819899559,-0.04553739354014397,-1.0006747245788574,0.23987920582294464,0.9150081276893616,0.21598362922668457,32.191490173339844,-10.459917068481445,39.31399917602539,0
231,2310082,-0.03947509825229645,0.028929341584444046,-1.0063252449035645,-0.5841878056526184,0.019663676619529724,-0.6539899110794067,28.202129364013672,-10.313920021057129,41.55825424194336,0
232,2320022,0.008084870874881744,0.006951345596462488,-1.0087199211120605,-0.897685706615448,0.07593667507171631,0.6588872671127319,30.612747192382812,-8.940713882446289,40.78316116333008,0
233,2329907,0.056920938193798065,-0.06716371327638626,-1.0041661262512207,-0.4981987178325653,-0.23649078607559204,0.07694482058286667,31.83803939819336,-9.364361763000488,41.66396713256836,0
234,2340127,-0.0021471381187438965,0.001946950564160943,-1.0267791748046875,-0.5881932377815247,0.4239427149295807,-0.18620061874389648,31.360872268676758,-8.683431625366211,40.25952911376953,0
235,2349905,0.03046608157455921,-0.03244881331920624,-1.0459038019180298,-0.09284254908561707,0.9166349768638611,-0.4543857276439667,28.377389907836914,-10.756105422973633,40.7242431640625,0
236,2360170,-0.04192453622817993,0.051230281591415405,-1.0302903652191162,0.15288405120372772,0.06713437288999557,0.30674633383750916,31.460590362548828,-10.0907621383667,40.624542236328125,0
237,2369919,0.006157011725008488,-0.006749054417014122,-0.9803856611251831,0.37627097964286804,0.011606210842728615,0.05210911110043526,29.346696853637695,-12.027145385742188,41.65620040893555,0
238,2380203,0.009768247604370117,0.03702372685074806,-0.9840035438537598,0.25183790922164917,0.035392358899116516,-0.4536161720752716,29.81586456298828,-9.658477783203125,39.45659255981445,0
239,2389870,0.11869008839130402,-0.01985006593167782,-1.040205955505371,0.6873106360435486,0.6676682233810425,0.22218367457389832,30.035974502563477,-8.876686096191406,41.488372802734375,0
240,2400063,0.0014863351825624704,0.055155135691165924,-1.0334535837173462,-0.19119542837142944,-0.4487796723842621,0.2725045382976532,30.337446212768555,-10.276052474975586,40.32762145996094,0
241,2409986,0.008972015231847763,0.004468604456633329,-1.0128700733184814,0.4710409343242645,0.4930465519428253,0.10149861127138138,29.82646942138672,-8.398006439208984,40.50076675415039,0
242,2420038,-0.043533749878406525,1.6082915408333065e-06,-0.9956997632980347,1.2250566482543945,-0.10434764623641968,-0.11330142617225647,26.989280700683594,-8.559617042541504,40.99252700805664,0
243,2430069,0.10900173336267471,-0.07052642107009888,-1.032761573791504,-0.3864476978778839,-0.8613861203193665,-0.3195670247077942,31.333419799804688,-11.46658706665039,39.63958740234375,0
244,2440301,0.0027644257061183453,0.02708694152534008,-0.9894517064094543,-0.22524845600128174,-0.6567051410675049,0.419617623090744,28.649776458740234,-10.022862434387207,40.56739807128906,0
245,2450126,0.06564619392156601,0.048445023596286774,-1.040296196937561,0.6804373860359192,0.12325131893157959,-0.01686043106019497,29.28403663635254,-8.73842716217041,40.43743133544922,0
246,2460012,-0.023064693436026573,0.03701227903366089,-0.9776268005371094,-0.10054734349250793,-0.014761741273105145,-0.3434216380119324,28.619218826293945,-9.604722023010254,39.26121520996094,0
247,2469890,-0.009236184880137444,-0.0027083619497716427,-0.9641624689102173,-0.39259761571884155,-0.13217128813266754,-0.44071316719055176,31.170955657958984,-11.398395538330078,40.39213943481445,0
248,2479966,0.08419087529182434,-0.044791389256715775,-0.9926551580429077,-0.2823633849620819,-0.28108516335487366,0.22598586976528168,28.732101440429688,-11.437753677368164,38.741554260253906,0
249,2490088,-0.0474858321249485,0.013402235694229603,-1.0142115354537964,-0.05144223943352699,0.10992052406072617,0.10990986227989197,31.13648223876953,-10.301896095275879,39.42645263671875,0
250,2500447,-0.0568949319422245,0.008992844261229038,-1.0033146142959595,-0.1415274292230606,0.1432723104953766,-0.0837690457701683,28.871034622192383,-9.927788734436035,39.11162185668945,0
251,2509653,0.06366466730833054,-0.006520077586174011,-0.9711474776268005,0.5765042901039124,0.7130612730979919,0.13663733005523682,30.001522064208984,-9.904376983642578,38.29166793823242,0
252,2519731,-0.06818923354148865,0.06894484162330627,-1.016385555267334,0.2671360373497009,0.46886733174324036,-0.6173326969146729,28.99159812927246,-10.424662590026855,40.93680953979492,0
253,2529918,0.01316299568861723,-0.00010231006308458745,-1.0028777122497559,0.6862006783485413,0.8765694499015808,0.017352523282170296,30.18048095703125,-9.918926239013672,38.314727783203125,0
254,2539796,0.03903054818511009,-0.041574809700250626,-0.9583724737167358,1.032280683517456,-0.42927688360214233,-0.4197171628475189,31.694927215576172,-9.475723266601562,41.064353942871094,0
255,2549754,-0.05693558230996132,0.00866738148033619,-1.0229108333587646,0.5084425806999207,-0.20057660341262817,0.1863778531551361,29.71796417236328,-8.977522850036621,41.086212158203125,0
256,2560290,0.05353754758834839,-0.07859409600496292,-1.0027403831481934,-0.7263800501823425,-0.7457400560379028,0.30392715334892273,29.334962844848633,-10.324690818786621,40.696468353271484,0
257,2569800,0.04457026347517967,0.03712879493832588,-0.9860297441482544,-0.3309856653213501,0.5695154666900635,0.07344142347574234,30.8248233795166,-8.64499568939209,40.75018310546875,0
258,2579895,-0.08595012128353119,-0.07660016417503357,-1.0182734727859497,-0.48871225118637085,0.04513495787978172,0.11049877852201462,29.218915939331055,-10.152376174926758,37.517425537109375,0
259,2590079,0.05596131458878517,0.07367177307605743,-1.0055625438690186,0.9332945942878723,1.0260875225067139,0.8611217141151428,29.036460876464844,-10.016729354858398,39.994834899902344,0
260,2599933,0.09137852489948273,-0.02347983419895172,-1.025618076324463,0.32713884115219116,0.19331802427768707,-0.3123209774494171,30.86644744873047,-11.937673568725586,40.622257232666016,0
261,2610135,-0.0904991626739502,0.004124675411731005,-1.0028679370880127,-0.6366167068481445,-0.037209976464509964,-0.08055755496025085,28.28748321533203,-10.809932708740234,40.864891052246094,0
262,2619780,0.03971355780959129,0.011868025176227093,-1.0038161277770996,-0.6617224216461182,-0.09987617284059525,-0.07306194305419922,29.802934646606445,-9.286723136901855,39.897525787353516,0
263,2630358,-0.03718532249331474,-0.002104429295286536,-1.0184383392333984,0.5067023634910583,0.3136785924434662,0.8170766234397888,28.032123565673828,-9.688880920410156,40.24415588378906,0
264,2639944,0.04334813356399536,0.0812397226691246,-1.025551438331604,-0.023003332316875458,0.009333104826509953,0.5880829691886902,30.090789794921875,-8.874073028564453,38.6702766418457,0
265,2649949,-0.013461875729262829,-0.06016683578491211,-1.0200458765029907,-0.9112495183944702,0.25362440943717957,-0.22068887948989868,31.429086685180664,-9.39295482635498,41.17226791381836,0
266,2659875,0.08108602464199066,0.08062068372964859,-0.9634206295013428,0.565425455570221,-0.18092842400074005,-1.0974725484848022,30.923648834228516,-11.06054973602295,40.05754089355469,0
267,2670231,-0.15882766246795654,0.028372911736369133,-1.0237678289413452,1.1114349365234375,-1.4018737077713013,-0.5396081805229187,30.13526725769043,-9.616443634033203,40.82377624511719,0
268,2679951,0.01464627031236887,-0.007064042147248983,-0.986209511756897,0.02372622862458229,-0.8845769762992859,-0.4381311237812042,29.83063316345215,-11.693830490112305,39.68029022216797,0
269,2690046,0.05822912976145744,0.05804910883307457,-1.0108729600906372,0.1404748260974884,0.4694339632987976,-0.2558276951313019,31.790403366088867,-9.649972915649414,38.604827880859375,0
270,2699994,0.0013158854562789202,0.02831917256116867,-1.010219693183899,-0.15506352484226227,-1.058423399925232,-0.16944046318531036,30.744953155517578,-10.4940185546875,40.17100524902344,0
271,2710035,-0.05227028205990791,0.08438359200954437,-0.9832116365432739,0.07850971817970276,0.5324810743331909,0.40583813190460205,28.816482543945312,-8.735798835754395,40.135414123535156,0
272,2719962,-0.034838128834962845,0.005353232845664024,-1.0217185020446777,-0.029494687914848328,0.9299647212028503,0.15355199575424194,29.763957977294922,-9.28542423248291,39.18915557861328,0
273,2729860,-0.09306968003511429,0.0694909319281578,-1.0292048454284668,0.2516379654407501,0.14241451025009155,0.048474859446287155,30.496721267700195,-9.322456359863281,40.850162506103516,0
274,2739842,-0.035087957978248596,-0.005121099762618542,-1.0096697807312012,-0.3639239966869354,-0.15748123824596405,-0.5035783648490906,28.90885353088379,-13.364365577697754,39.77635955810547,0
275,2750182,-0.01005463395267725,0.05214538052678108,-1.0054806470870972,0.6048193573951721,0.11312584578990936,0.6731033325195312,29.098257064819336,-9.38840103149414,40.44126510620117,0
276,2759940,0.007590047083795071,0.005805432330816984,-0.9423617720603943,0.44581496715545654,0.148053839802742,-0.5817994475364685,29.86835289001465,-10.169255256652832,40.662696838378906,0
277,2770060,0.05007803812623024,-0.07179271429777145,-1.0183498859405518,-0.0019641071557998657,0.10007467865943909,0.12218890339136124,30.435022354125977,-10.418257713317871,40.757041931152344,0
278,2780132,-0.09547141939401627,-0.06229795143008232,-1.0006673336029053,-0.6016914248466492,0.08258113265037537,0.3897894322872162,30.76878547668457,-9.89704704284668,41.83522033691406,0
279,2789698,-0.001672644168138504,0.08812808990478516,-0.9939495325088501,-0.4778291881084442,-0.016865067183971405,0.14751103520393372,30.412967681884766,-9.616371154785156,38.55929183959961,0
280,2800009,0.007610417902469635,0.052095431834459305,-1.0071080923080444,0.7947877645492554,0.3769979774951935,0.6262600421905518,32.082305908203125,-10.720073699951172,39.659854888916016,0
281,2809748,0.06014664098620415,0.055006951093673706,-0.9989088177680969,0.5094719529151917,-0.09630410373210907,-0.037412047386169434,29.74712562561035,-9.799426078796387,38.75475311279297,0
282,2820083,-0.019411971792578697,0.11372707039117813,-1.0129300355911255,-0.30397409200668335,0.2621461749076843,-0.45988643169403076,29.12888526916504,-10.578367233276367,39.88241958618164,0
283,2830042,-0.08230242133140564,0.08143285661935806,-0.9954257011413574,0.6676075458526611,0.9004369378089905,-0.3737610876560211,30.273786544799805,-9.158283233642578,40.06718826293945,0
284,2839987,0.09105876088142395,-0.002857502084225416,-0.9978906512260437,-0.6111003756523132,0.040309738367795944,-0.06619856506586075,31.00676918029785,-8.099523544311523,40.1064567565918,0
285,2849949,0.04446807876229286,0.006744954269379377,-0.9877794981002808,0.5421391129493713,-0.09042517095804214,0.6621513366699219,30.460315704345703,-10.324898719787598,38.96669006347656,0
286,2859812,-0.0613643079996109,-0.08656715601682663,-1.006058692932129,0.28919854760169983,0.39362064003944397,0.029770318418741226,29.38652992248535,-10.708760261535645,39.762874603271484,0
287,2870044,0.06713063269853592,0.022161783650517464,-1.040819764137268,0.5692104697227478,-0.0898878425359726,-1.2015790939331055,28.339160919189453,-10.210487365722656,39.518104553222656,0
288,2879990,0.055521007627248764,-0.042074427008628845,-1.0032247304916382,0.31897425651550293,0.5881969332695007,-0.17064298689365387,30.10645866394043,-9.20785903930664,40.9732551574707,0
289,2889941,0.024800727143883705,-0.023921284824609756,-1.0122675895690918,-0.4498771131038666,-0.31428590416908264,0.3908655047416687,30.273134231567383,-10.006753921508789,38.91973876953125,0
290,2900077,-0.015847163274884224,0.05307498201727867,-0.9908310770988464,0.6062435507774353,-0.18038539588451385,0.4724216163158417,26.836624145507812,-10.423056602478027,40.159690856933594,0
291,2910213,0.03306529298424721,-0.01698770374059677,-0.992507815361023,0.2207288146018982,0.9612728953361511,-0.35257112979888916,30.769832611083984,-10.14079475402832,39.001224517822266,0
292,2920033,0.05598730593919754,-0.028946729376912117,-1.001645803451538,0.18452763557434082,0.022560613229870796,-0.18748456239700317,28.593233108520508,-10.352396011352539,41.426876068115234,0
293,2930010,0.016553182154893875,-0.0037589892745018005,-0.9716496467590332,-0.4536798894405365,0.20311327278614044,0.2686658799648285,29.46196746826172,-10.96003532409668,40.788185119628906,0
294,2940251,0.02915220521390438,0.11793478578329086,-1.019126057624817,-0.14191289246082306,-0.12110799551010132,0.15170753002166748,31.614116668701172,-9.920158386230469,40.20798110961914,0
295,2950117,-0.02144833281636238,-0.07125604152679443,-1.010750412940979,0.11228872090578079,-0.46262750029563904,-0.20803408324718475,30.73663902282715,-9.123414039611816,39.193050384521484,0
296,2960106,0.1009698435664177,-0.02905219979584217,-0.9910503029823303,-0.35018110275268555,0.4781996011734009,0.4512495696544647,28.89447021484375,-11.869915962219238,39.6080207824707,0
297,2969959,-0.04648658260703087,0.01168433204293251,-0.9807001948356628,-0.02120102569460869,0.2647222876548767,0.24988709390163422,29.93915557861328,-9.073904991149902,39.575904846191406,0
298,2979873,-0.0052084713242948055,-0.02609032206237316,-0.9753159284591675,-0.804880678653717,0.4194148778915405,0.09614383429288864,31.122024536132812,-11.659163475036621,41.30344009399414,0
299,2990105,-0.04664452373981476,0.09982989728450775,-0.9695700407028198,0.1012750044465065,0.058226581662893295,-0.22253187000751495,30.38746452331543,-9.017918586730957,39.46501159667969,0
300,2999981,-0.002000800333917141,-0.03106393665075302,-0.9854055643081665,0.3836878538131714,-0.06211327761411667,-0.6561772227287292,29.021137237548828,-9.9063138961792,40.89971160888672,0
301,3009724,0.0019549638964235783,-0.02094724401831627,-1.0353025197982788,0.5058673024177551,-0.9269903302192688,-0.3132413327693939,29.886831283569336,-9.909870147705078,41.59341812133789,0
302,3020102,-0.04222823679447174,0.017129845917224884,-1.0248531103134155,-1.1527299880981445,1.1468071937561035,-0.03579581156373024,29.63813591003418,-10.266203880310059,40.28822708129883,0
303,3030140,0.05221707373857498,-0.049783457070589066,-1.0008288621902466,0.7282946705818176,0.334298700094223,0.357743501663208,29.63643455505371,-8.516412734985352,39.79746627807617,0
304,3040160,0.054385267198085785,-0.01359378732740879,-1.0076795816421509,-0.9116995930671692,-0.3224438428878784,0.33320730924606323,30.827953338623047,-10.512563705444336,39.10062026977539,0
305,3050124,0.02531716786324978,-0.13364097476005554,-1.0055078268051147,0.12759928405284882,0.9946082234382629,0.3794167637825012,30.35625648498535,-10.559106826782227,37.889827728271484,0
306,3060304,-0.053581252694129944,-0.0498398132622242,-1.029512643814087,-0.4665764272212982,-0.44843438267707825,-0.6787199974060059,30.76468849182129,-7.589845180511475,39.61703872680664,0
307,3069891,0.03603627160191536,-0.014855745248496532,-1.0100504159927368,-0.24276459217071533,-0.3370167315006256,0.06589596718549728,30.11540985107422,-11.323655128479004,39.12825393676758,0
308,3079939,0.0025182205718010664,0.07731893658638,-0.9898437857627869,1.435415506362915,0.4748300313949585,0.6332961320877075,29.064863204956055,-9.926233291625977,39.91740798950195,0
309,3089959,0.06878700107336044,0.014308145269751549,-1.0044333934783936,-0.816953718662262,0.4104408025741577,0.5616831183433533,30.22760581970215,-9.058573722839355,39.33268737792969,0
310,3099997,-0.011710117571055889,-0.044181857258081436,-0.9994296431541443,0.0668538436293602,0.3149477243423462,0.33537301421165466,30.169252395629883,-10.13351058959961,40.193603515625,0
311,3109937,0.05628185719251633,-0.028367847204208374,-1.0097448825836182,-0.33077332377433777,0.21370576322078705,-0.2195194810628891,29.9434757232666,-10.72802734375,40.18739700317383,0
312,3119919,-0.02566581591963768,-0.052676089107990265,-1.0486623048782349,0.23198731243610382,0.41191545128822327,0.7316662669181824,31.153717041015625,-9.734501838684082,38.4865608215332,0
313,3129972,0.030884407460689545,0.016833975911140442,-0.9928289651870728,-0.6646764278411865,0.19844980537891388,0.33248183131217957,29.883678436279297,-10.501575469970703,40.278106689453125,0
314,3140078,0.00971967726945877,-0.019542893394827843,-1.0012226104736328,0.33663785457611084,0.08935471624135971,-0.10489139705896378,30.325952529907227,-10.070152282714844,40.89259338378906,0
315,3149786,-0.011261864565312862,-0.02420630119740963,-0.9532286524772644,-0.1246085911989212,-0.4098450839519501,0.2061014175415039,29.738842010498047,-9.534876823425293,40.444950103759766,0
316,3160165,-0.02975350245833397,-0.01753205433487892,-0.9659230709075928,0.5885890126228333,0.2197519689798355,0.34145593643188477,30.60360336303711,-12.599040031433105,38.76061248779297,0
317,3170035,0.014567400328814983,-0.0018654618179425597,-0.9833880662918091,0.7321031093597412,0.032722387462854385,0.323805034160614,30.94754409790039,-9.650572776794434,40.55979919433594,0
318,3180107,0.023574870079755783,0.004700258374214172,-1.0045417547225952,0.1547711044549942,-0.3629918098449707,-0.14345791935920715,31.050405502319336,-9.504180908203125,40.19914245605469,0
319,3189957,0.09255392849445343,-0.03656318411231041,-1.0231670141220093,-0.5669500231742859,0.5213141441345215,0.05617782473564148,29.73567771911621,-11.384294509887695,41.540645599365234,0
320,3200141,-0.062440115958452225,-0.023007139563560486,-0.9737783670425415,-0.31846821308135986,-0.733812689781189,0.30922919511795044,28.872285842895508,-9.915064811706543,41.2962646484375,0
321,3209865,-0.0705537423491478,-0.03749387711286545,-1.0042741298675537,0.8948447704315186,-0.24377886950969696,1.1107343435287476,29.563074111938477,-9.176360130310059,40.18830490112305,0
322,3219914,-0.06638583540916443,0.047731637954711914,-0.9711102843284607,-1.0244265794754028,0.055241987109184265,0.029654454439878464,30.731929779052734,-10.239636421203613,39.534400939941406,0
323,3230025,-0.028248535469174385,0.05665161833167076,-0.9864897727966309,0.7988409399986267,0.3103886544704437,0.12680646777153015,28.888906478881836,-9.662778854370117,40.83607482910156,0
324,3240015,0.02157498337328434,-0.06899275630712509,-1.0026201009750366,-0.008948530070483685,-0.10700902342796326,0.22398702800273895,28.21016502380371,-10.880311965942383,39.276336669921875,0
325,3249723,0.0909307524561882,0.06621485948562622,-1.0281587839126587,-0.4340909421443939,0.2863386273384094,-0.8847444653511047,29.49039077758789,-9.883337020874023,39.8218879699707,0
326,3260080,-0.010998222045600414,0.01727108284831047,-1.0025546550750732,0.11502049118280411,0.46266576647758484,0.9423724412918091,30.256383895874023,-9.339951515197754,38.735836029052734,0
327,3270037,-0.04978766664862633,0.0378379225730896,-0.9873859882354736,-0.060099393129348755,-0.07857958972454071,-0.22798489034175873,30.215045928955078,-8.80353832244873,40.09254455566406,0
328,3279912,-0.055444493889808655,-0.056946806609630585,-0.9839996099472046,-1.0241446495056152,0.3195897936820984,-0.17177386581897736,29.24106788635254,-10.730588912963867,38.910526275634766,0
329,3290184,-0.03437089920043945,-0.05101547762751579,-0.9947209358215332,1.0348029136657715,0.14379000663757324,-0.38948556780815125,30.055042266845703,-10.293680191040039,42.60219955444336,0
330,3299745,-0.057057563215494156,-0.02323659136891365,-1.0207654237747192,0.039393339306116104,-1.0572621822357178,0.38027316331863403,31.081235885620117,-9.883366584777832,40.839839935302734,0
331,3310103,-0.01180693507194519,-0.014051932841539383,-1.0169146060943604,0.9203142523765564,-0.3684064447879791,0.13422754406929016,30.159772872924805,-9.236357688903809,41.80079650878906,0
332,3320220,-0.00834293570369482,-0.003845728700980544,-0.9978982210159302,0.37415561079978943,0.14574085175991058,-0.30517449975013733,29.556529998779297,-9.050497055053711,42.071815490722656,0
333,3329815,0.010242169722914696,0.028401121497154236,-0.9941280484199524,-0.4570035934448242,0.37267088890075684,0.03848074749112129,29.404508590698242,-9.868202209472656,40.831703186035156,0
334,3339939,-0.0032964227721095085,0.03747004270553589,-1.0089313983917236,-1.3180105686187744,0.5329721570014954,0.05833534896373749,29.551307678222656,-10.020090103149414,38.64401626586914,0
335,3350267,-0.018876146525144577,0.012196993455290794,-1.0333253145217896,-1.0676685571670532,-1.084679365158081,1.0273735523223877,31.34813117980957,-8.823429107666016,40.2200813293457,0
336,3360145,0.0571402870118618,-0.03488801792263985,-1.0166385173797607,0.5289018154144287,-0.11471879482269287,-0.5057075023651123,30.331117630004883,-11.539107322692871,41.243629455566406,0
337,3369723,-0.013653913512825966,0.04753047972917557,-0.9895471930503845,-0.43293052911758423,-0.2778887450695038,-0.09507007896900177,29.3537540435791,-11.542165756225586,39.177391052246094,0
338,3379937,0.07071207463741302,0.05683714896440506,-0.9959720969200134,0.06443089991807938,1.4714481830596924,0.19815252721309662,29.461536407470703,-9.743993759155273,39.564762115478516,0
339,3389936,-0.0167385321110487,0.013811946846544743,-0.9644677042961121,0.0607558898627758,-0.27428731322288513,0.19090113043785095,30.10759162902832,-9.608660697937012,40.751495361328125,0
340,3400120,-0.03082771971821785,0.06666088849306107,-1.0115783214569092,-0.4042002558708191,-0.1051376536488533,-0.10720723122358322,28.956003189086914,-9.837702751159668,41.32550048828125,0
341,3409994,-0.03178151324391365,-0.001445391564629972,-0.9980882406234741,-0.4721384346485138,-0.32838234305381775,0.005088491830974817,30.36501693725586,-9.390885353088379,38.218292236328125,0
342,3420249,-0.014178652316331863,-0.0494600310921669,-1.0343281030654907,-0.3650117516517639,0.6256536841392517,-0.24427847564220428,30.730239868164062,-8.6804838180542,40.20446014404297,0
343,3429871,-0.011722555384039879,0.04766518622636795,-0.9934849739074707,0.439603716135025,0.584833562374115,-0.4594023525714874,30.9924259185791,-10.250617027282715,40.5863037109375,0
344,3439930,-0.026665130630135536,0.061195045709609985,-1.0040433406829834,-0.5427553057670593,-0.19704939424991608,-0.7319547533988953,28.386747360229492,-8.31438159942627,40.105098724365234,0
345,3449782,0.03854982182383537,0.05914856120944023,-0.989352822303772,-0.32174503803253174,0.05152883008122444,0.08389026671648026,29.37311553955078,-9.753400802612305,40.10884094238281,0
346,3460127,0.055940281599760056,-0.013654817827045918,-0.9992298483848572,0.38361355662345886,-0.3920890986919403,0.18544894456863403,28.487686157226562,-8.6465482711792,41.33003616333008,0
347,3470118,0.05031280592083931,0.053127773106098175,-0.9681583046913147,0.005092243198305368,-0.5864943861961365,-0.022137446328997612,28.60020637512207,-9.79505443572998,38.36481857299805,0
348,3480240,0.006162083707749844,0.11402565985918045,-0.996404230594635,-0.6048048138618469,-0.3938872218132019,0.37133604288101196,29.906763076782227,-10.578913688659668,42.13625717163086,0
349,3490024,0.016288133338093758,0.07837269455194473,-0.9834527373313904,-0.31023380160331726,-0.8315534591674805,0.0006290724268183112,30.223957061767578,-10.19599437713623,40.2781867980957,0
350,3499726,-0.020067455247044563,-0.05914156511425972,-1.0186874866485596,-0.6987329125404358,-0.4255196750164032,-0.6097702383995056,30.505224227905273,-9.943400382995605,39.27180099487305,0
351,3510299,0.026008427143096924,0.05003339424729347,-0.9818012118339539,0.007594925817102194,-1.2158385515213013,0.2526871860027313,30.010662078857422,-11.313488960266113,40.05691146850586,0
352,3520098,0.06318143010139465,0.0005347449914552271,-0.9882261753082275,0.27197933197021484,0.1891777068376541,0.18204626441001892,31.179195404052734,-10.045104026794434,39.885902404785156,0
353,3529902,0.03962630778551102,-0.08090950548648834,-0.9902387857437134,-0.17400744557380676,0.43743839859962463,0.7502990365028381,30.410383224487305,-9.462981224060059,41.03730392456055,0
354,3539904,0.0031540486961603165,-0.10077359527349472,-1.0300663709640503,0.6305660009384155,-0.5016860961914062,0.0021716668270528316,29.162883758544922,-10.218647956848145,39.721824645996094,0
355,3549945,0.004776577465236187,-0.07906074076890945,-0.9847500324249268,-0.425213485956192,0.3813652992248535,0.3416042625904083,29.949373245239258,-10.276365280151367,40.71483612060547,0
356,3560066,-0.0017291518161073327,0.03610469028353691,-1.0089750289916992,-0.2313174605369568,-0.45875975489616394,0.5991771221160889,29.173912048339844,-10.00809097290039,38.48686599731445,0
357,3570060,0.0003059717419091612,-0.01689770258963108,-0.9843409657478333,0.11764862388372421,-1.0205650329589844,0.0666082352399826,29.378040313720703,-12.002216339111328,39.743900299072266,0
358,3580046,0.04177892208099365,-0.025389691814780235,-1.028616189956665,-0.34244653582572937,0.17625170946121216,-0.8166205883026123,27.207382202148438,-10.194205284118652,39.63648223876953,0
359,3589813,0.05642663314938545,-0.01424435805529356,-0.9747030735015869,0.2754039168357849,-0.17822612822055817,-0.5383885502815247,29.280115127563477,-8.977706909179688,39.5903205871582,0
360,3600181,-0.0831671804189682,0.03794844076037407,-1.0026227235794067,-0.7852704524993896,-0.8856270909309387,-0.9149236679077148,31.29099464416504,-9.899985313415527,39.648155212402344,0
361,3609757,0.018143944442272186,0.03801640868186951,-1.0126203298568726,0.7415509819984436,0.13554677367210388,0.1836668699979782,29.73655891418457,-11.787466049194336,40.16831970214844,0
362,3620058,0.03184860199689865,-0.07897903770208359,-1.0155291557312012,-0.26781192421913147,0.4778323769569397,-0.29494234919548035,30.229196548461914,-10.47152042388916,41.948299407958984,0
363,3629911,0.02469780668616295,-0.03706631436944008,-1.0142430067062378,0.6135624647140503,0.20367871224880219,-0.7748994827270508,30.909740447998047,-8.526721000671387,40.56756591796875,0
364,3639696,0.09148844331502914,-0.061081480234861374,-1.0050694942474365,-0.1552712321281433,-0.5175713896751404,0.052636194974184036,29.46385955810547,-9.93873405456543,39.62782287597656,0
365,3649902,-0.00442355265840888,0.010471761226654053,-1.0164177417755127,-0.4324623644351959,0.6403132677078247,0.18234498798847198,29.263612747192383,-10.124367713928223,42.15885543823242,0
366,3660121,-0.04860837012529373,0.03180814906954765,-1.0123419761657715,-0.8382014036178589,-0.6051163077354431,-0.13651232421398163,29.784589767456055,-10.096916198730469,40.79985046386719,0
367,3669782,-0.010147576220333576,0.060737065970897675,-0.9816082119941711,0.05507646128535271,1.2535221576690674,0.4119104743003845,29.41861343383789,-10.580023765563965,40.14023208618164,0
368,3680071,0.009550400078296661,-0.0012828126782551408,-1.0197913646697998,-0.26673418283462524,-0.23086528480052948,0.3185665011405945,30.26171112060547,-9.274950981140137,39.637699127197266,0
369,3690073,-0.0765174850821495,-0.08514336496591568,-1.0111501216888428,-0.33392399549484253,-0.08898057788610458,0.10032409429550171,30.08228302001953,-9.899457931518555,39.78120422363281,0
370,3700136,-0.08616957813501358,0.027154136449098587,-1.0111850500106812,0.8758355379104614,0.08161796629428864,-0.2289818674325943,29.356508255004883,-10.436379432678223,39.45800018310547,0
371,3710046,-0.07708758115768433,0.06808152794837952,-1.0051629543304443,-0.0640137791633606,0.277234822511673,0.37259384989738464,31.911388397216797,-10.020113945007324,41.17894744873047,0
372,3720162,-0.13081923127174377,-0.037605900317430496,-1.0406014919281006,-0.024242470040917397,-0.2323986142873764,0.034624289721250534,30.385671615600586,-9.934985160827637,39.761775970458984,0
373,3729955,-0.02041516825556755,0.0369718112051487,-0.9939537048339844,0.6702102422714233,-0.2581130862236023,0.3694988787174225,30.930240631103516,-10.34860610961914,39.260501861572266,0
374,3739949,0.02702029049396515,0.04347888380289078,-0.9663345813751221,-0.5468366742134094,0.580757200717926,0.6025732159614563,30.677576065063477,-9.631957054138184,41.374267578125,0
375,3749736,-0.1396835893392563,0.03230350837111473,-1.0172300338745117,-0.4020986557006836,0.6066152453422546,0.2532804012298584,29.706478118896484,-9.992944717407227,39.20241165161133,0
376,3760021,0.014256132766604424,-0.04536658897995949,-1.0287939310073853,0.15029563009738922,0.25115326046943665,-0.01197301410138607,31.935039520263672,-11.100388526916504,41.40054702758789,0
377,3769826,-0.029100526124238968,-0.02430102415382862,-0.983307957649231,0.2263621836900711,-1.1946825981140137,-1.290029525756836,27.39733123779297,-10.603196144104004,39.633880615234375,0
378,3780178,-0.031052157282829285,0.012774684466421604,-1.0108975172042847,-0.23849204182624817,-0.10839887708425522,-0.8214166164398193,29.98900032043457,-9.233081817626953,39.97412872314453,0
379,3789972,-0.04366084188222885,0.11365660279989243,-1.0181548595428467,0.5282263159751892,0.5783215761184692,-0.7065357565879822,29.296279907226562,-9.006041526794434,39.20771026611328,0
380,3799831,-0.04540988430380821,0.033268604427576065,-0.9768654704093933,-0.005414274055510759,0.05202752724289894,0.32204073667526245,28.927902221679688,-9.511276245117188,40.08499526977539,0
381,3809810,-0.06975152343511581,-0.08685225993394852,-0.9862377643585205,0.4048141837120056,0.8838782906532288,0.7826501727104187,30.333019256591797,-10.977604866027832,38.77327346801758,0
382,3819973,-0.033960796892642975,0.013016742654144764,-1.0205860137939453,-0.2233695387840271,-0.06760115921497345,0.6758429408073425,31.803743362426758,-9.359786987304688,40.44775390625,0
383,3829692,0.007810033857822418,-0.003392366226762533,-1.0005252361297607,0.3544313311576843,-0.2105604112148285,0.18655695021152496,29.3844051361084,-10.32394790649414,40.27486801147461,0
384,3840131,-0.026397589594125748,0.02050044573843479,-0.9850237965583801,-0.42004045844078064,-0.3160431683063507,0.22144648432731628,30.022981643676758,-9.93455696105957,41.68646240234375,0
385,3850006,-0.06720708310604095,0.0207922775298357,-1.0158354043960571,0.7319326996803284,-0.31094837188720703,-0.02971191518008709,31.965112686157227,-11.56091022491455,38.86099624633789,0
386,3859835,0.021139424294233322,0.01931620016694069,-1.0250402688980103,-0.011453314684331417,-0.6208209991455078,0.09759943187236786,29.118026733398438,-9.194841384887695,40.83622360229492,0
387,3870051,0.03565262258052826,0.046309858560562134,-1.004270076751709,0.4714336693286896,-0.04681064188480377,0.08225865662097931,28.514339447021484,-10.220351219177246,40.338741302490234,0
388,3879805,0.006650981958955526,-0.06103331595659256,-0.994208812713623,0.2945503294467926,-0.0527636855840683,0.19906656444072723,30.26899528503418,-10.25697135925293,39.6219482421875,0
389,3889979,0.026602700352668762,-0.029197603464126587,-0.9796369075775146,-0.2917669415473938,-0.19876086711883545,-0.4199599623680115,30.041996002197266,-10.403252601623535,40.420040130615234,0
390,3900104,0.01925637200474739,-0.029923994094133377,-1.0025715827941895,-0.04679754376411438,0.19006197154521942,-0.7323363423347473,30.319536209106445,-9.353704452514648,40.03091049194336,0
391,3910279,-0.07295102626085281,-0.01911269687116146,-0.9903443455696106,-0.4812510311603546,-0.06659775972366333,-0.9924713373184204,29.902807235717773,-9.489683151245117,38.873374938964844,0
392,3920040,0.034011173993349075,-0.036550771445035934,-1.0020663738250732,0.03719053044915199,0.14367015659809113,-0.5140525102615356,30.08014678955078,-9.855218887329102,39.994178771972656,0
393,3930182,-0.008243044838309288,-0.013423089869320393,-0.9564615488052368,0.6421343088150024,0.3932441473007202,-0.23402127623558044,30.400638580322266,-10.089881896972656,40.17443084716797,0
394,3940048,0.03296159580349922,0.043019067496061325,-0.9881319999694824,-0.4266705811023712,0.38765522837638855,0.08578985929489136,30.500286102294922,-10.15832805633545,39.8195915222168,0
395,3949999,0.035098351538181305,-0.056402914226055145,-1.0080854892730713,0.44593989849090576,0.03305885195732117,-0.049914658069610596,28.07624053955078,-8.482352256774902,38.62835693359375,0
396,3960054,-0.041915733367204666,-0.04244137555360794,-1.0262421369552612,-0.2583220899105072,0.4917443096637726,0.7273994088172913,28.984527587890625,-7.663723945617676,40.089569091796875,0
397,3970228,-0.07462677359580994,0.06353975087404251,-1.0002129077911377,-0.2889360189437866,0.9179891347885132,0.20633219182491302,28.851093292236328,-9.146903038024902,39.38511276245117,0
398,3979936,0.10394744575023651,0.04597119987010956,-0.9657929539680481,0.038453418761491776,0.0822635069489479,0.06884723901748657,30.291934967041016,-9.403738021850586,39.39744567871094,0
399,3990154,0.045559111982584,-0.004094517789781094,-0.9941725134849548,0.21890218555927277,0.40092840790748596,0.05775867775082588,28.85323715209961,-11.405375480651855,39.19642639160156,0
400,4000117,-0.06526099890470505,0.018367452546954155,-0.9873537421226501,0.2681901156902313,-0.46050792932510376,-0.6061115264892578,30.056598663330078,-10.951473236083984,40.93248748779297,0
401,4010080,-0.07397432625293732,-0.011594867333769798,-0.9930463433265686,-0.21108512580394745,0.197454035282135,-0.36792486906051636,31.075284957885742,-11.973398208618164,39.587520599365234,0
402,4019975,7.451420970028266e-05,-0.02407626435160637,-1.0194625854492188,-0.4635297954082489,-0.20763207972049713,0.1306951940059662,29.269521713256836,-9.475092887878418,38.657169342041016,0
403,4030190,-0.01158883422613144,0.06562540680170059,-0.9647397398948669,-0.5125023126602173,-0.41963276267051697,1.5650795698165894,31.326263427734375,-11.841095924377441,40.40623092651367,0
404,4039718,0.021659256890416145,-0.037120744585990906,-0.9773418307304382,-0.22565945982933044,-0.6394996643066406,-0.019952848553657532,29.655181884765625,-10.07338809967041,39.90247344970703,0
405,4050016,0.03195329010486603,0.06259209662675858,-0.9851058125495911,0.4639551341533661,-0.11601123213768005,0.20902089774608612,30.1177978515625,-10.86324691772461,40.312808990478516,0
406,4060020,-0.010164539329707623,0.036009274423122406,-0.9914230108261108,0.33059975504875183,-0.4438728988170624,0.20514704287052155,29.92547607421875,-11.443016052246094,39.479087829589844,0
407,4070113,-0.0019854074344038963,-0.002091667614877224,-1.0103884935379028,-0.6724637150764465,0.015341900289058685,0.24579308927059174,31.37714195251465,-9.379953384399414,39.73445510864258,0
408,4080058,0.013246412388980389,0.05348591506481171,-1.003556728363037,0.577038586139679,0.14723345637321472,-1.2101430892944336,29.845970153808594,-8.662885665893555,41.0656623840332,0
409,4089940,-0.05220596864819527,0.02734874002635479,-0.964909553527832,-0.5126016139984131,-0.29667213559150696,-0.8221717476844788,29.041418075561523,-11.762590408325195,40.549957275390625,0
410,4100003,0.0004336546116974205,0.017608877271413803,-1.007964015007019,0.1822781264781952,-0.34357839822769165,0.42520368099212646,27.80584716796875,-10.101883888244629,41.27756881713867,0
411,4110087,0.00949906837195158,-0.09177910536527634,-1.0011996030807495,-0.010814865119755268,-0.6045536994934082,-0.6563925743103027,29.186521530151367,-10.373767852783203,38.86395263671875,0
412,4120209,0.026639748364686966,-0.00204950338229537,-0.9932234287261963,0.07968956232070923,0.07050275802612305,0.43385428190231323,30.383392333984375,-8.082557678222656,41.14592361450195,0
413,4130094,0.04452890530228615,-0.01910550706088543,-0.9888196587562561,0.37919461727142334,-0.949483335018158,1.2642390727996826,30.502485275268555,-9.819156646728516,40.61928176879883,0
414,4140141,4.847832678933628e-05,-0.05389334633946419,-1.027085781097412,0.6326295137405396,-0.49519068002700806,0.14416852593421936,31.497623443603516,-10.895050048828125,37.979496002197266,0
415,4149845,0.12458217144012451,-0.05960974842309952,-1.0154812335968018,0.3734574615955353,-1.1783905029296875,-0.18833458423614502,31.876079559326172,-10.09160327911377,39.302982330322266,0
416,4160071,0.028608519583940506,0.02374616265296936,-1.0188482999801636,-0.051955483853816986,0.43015211820602417,0.19301274418830872,27.952892303466797,-10.197056770324707,39.82278060913086,0
417,4169909,0.011598058044910431,0.015890013426542282,-0.9900817275047302,-0.1406727284193039,0.31878525018692017,0.11054330319166183,31.65432357788086,-10.272232055664062,38.77268981933594,0
418,4180194,-0.007957733236253262,-0.0495576336979866,-1.015438199043274,-0.9775251150131226,-0.4355871081352234,0.9039362668991089,30.99030113220215,-10.341324806213379,40.68101501464844,0
419,4190258,0.019886428490281105,0.004146668594330549,-1.0289889574050903,-0.35420751571655273,0.031701311469078064,-0.0010295932879671454,30.58602523803711,-10.586673736572266,38.64188003540039,0
420,4199787,0.0055971755646169186,0.09803854674100876,-0.9992023706436157,0.4474067986011505,-0.5982123613357544,-0.14926251769065857,30.918867111206055,-10.757530212402344,40.2960090637207,0
421,4209910,0.05197708308696747,0.006588637363165617,-0.9921807646751404,-0.05040412023663521,0.5255492329597473,0.7337177395820618,28.477642059326172,-7.508795738220215,40.545223236083984,0
422,4220199,0.0099334130063653,-0.06160227581858635,-1.0046697854995728,0.48005253076553345,-0.06932317465543747,0.26298755407333374,30.45904541015625,-10.81148910522461,40.262939453125,0
423,4229910,0.02329094335436821,0.04174502566456795,-0.9962257146835327,0.49009037017822266,0.269560307264328,-0.3292103111743927,29.723777770996094,-10.57138729095459,39.801143646240234,0
424,4239871,0.04260413721203804,0.06801684200763702,-1.0311604738235474,-0.20712535083293915,0.10603637248277664,-0.10225266218185425,28.808372497558594,-11.480507850646973,40.2786750793457,0
425,4249945,-0.001974093494936824,-0.007599073927849531,-1.0304354429244995,0.551098108291626,0.2505618929862976,0.5239811539649963,30.988801956176758,-9.325661659240723,40.94809341430664,0
426,4259703,-0.014009103178977966,0.04755665734410286,-1.0153623819351196,-0.7316845655441284,-0.07377297431230545,0.1871039718389511,29.640779495239258,-12.147406578063965,39.31254196166992,0
427,4269956,-0.022392071783542633,-0.011350970715284348,-0.988419771194458,-0.13771967589855194,0.09355057775974274,-0.20273664593696594,28.49677848815918,-9.275510787963867,38.84646224975586,0
428,4280070,0.030438628047704697,-0.03401382267475128,-1.014274001121521,0.127579927444458,0.12789490818977356,-0.27808713912963867,30.794475555419922,-9.205090522766113,40.6399040222168,0
429,4289934,-0.011585108935832977,-0.05233721807599068,-0.9935436248779297,0.21709701418876648,0.7170814275741577,0.09278089553117752,30.53458595275879,-10.261735916137695,40.495880126953125,0
430,4299944,-0.013249237090349197,0.09285232424736023,-0.9880163073539734,0.09221949428319931,0.8487489223480225,0.5535441040992737,28.902196884155273,-9.157915115356445,40.7066650390625,0
431,4309877,0.011988895013928413,-0.011894351802766323,-0.9962692260742188,-0.14187340438365936,-0.22965531051158905,-0.18240953981876373,29.731847763061523,-10.497786521911621,41.29709243774414,0
432,4320143,-0.00541966687887907,0.02562069334089756,-1.0062538385391235,0.2205418050289154,-0.25918346643447876,-0.8560014963150024,28.967283248901367,-8.541067123413086,41.012699127197266,0
433,4329870,0.030442917719483376,0.07665778696537018,-0.9911380410194397,-0.07776247709989548,-0.3166746199131012,-0.209891676902771,29.771371841430664,-9.14571475982666,40.38554763793945,0
434,4340026,0.0015922588063403964,0.09581498056650162,-1.00692880153656,0.26519131660461426,0.962717592716217,-0.9016420245170593,30.98349952697754,-8.994775772094727,41.09199523925781,0
435,4350269,-0.06997469812631607,-0.08425653725862503,-1.0275671482086182,-0.07159766554832458,0.26733341813087463,-0.5453570485115051,29.056903839111328,-7.95703649520874,39.96435546875,0
436,4360084,-0.01562546193599701,-0.05361441895365715,-1.0189886093139648,0.3465025722980499,-0.04877274110913277,-0.46311628818511963,30.061962127685547,-10.989381790161133,40.839717864990234,0
437,4370162,0.08503895252943039,-0.0556221678853035,-0.9955710768699646,0.4134552478790283,0.09338310360908508,0.5855904817581177,29.863065719604492,-11.39966106414795,40.94737243652344,0
438,4379897,0.010718109086155891,-0.07934380322694778,-0.9864003658294678,0.24074798822402954,0.8692731857299805,0.6540268659591675,29.913528442382812,-10.747618675231934,39.6227912902832,0
439,4390262,0.037076450884342194,-0.021694738417863846,-1.0372809171676636,0.19912317395210266,-0.9041882157325745,0.3346636891365051,30.880962371826172,-9.057028770446777,40.73307418823242,0
440,4399676,-0.023178132250905037,0.03885925933718681,-0.9929362535476685,0.6967402696609497,0.6832854151725769,-0.48676958680152893,29.327659606933594,-11.67633056640625,38.411685943603516,0
441,4410040,0.04254724085330963,0.04565311595797539,-1.0269216299057007,0.643469512462616,0.6984158754348755,0.5773892402648926,30.889480590820312,-12.60561466217041,38.70970153808594,0
442,4419685,-0.05202087014913559,0.01055424939841032,-0.9845104813575745,-0.722220778465271,1.391373634338379,0.02346114069223404,29.844207763671875,-8.882877349853516,40.146766662597656,0
443,4429809,-0.08228737860918045,-0.05136464536190033,-1.0147556066513062,0.05407751351594925,0.010468789376318455,-0.31368476152420044,28.864046096801758,-9.258687019348145,41.00155258178711,0
444,4439649,0.013631695881485939,-0.04581779986619949,-0.9949911832809448,0.4187692403793335,0.5875656604766846,0.15422780811786652,29.701120376586914,-10.50326156616211,40.031246185302734,0
445,4450069,0.05441324785351753,0.08536393195390701,-1.0154765844345093,0.24241474270820618,-0.49867168068885803,0.4265685975551605,29.999267578125,-10.441671371459961,39.79634475708008,0
446,4460064,-0.05742017924785614,0.08406827598810196,-1.003828525543213,-0.29764631390571594,-0.8900066614151001,-0.025025049224495888,29.48081398010254,-9.735113143920898,40.55690002441406,0
447,4469922,0.02179913967847824,0.014613504521548748,-0.9934399127960205,-0.48507794737815857,-0.480227530002594,-0.27433618903160095,28.935264587402344,-11.733221054077148,40.51689147949219,0
448,4479805,-0.08694861084222794,-0.040132924914360046,-0.9831526875495911,0.31404533982276917,-0.7093085646629333,0.09333940595388412,28.393945693969727,-11.038866996765137,40.62836456298828,0
449,4490210,-0.10295064747333527,0.05761852115392685,-0.9803133606910706,-0.10342960059642792,0.11763343214988708,0.25148728489875793,31.643054962158203,-9.798035621643066,40.329612731933594,0
450,4499862,-0.048101987689733505,0.08528907597064972,-0.999735414981842,-0.04480760544538498,-0.4306815564632416,0.02042543515563011,31.745758056640625,-9.986654281616211,40.94545364379883,0
451,4510033,0.03901867941021919,0.013321616686880589,-0.9777904152870178,-0.813062310218811,-0.17277611792087555,-0.22954881191253662,30.82505989074707,-10.242961883544922,39.87797927856445,0
452,4519969,0.0423421673476696,-0.028337284922599792,-0.9867944717407227,0.3401457667350769,-0.3360804319381714,-0.36307671666145325,30.277156829833984,-9.129118919372559,41.12068557739258,0
453,4529830,0.035539183765649796,0.014122228138148785,-1.0231088399887085,-0.3862840235233307,-0.1298937201499939,-0.04486457258462906,28.87874984741211,-9.281819343566895,37.060890197753906,0
454,4540146,-0.02974982000887394,-0.04193597659468651,-0.9872208833694458,-0.39470475912094116,0.23592118918895721,0.572214663028717,31.968210220336914,-11.048009872436523,39.015743255615234,0
455,4550162,0.08546338230371475,0.010163075290620327,-1.0169543027877808,0.34091508388519287,-1.377532720565796,-0.6888172030448914,29.364267349243164,-12.076614379882812,42.27438735961914,0
456,4560047,-0.03580264747142792,-0.07667858153581619,-1.0124748945236206,-0.16052673757076263,-0.25821277499198914,-0.44954821467399597,28.222301483154297,-8.382746696472168,40.68182373046875,0
457,4570126,-0.0230596624314785,-0.036115795373916626,-0.9962325692176819,-0.5169004797935486,-0.8848739862442017,-0.16403184831142426,29.84638214111328,-10.810480117797852,39.57018280029297,0
458,4580068,-0.020964430645108223,-0.04181014746427536,-1.0012890100479126,-0.01731237955391407,0.2571048140525818,-0.42864665389060974,31.126188278198242,-10.451818466186523,40.06721496582031,0
459,4589771,0.01828305795788765,-0.08372798562049866,-1.0297857522964478,-0.14278416335582733,0.004682040773332119,-0.33729106187820435,29.621631622314453,-9.837411880493164,39.711177825927734,0
460,4600067,-0.047881003469228745,-0.04174494743347168,-1.00336754322052,0.5042983293533325,0.16916422545909882,0.773393452167511,28.96109962463379,-9.731083869934082,40.72938537597656,0
461,4609949,-0.043297216296195984,0.0012811236083507538,-1.0207616090774536,-0.3538309931755066,-0.9172549843788147,0.48726028203964233,30.087820053100586,-9.123446464538574,39.75303268432617,0
462,4620224,0.03569231927394867,0.023248780518770218,-1.007307767868042,-0.26337841153144836,1.5520012378692627,0.7361645698547363,29.610729217529297,-8.753355979919434,39.940635681152344,0
463,4630000,0.03898368030786514,0.05141933634877205,-1.0040128231048584,0.06909793615341187,0.2705061137676239,-0.33564966917037964,29.56238555908203,-9.855341911315918,41.21302795410156,0
464,4639929,0.01039699837565422,0.011190175078809261,-1.0130932331085205,0.02965402975678444,-0.12161772698163986,-0.038595568388700485,29.979759216308594,-10.300765991210938,40.04875564575195,0
465,4649986,-0.011466572061181068,-0.03580367937684059,-0.9906997084617615,0.8398560285568237,-0.5493477582931519,0.28782421350479126,31.052881240844727,-10.046110153198242,41.37044906616211,0
466,4659970,0.07528835535049438,-0.041652314364910126,-1.0162436962127686,1.0380009412765503,0.6941585540771484,-0.43456581234931946,28.86472511291504,-10.203937530517578,39.24935531616211,0
467,4669931,-0.0965249091386795,0.00513075664639473,-1.055899739265442,-0.36702558398246765,-0.6930047869682312,-0.14062613248825073,31.48250389099121,-9.593082427978516,40.50394821166992,0
468,4680122,-0.09772791713476181,0.08320525288581848,-0.9617690443992615,-0.21871037781238556,-0.17462657392024994,0.5041723847389221,29.197526931762695,-9.901335716247559,40.00901794433594,0
469,4690197,0.05830971151590347,-0.05897156149148941,-0.9841891527175903,0.4196547269821167,-0.6237565279006958,-0.946659505367279,29.047435760498047,-10.89233112335205,41.141807556152344,0
470,4700123,-0.006348133087158203,0.06085668504238129,-0.9872635006904602,0.4095837473869324,0.7752149701118469,-0.8294643759727478,29.827871322631836,-10.033878326416016,40.78557205200195,0
471,4709824,-0.05402211844921112,0.01126325223594904,-1.0016579627990723,0.33759942650794983,-0.6240578889846802,0.3042771816253662,29.568370819091797,-9.62207317352295,40.62494659423828,0
472,4720203,-0.05689627304673195,0.10673554241657257,-0.9898368716239929,0.1838890165090561,0.6435773968696594,-0.281239777803421,30.138111114501953,-9.950540542602539,38.38544845581055,0
473,4729766,-0.014645756222307682,0.04194599762558937,-0.9936702847480774,0.683505654335022,-0.1657886952161789,1.2099807262420654,29.345088958740234,-8.35332202911377,39.55281066894531,0
474,4739944,0.0002573374367784709,0.054600972682237625,-1.0142239332199097,-1.132265567779541,-0.07500811666250229,-0.4752545654773712,30.48862648010254,-8.584266662597656,39.38694381713867,0
475,4750118,-0.03039325773715973,-0.06590840220451355,-1.0315078496932983,0.34219884872436523,-0.621561586856842,0.610962986946106,30.39776039123535,-9.852738380432129,40.44026184082031,0
476,4759620,0.0384720079600811,0.08765862882137299,-1.0038855075836182,-0.8294348120689392,-0.16549529135227203,-0.547420859336853,31.90165138244629,-9.479846954345703,39.4672966003418,0
477,4769892,0.019334767013788223,0.002516095992177725,-1.0063568353652954,-0.5810148119926453,0.07989607751369476,0.3123708665370941,31.368009567260742,-11.014993667602539,40.223697662353516,0
478,4780144,-0.09067120403051376,-0.017765700817108154,-0.9892774224281311,-0.40686267614364624,0.7648931741714478,-0.6986693739891052,29.870174407958984,-10.139166831970215,39.60352325439453,0
479,4789991,-0.0970190018415451,0.014998983591794968,-0.9977111220359802,-0.35456064343452454,-0.6195001006126404,0.047311458736658096,29.081430435180664,-9.279193878173828,39.608978271484375,0
480,4800202,-0.013668242841959,-0.028187362477183342,-0.9957494139671326,0.29506590962409973,-0.2768843173980713,0.41616788506507874,30.625112533569336,-10.146400451660156,40.78670120239258,0
481,4810029,-0.01868186518549919,0.005216135177761316,-1.0289727449417114,0.6600608229637146,-0.22775804996490479,0.14991731941699982,30.71282386779785,-10.341760635375977,41.4069938659668,0
482,4819791,0.08723121136426926,0.035820987075567245,-1.0103871822357178,0.735683023929596,0.13178597390651703,0.031869545578956604,29.95351791381836,-10.23498249053955,39.56257247924805,0
483,4830234,0.06664370000362396,0.0910988301038742,-1.0103306770324707,0.5746510624885559,-0.12849710881710052,-0.45384159684181213,28.66392707824707,-10.195587158203125,41.437705993652344,0
484,4840341,0.0631098523736,-0.06599811464548111,-0.988910436630249,-0.3031187653541565,-0.2575156092643738,0.5240923166275024,30.586706161499023,-9.075840950012207,39.46968460083008,0
485,4849852,0.0027226856909692287,-0.027213079854846,-0.9738160967826843,-0.6457251906394958,-0.20800621807575226,0.731860339641571,30.534637451171875,-10.236215591430664,41.73678970336914,0
486,4860026,-0.0046551120467484,0.08140301704406738,-0.9919847846031189,-0.024903250858187675,0.11281288415193558,0.7332170009613037,30.35541534423828,-10.958878517150879,39.509639739990234,0
487,4869959,-0.03376108035445213,-0.06524532288312912,-1.0153847932815552,-0.40551817417144775,0.6958327293395996,0.007167263422161341,29.030595779418945,-8.692150115966797,41.16317367553711,0
488,4879941,0.08897318691015244,-0.014925519935786724,-1.036014199256897,0.18402504920959473,0.511742889881134,0.00202467804774642,28.26582908630371,-9.569241523742676,39.19422149658203,0
489,4889943,0.012597973458468914,0.09542026370763779,-0.999908983707428,0.17564406991004944,0.150043785572052,-0.6453837752342224,29.208036422729492,-9.556580543518066,40.03242874145508,0
490,4900251,-0.05054626613855362,-0.05106651410460472,-0.9968752264976501,-0.024339208379387856,0.011929385364055634,0.39995694160461426,28.399803161621094,-10.213873863220215,39.31386947631836,0
491,4910118,-0.04448583722114563,-0.04854634404182434,-1.0312047004699707,0.1883377879858017,0.3031337559223175,-0.13394401967525482,30.437843322753906,-7.725149154663086,38.284523010253906,0
492,4920293,0.023562567308545113,0.023551207035779953,-0.973694920539856,-0.05045760050415993,0.03905157744884491,0.22887356579303741,28.81264305114746,-11.027669906616211,39.840728759765625,0
493,4930096,0.06835262477397919,-0.02917512133717537,-0.9998359084129333,0.17176416516304016,-0.8290399312973022,0.5414401888847351,31.070165634155273,-10.301998138427734,39.80606460571289,0
494,4940088,-0.021118899807333946,0.013647557236254215,-1.0012503862380981,-0.08472959697246552,0.13077165186405182,-0.8465849757194519,27.774139404296875,-9.89062213897705,40.45376968383789,0
495,4950098,-0.002233712701126933,0.001202614395879209,-1.0223928689956665,-0.7208874225616455,-0.2859199345111847,0.2451900988817215,29.76417350769043,-10.302568435668945,41.126617431640625,0
496,4959791,0.14018455147743225,0.01716272160410881,-1.0066657066345215,0.07465561479330063,0.17452560365200043,-0.23278553783893585,29.4353084564209,-9.60041618347168,38.667808532714844,0
497,4970122,0.04717956855893135,-0.012849505990743637,-1.014962911605835,-0.47340887784957886,0.00441784830763936,0.1713145226240158,30.626609802246094,-10.16569709777832,39.87096405029297,0
498,4980010,0.023874498903751373,-0.023910272866487503,-0.9740011692047119,-0.7017390131950378,-0.08746380358934402,-0.3392130136489868,29.41149139404297,-10.6005277633667,39.89868927001953,0
499,4989960,0.010668352246284485,-0.02831711620092392,-1.0387297868728638,0.6575258374214172,0.004751087632030249,0.5216093063354492,30.751102447509766,-11.97679328918457,40.196929931640625,0
500,4999817,0.041608113795518875,0.1217450350522995,-0.992577075958252,-0.4801352024078369,-0.6353409290313721,-0.00528760626912117,30.214101791381836,-10.276507377624512,39.606651306152344,0
501,5009998,-0.019353535026311874,0.07958555966615677,-1.030957579612732,-0.06294255703687668,0.08756500482559204,-0.11943493783473969,30.934724807739258,-10.806397438049316,40.61672592163086,0
502,5019913,0.027003850787878036,0.03410125523805618,-0.9463083744049072,-0.4732533097267151,-0.6580843329429626,0.7530885338783264,30.148454666137695,-8.807271003723145,38.31840133666992,0
503,5029948,0.03256004676222801,-0.09603911638259888,-1.0238710641860962,0.6975500583648682,-0.11085332930088043,-0.3999587893486023,30.34279441833496,-7.87591028213501,39.229427337646484,0
504,5039946,-0.020660890266299248,-0.062302298843860626,-0.977537214756012,0.3370012640953064,-0.20424506068229675,0.22803498804569244,29.543468475341797,-11.015345573425293,39.32075500488281,0
505,5049822,0.052386652678251266,0.04411954805254936,-1.0122050046920776,-0.5849879384040833,0.11261918395757675,-0.6373388767242432,30.32176971435547,-8.89975357055664,39.82222366333008,0
506,5060246,-0.00866240169852972,0.027526477351784706,-0.9899604916572571,0.5531815886497498,0.33936211466789246,0.3198595941066742,30.703044891357422,-11.123272895812988,40.77960968017578,0
507,5070006,0.010056023485958576,-0.013208301737904549,-0.9660950303077698,0.26201188564300537,-0.7307073473930359,0.4581117331981659,32.39570617675781,-8.380606651306152,40.73423385620117,0
508,5079985,-0.06246550381183624,0.08518634736537933,-0.968506395816803,0.6199424266815186,-0.3139149844646454,-0.8444350957870483,29.16596794128418,-9.86354923248291,39.67376708984375,0
509,5089983,0.004465973936021328,-0.044754158705472946,-1.017251968383789,-0.5585971474647522,-0.28663551807403564,0.5051753520965576,30.281536102294922,-11.02927303314209,37.20555877685547,0
510,5100062,0.031723927706480026,-0.042655497789382935,-0.9973722696304321,0.05013296380639076,0.9794721007347107,0.6070191264152527,29.744464874267578,-9.429409980773926,40.10791778564453,0
511,5110057,-0.011594180949032307,0.00917870830744505,-1.0263937711715698,0.7919236421585083,0.796839714050293,0.5886785387992859,29.521411895751953,-9.7094144821167,39.175437927246094,0
512,5120052,-0.009384340606629848,0.005970596801489592,-1.003883719444275,-0.08814223110675812,-0.11959178000688553,-0.20949168503284454,30.911422729492188,-10.409594535827637,39.01694869995117,0
513,5130099,-0.019927306100726128,-0.038674578070640564,-1.0274648666381836,-0.1443348377943039,0.17525039613246918,-0.044581349939107895,28.897123336791992,-10.682924270629883,40.846092224121094,0
514,5139983,0.030232900753617287,0.052560776472091675,-1.0025978088378906,-0.3818957507610321,-0.475245863199234,-0.31194716691970825,30.390939712524414,-10.386373519897461,39.55622863769531,0
515,5150284,0.009333096444606781,0.022549359127879143,-1.0167460441589355,-0.25109270215034485,-0.14444099366664886,-0.21452489495277405,29.00642967224121,-8.335930824279785,40.38328552246094,0
516,5160295,0.027006492018699646,-0.03953230381011963,-1.0030540227890015,-0.12186436355113983,0.062031783163547516,-0.3267301321029663,30.45243263244629,-10.921183586120605,40.299346923828125,0
517,5170154,-0.06457702070474625,0.008834519423544407,-0.9952280521392822,0.43765658140182495,0.6136311292648315,0.757861316204071,29.614086151123047,-10.195834159851074,41.21787643432617,0
518,5180001,-0.027155479416251183,0.03475093096494675,-0.9914162158966064,-0.1072075292468071,0.29916292428970337,-0.19813504815101624,32.00675582885742,-10.334992408752441,38.22605514526367,0
519,5189970,0.04959982633590698,0.016907772049307823,-1.024207592010498,-0.3359677791595459,-0.3053196370601654,0.010905741713941097,29.905166625976562,-9.62090015411377,39.985191345214844,0
520,5200251,-0.10052105039358139,-0.09125152230262756,-0.965482234954834,0.12193165719509125,0.12875013053417206,0.221471905708313,28.55589485168457,-9.989904403686523,41.28956985473633,0
521,5209935,0.02763846144080162,0.045940253883600235,-0.9764848947525024,-0.0522117055952549,0.9296849966049194,-0.06339070200920105,28.84827423095703,-10.51941204071045,40.7008056640625,0
522,5219804,0.011744463816285133,0.01575334183871746,-0.9853459596633911,-0.0780414491891861,0.21329380571842194,0.6764190793037415,30.091218948364258,-11.797492980957031,40.8615608215332,0
523,5229978,-0.05243663117289543,0.04541302099823952,-0.958983838558197,-0.02882673777639866,0.8013473153114319,-0.42377182841300964,30.65374755859375,-10.027252197265625,39.5809440612793,0
524,5240081,-0.01484319381415844,0.1505243331193924,-1.0434786081314087,-0.9525915384292603,-0.13675788044929504,-0.13076359033584595,30.959989547729492,-9.529062271118164,40.4627685546875,0
525,5250191,-0.07024994492530823,0.0010744906030595303,-1.0030136108398438,0.0993424579501152,0.43393146991729736,0.4752890169620514,29.7766170501709,-9.880674362182617,39.34501647949219,0
526,5260119,-0.116831935942173,-0.021213877946138382,-1.0086842775344849,-0.06141580641269684,0.46064281463623047,0.30735036730766296,31.353626251220703,-9.81897258758545,39.057334899902344,0
527,5270206,-0.11124080419540405,0.041601601988077164,-0.9957592487335205,-0.8377097845077515,0.18854409456253052,0.02762974053621292,31.655275344848633,-9.433937072753906,40.65855026245117,0
528,5279699,-0.04712718352675438,-0.1601915806531906,-0.963503897190094,-0.922950267791748,0.7046043276786804,0.06861138343811035,29.824676513671875,-9.351635932922363,38.86757278442383,0
529,5290034,0.04370185360312462,-0.00235523353330791,-0.980392336845398,0.24045076966285706,0.07064929604530334,-0.16327206790447235,29.17721176147461,-10.985547065734863,41.40201187133789,0
530,5299930,-0.006406817585229874,-0.012267516925930977,-1.0245968103408813,0.014003937132656574,-1.0215644836425781,0.1490979939699173,29.800025939941406,-9.37522029876709,38.95479202270508,0
531,5310062,-0.09793982654809952,0.03557676076889038,-0.9964314699172974,0.24453993141651154,-0.747473955154419,0.13475322723388672,29.236770629882812,-10.180835723876953,39.99664306640625,0
532,5319939,0.0899529904127121,0.008394554257392883,-1.0019036531448364,0.20925024151802063,-0.1402188539505005,0.3912666440010071,31.470706939697266,-10.899942398071289,38.42621612548828,0
533,5329880,-0.01287782285362482,0.03454894945025444,-1.0228939056396484,-0.480494886636734,0.4013092517852783,0.011913716793060303,30.046634674072266,-8.560542106628418,39.88872528076172,0
534,5339862,-0.07227619737386703,0.04819006845355034,-0.985014796257019,-0.32528749108314514,0.06523959338665009,-0.2402062565088272,29.602779388427734,-10.252663612365723,40.656463623046875,0
535,5349976,-0.029043305665254593,0.028354587033391,-0.9721008539199829,0.13215644657611847,0.5239357352256775,-0.11704947054386139,32.82963943481445,-10.54633903503418,41.77798080444336,0
536,5360099,-0.07122000306844711,-0.031070396304130554,-0.9985266327857971,-0.47008025646209717,0.2168007344007492,0.39640364050865173,30.602619171142578,-11.0320463180542,40.748233795166016,0
537,5370102,-0.05403211712837219,0.0015477220294997096,-1.0077905654907227,0.5155409574508667,-0.5698092579841614,0.0054553719237446785,30.99101448059082,-10.59820556640625,38.165565490722656,0
538,5379838,0.01849755272269249,0.03763963282108307,-1.0119547843933105,0.43749892711639404,0.06956245750188828,-0.27332693338394165,31.030080795288086,-9.971179962158203,39.885807037353516,0
539,5390039,-0.002507165540009737,-0.03915964439511299,-0.9909254908561707,0.45203834772109985,-0.32961133122444153,0.5327956080436707,29.498342514038086,-10.015239715576172,39.70336151123047,0
540,5399943,-0.03589307889342308,0.044035181403160095,-1.033349871635437,0.20674988627433777,-0.5441751480102539,0.11675054579973221,31.39885902404785,-9.535097122192383,39.1843376159668,0
541,5409952,-0.04441962018609047,-0.08467230945825577,-1.0395915508270264,-0.08015649765729904,-1.0673487186431885,-0.08188991993665695,29.741756439208984,-10.000540733337402,38.50859069824219,0
542,5420098,0.07986967265605927,0.09844079613685608,-0.9869267344474792,-0.044426754117012024,0.9855878353118896,-0.3550233244895935,29.8778133392334,-10.240853309631348,40.80301284790039,0
543,5429853,0.029494239017367363,-0.01410680077970028,-1.0205011367797852,0.03853478282690048,0.4171502888202667,0.16597788035869598,30.56194305419922,-10.483443260192871,40.52307891845703,0
544,5439937,-0.058422449976205826,-0.00016060653433669358,-0.9740453362464905,-0.3169555962085724,0.46903684735298157,0.754013180732727,28.13514518737793,-8.615387916564941,39.844120025634766,0
545,5450020,-0.022596675902605057,0.009410287253558636,-1.0116808414459229,-0.2934161424636841,0.09353040158748627,0.39582908153533936,29.369422912597656,-11.387495040893555,39.737876892089844,0
546,5459899,-0.0447833314538002,-0.0945589691400528,-1.014878749847412,0.6910132169723511,0.7259156703948975,-0.38368257880210876,28.78826332092285,-7.94944429397583,40.20903778076172,0
547,5469833,-0.005729605443775654,0.02563021332025528,-1.019709825515747,-0.3194505572319031,0.3485458791255951,-0.08288039267063141,32.27782440185547,-8.959345817565918,40.17757797241211,0
548,5480233,0.026954390108585358,0.004224066622555256,-1.0151309967041016,0.31439703702926636,-1.1184345483779907,-0.2786358892917633,29.348939895629883,-10.341036796569824,40.430419921875,0
549,5489902,-0.05564820393919945,0.056517161428928375,-1.009108543395996,0.2603517472743988,-0.07312936335802078,0.05467597395181656,28.68669891357422,-11.291150093078613,39.58005142211914,0
550,5499799,0.04850942641496658,-0.004375218413770199,-1.0346109867095947,0.4427248537540436,0.22564758360385895,0.0461830236017704,30.014951705932617,-10.607410430908203,37.740203857421875,0
551,5510104,-0.035118989646434784,0.032482657581567764,-1.0185972452163696,-0.5081466436386108,-0.6127216219902039,1.4299710988998413,30.92729949951172,-9.196632385253906,40.853946685791016,0
552,5519894,0.014228061772882938,0.023985115811228752,-1.0009516477584839,-0.6476632952690125,0.2529527544975281,0.3340702950954437,29.40131187438965,-10.838404655456543,38.82316589355469,0
553,5529998,-0.03180256485939026,-0.1455872356891632,-0.9988319277763367,0.6416191458702087,0.09617326408624649,0.284797340631485,31.094066619873047,-9.77469253540039,38.55385208129883,0
554,5540147,0.1008402481675148,0.0716131180524826,-0.9607962369918823,0.4129389226436615,-0.12758614122867584,-0.7773671746253967,31.67426872253418,-9.149508476257324,42.11801528930664,0
555,5549812,0.08982450515031815,0.05585646256804466,-0.9810889959335327,0.9986717700958252,-0.5072492957115173,0.20545193552970886,30.037124633789062,-8.603293418884277,39.95014190673828,0
556,5559940,0.015778375789523125,-0.03088434785604477,-1.0062371492385864,-0.17412860691547394,0.37041136622428894,0.029400566592812538,30.124340057373047,-7.944575309753418,39.818748474121094,0
557,5570035,-0.0015248630661517382,-0.00013464846415445209,-0.9708861112594604,-0.03653113171458244,-0.706839919090271,-0.3924902677536011,29.26936912536621,-10.852619171142578,40.18592834472656,0
558,5579843,0.061599001288414,0.06107408180832863,-0.9990851879119873,-0.7368268966674805,-0.12781168520450592,-0.11255776137113571,31.889331817626953,-9.133071899414062,39.34679412841797,0
559,5590228,0.006913365330547094,0.0025733341462910175,-1.0089143514633179,0.32224589586257935,-1.045060396194458,0.8169814944267273,32.22976303100586,-9.280991554260254,39.934104919433594,0
560,5600125,0.006626104936003685,0.025502759963274002,-1.016294002532959,0.0015522101894021034,-0.7345687747001648,-0.3673607409000397,31.87624740600586,-10.859480857849121,40.75509262084961,0
561,5609997,0.001353519968688488,0.02259174920618534,-1.013366937637329,-1.1068919897079468,0.27035900950431824,0.5764874815940857,30.45277976989746,-9.419648170471191,39.60523223876953,0
562,5620024,0.018308287486433983,0.06029605492949486,-1.002118706703186,-0.43252789974212646,-0.09754469245672226,-0.08955028653144836,29.468782424926758,-9.345108032226562,39.28156280517578,0
563,5630053,-0.004005457274615765,-0.09069474786520004,-0.9877369403839111,-0.6344056129455566,0.24504460394382477,0.7529165148735046,30.270305633544922,-8.79450511932373,39.246620178222656,0
564,5639937,0.026882771402597427,-0.004000700544565916,-1.0131419897079468,0.2838413715362549,-0.6507323980331421,0.17566366493701935,30.43344497680664,-11.063393592834473,39.64459991455078,0
565,5650073,-0.004770880099385977,-0.011280220001935959,-1.004496455192566,0.39033031463623047,-0.5107492208480835,-0.03191410377621651,29.192506790161133,-8.776410102844238,39.86635208129883,0
566,5659886,-0.026334892958402634,0.004326435271650553,-0.9674858450889587,0.007419711910188198,0.5675966143608093,0.8030456900596619,29.899951934814453,-8.775931358337402,38.91218948364258,0
567,5669961,0.11843764036893845,0.017689505591988564,-1.0017601251602173,0.07726697623729706,0.5792816877365112,0.33878976106643677,29.412067413330078,-9.741226196289062,41.42720413208008,0
568,5680007,0.05153520032763481,0.04832964017987251,-0.9918826222419739,-0.48449355363845825,-0.09177593886852264,0.3098512589931488,30.43433380126953,-10.814481735229492,41.66000747680664,0
569,5690250,0.05163492262363434,-0.09029107540845871,-0.9894862771034241,0.3107071816921234,0.0651145651936531,0.766860842704773,30.83851432800293,-10.467486381530762,38.62076187133789,0
570,5699826,-0.00904180109500885,0.011582373641431332,-0.9939954876899719,-0.1376999467611313,0.04665760695934296,1.3206117153167725,28.170066833496094,-10.16301441192627,40.20866775512695,0
571,5710181,-0.026597220450639725,0.0744180902838707,-0.9935805201530457,-0.7115246057510376,-0.5358765721321106,-0.021185673773288727,29.990032196044922,-10.851031303405762,39.61903762817383,0
572,5720126,-0.02804010547697544,0.01770467683672905,-0.9915754199028015,-0.1507248431444168,0.3350546956062317,-0.736440122127533,30.507789611816406,-10.86555004119873,39.22473907470703,0
573,5729991,-0.05931958183646202,0.05377582460641861,-1.0329030752182007,0.052197620272636414,-1.552833080291748,0.19692464172840118,30.086078643798828,-9.675273895263672,40.01461410522461,0
574,5739970,0.07125797122716904,-0.134693905711174,-1.0053372383117676,-0.45236462354660034,0.4329867660999298,0.7995591163635254,29.839492797851562,-10.503705024719238,40.220733642578125,0
575,5750146,0.061700865626335144,0.005929986480623484,-0.9769095778465271,0.15024670958518982,-0.17914386093616486,-0.11204073578119278,30.061853408813477,-8.132132530212402,40.20134353637695,0
576,5760024,0.024417579174041748,-0.04167541116476059,-1.0112897157669067,-0.06394136697053909,0.8032219409942627,0.9981338381767273,27.501131057739258,-8.652210235595703,40.82561492919922,0
577,5770011,0.033454153686761856,-0.021032027900218964,-1.019436240196228,-0.7098671197891235,-0.3652014434337616,0.055659737437963486,30.43465232849121,-9.397479057312012,38.736454010009766,0
578,5780320,0.03702694922685623,-0.11501984298229218,-1.0087045431137085,-0.14381349086761475,-0.40402257442474365,0.10855874419212341,28.860475540161133,-10.529533386230469,39.99610900878906,0
579,5789730,0.04618220031261444,0.06435861438512802,-0.9973229765892029,-0.47014397382736206,0.8317630887031555,-0.011367575265467167,31.663009643554688,-8.41346263885498,39.14409637451172,0
580,5799926,0.0835682824254036,0.030796833336353302,-0.9610546827316284,0.05042938143014908,0.060132287442684174,0.413268119096756,29.92886734008789,-9.190409660339355,40.806495666503906,0
581,5810019,-0.05305222421884537,-0.07591639459133148,-0.997821033000946,-0.7308250069618225,0.2091207355260849,-0.0037885340861976147,30.93229866027832,-10.457673072814941,39.495399475097656,0
582,5819889,-0.027987521141767502,-0.04036060720682144,-1.0254608392715454,-0.04562142491340637,0.4923444092273712,-0.30984267592430115,28.970918655395508,-9.201973915100098,40.69073486328125,0
583,5830162,0.026211919263005257,-0.046204932034015656,-0.9798002243041992,-0.9111692905426025,-0.23010419309139252,0.2890167534351349,32.00804138183594,-9.437224388122559,40.562435150146484,0
584,5840302,0.03980911150574684,0.02523546852171421,-1.0051499605178833,-0.7591755986213684,-0.3171137571334839,0.9640352129936218,29.011720657348633,-9.777353286743164,39.823394775390625,0
585,5849917,-0.10586005449295044,-0.011566792614758015,-1.0031360387802124,0.08512074500322342,-0.005330027546733618,0.7678127288818359,29.855751037597656,-9.664909362792969,39.71039962768555,0
586,5860070,-0.062238290905952454,0.10869354009628296,-0.9857053160667419,0.022125689312815666,0.3739906847476959,-0.5170086026191711,29.709957122802734,-9.087956428527832,39.31287384033203,0
587,5869833,-0.01596461981534958,-0.03340781480073929,-0.9539080858230591,-0.5157149434089661,0.09486404806375504,0.1771179884672165,30.22243309020996,-9.642427444458008,41.27363586425781,0
588,5880085,0.025121061131358147,0.005960370879620314,-1.0378259420394897,0.224781796336174,0.32772472500801086,0.8499866127967834,30.564706802368164,-9.13941478729248,40.953338623046875,0
589,5889965,-0.053760893642902374,-0.06605900824069977,-0.9691455960273743,-0.33972540497779846,0.34333640336990356,0.0553630068898201,30.148151397705078,-10.96863079071045,36.894134521484375,0
590,5899880,0.029277745634317398,-0.024195021018385887,-1.0105040073394775,0.08242256194353104,-0.7956497073173523,-0.09184857457876205,28.923221588134766,-10.320841789245605,41.5738410949707,0
591,5909923,-0.04939551278948784,0.08102858066558838,-1.0053954124450684,-0.5428692102432251,-0.09774661064147949,-1.1701358556747437,29.64706039428711,-9.72008228302002,41.132179260253906,0
592,5919986,0.03260407596826553,0.010372841730713844,-1.0037513971328735,0.2705670893192291,-0.6513083577156067,-0.33137235045433044,29.00659942626953,-9.828783988952637,39.13554763793945,0
593,5930209,-0.040150661021471024,-0.052983809262514114,-1.003279685974121,-0.16480231285095215,-0.447317510843277,0.3453369140625,30.95494270324707,-8.775197982788086,40.27373504638672,0
594,5940068,0.007095385808497667,-0.016517141833901405,-0.9845858812332153,-0.9343772530555725,-0.685214638710022,0.2411368489265442,29.591726303100586,-10.981221199035645,40.200862884521484,0
595,5949955,0.004538532812148333,-0.01918509602546692,-1.0178921222686768,0.1200050413608551,0.067511186003685,0.7221959233283997,27.87092399597168,-10.036576271057129,40.20820617675781,0
596,5960215,0.014546601101756096,-0.07796841859817505,-1.004503607749939,-0.18552783131599426,-0.19467408955097198,0.25647997856140137,32.818931579589844,-10.291621208190918,41.26045608520508,0
597,5970067,0.035939302295446396,0.045596059411764145,-1.0282118320465088,0.3566519618034363,0.2797209322452545,0.2288781702518463,31.45819854736328,-10.813214302062988,39.736061096191406,0
598,5979932,0.0745331272482872,0.04186362400650978,-0.9922248125076294,-0.23819996416568756,0.02811446227133274,0.06862213462591171,29.568506240844727,-8.054405212402344,40.3851203918457,0
599,5990096,0.07868244498968124,-0.004196418449282646,-0.9865659475326538,0.505773663520813,-0.39401867985725403,-0.1289050430059433,30.10132598876953,-10.439860343933105,41.14311218261719,0
600,5999804,-0.035305339843034744,0.017956124618649483,-1.0089490413665771,-1.4714852571487427,-0.05003674700856209,0.34256309270858765,29.868682861328125,-8.66671371459961,39.23265838623047,0
601,6010497,0.042757902294397354,-0.02797439694404602,-1.014777421951294,-0.9511392116546631,0.5837003588676453,0.6738607883453369,29.27099609375,-9.918562889099121,38.48461151123047,0
602,6020049,-0.08712714910507202,0.03205764666199684,-1.0131809711456299,0.45122525095939636,0.11052906513214111,-0.3452347218990326,30.072734832763672,-9.145153999328613,37.81840515136719,0
603,6030343,0.017812218517065048,-0.025653811171650887,-1.0247353315353394,-0.5222713947296143,-0.3413141071796417,0.7460779547691345,28.98177146911621,-9.137574195861816,42.70969772338867,0
604,6040001,-0.07062505185604095,0.008721183985471725,-0.9946876168251038,-0.10364142060279846,-1.348557472229004,-0.7074176669120789,30.70016860961914,-9.166003227233887,38.866207122802734,0
605,6050354,-0.055949341505765915,0.052606627345085144,-1.0164151191711426,0.8113296627998352,-0.03051864355802536,-0.35682544112205505,30.096046447753906,-10.360983848571777,41.48387145996094,0
606,6059851,0.049076829105615616,0.09546038508415222,-0.9831914305686951,0.887429416179657,-0.3413142263889313,-0.7182623147964478,30.525434494018555,-9.309686660766602,39.975746154785156,0
607,6070071,0.008972527459263802,0.01693912409245968,-1.0034866333007812,0.13099005818367004,0.3221472203731537,0.2153753936290741,29.995450973510742,-10.46908950805664,38.40290069580078,0
608,6080011,0.027946194633841515,-0.14319589734077454,-0.970207154750824,-0.8965783715248108,-0.21781639754772186,-0.5579275488853455,29.428213119506836,-8.969339370727539,40.06098175048828,0
609,6090089,0.03491193428635597,0.028087815269827843,-1.0141448974609375,-0.023735154420137405,0.7152142524719238,-0.41799843311309814,26.591882705688477,-9.0153169631958,40.50735092163086,0
610,6100040,0.0031835646368563175,-0.024665337055921555,-0.984947919845581,-0.10252896696329117,-0.2248372733592987,1.5130442380905151,30.876922607421875,-9.281567573547363,40.19229507446289,0
611,6110005,0.005417308304458857,-0.08269216120243073,-0.9491865634918213,0.34516146779060364,-0.614162266254425,-0.6911206841468811,30.843059539794922,-10.506333351135254,41.64341735839844,0
612,6119918,0.043116968125104904,0.11308399587869644,-1.0180617570877075,0.18497909605503082,-0.1496601700782776,1.0714190006256104,27.69211769104004,-8.745890617370605,40.39535903930664,0
613,6130001,-0.035918790847063065,-0.09204442799091339,-0.9717037081718445,-1.077795386314392,-0.06933388113975525,0.3894525170326233,31.384347915649414,-9.399413108825684,39.1214714050293,0
614,6139988,0.04074174910783768,0.016573023051023483,-1.0039745569229126,-0.2936668395996094,-0.4247743785381317,0.3003923296928406,31.31014633178711,-10.658304214477539,39.54398727416992,0
615,6150075,-0.004775047767907381,-0.021127503365278244,-0.9530278444290161,-0.077956423163414,0.10368644446134567,-0.24897095561027527,29.56448745727539,-9.955225944519043,39.612979888916016,0
616,6159802,0.12601815164089203,0.06898043304681778,-0.9775605201721191,0.7006939649581909,0.8374858498573303,0.5801291465759277,28.599885940551758,-9.934673309326172,39.4799919128418,0
617,6170320,-0.05430452898144722,-0.020013859495520592,-1.0162571668624878,0.5114216804504395,0.3587995767593384,0.28614315390586853,28.409757614135742,-11.086861610412598,40.70981979370117,0
618,6179793,0.04188286140561104,0.05334162339568138,-0.9709390997886658,-0.4940209686756134,0.07654081284999847,-0.4159897267818451,28.537519454956055,-10.493758201599121,40.42478942871094,0
619,6190299,0.04127015918493271,-0.01950904168188572,-0.9787679314613342,0.13290271162986755,0.9670490026473999,0.2720635235309601,29.613243103027344,-10.174785614013672,41.55214309692383,0
620,6200302,-0.037893202155828476,-0.02427697367966175,-0.9939730167388916,1.1575555801391602,0.5594004392623901,0.12242834270000458,32.46131896972656,-11.240378379821777,39.98334503173828,0
621,6210054,-0.045109763741493225,-0.04127918556332588,-0.9859786629676819,-0.05413354933261871,0.12042584270238876,0.558584451675415,31.333406448364258,-7.760251998901367,40.79541778564453,0
622,6219805,0.00946478359401226,0.004775893408805132,-1.0007234811782837,-0.19439274072647095,1.186777114868164,0.14235170185565948,30.34848403930664,-9.620222091674805,40.22120666503906,0
623,6230052,0.10240797698497772,0.04234165698289871,-1.0092154741287231,0.6158439517021179,-0.033042922616004944,-0.1814947873353958,29.21975326538086,-9.15473747253418,39.024169921875,0
624,6240035,0.043932169675827026,0.01489680539816618,-0.9845219850540161,0.08341452479362488,-0.47228163480758667,0.3125806450843811,30.135927200317383,-8.77587890625,40.91302490234375,0
625,6249818,0.06808792054653168,0.04596451669931412,-0.9742844700813293,0.2694496810436249,0.3875974416732788,-0.5406525135040283,32.40031051635742,-10.442059516906738,39.68031311035156,0
626,6260002,-0.00036986914346925914,-0.02121257595717907,-0.9782593250274658,0.6781683564186096,-0.1873776614665985,0.36722248792648315,31.05922508239746,-10.987656593322754,39.19973373413086,0
