seq,time_us,ax,ay,az,gx,gy,gz,mx,my,mz,drop_flag
0,0,-0.06498390436172485,0.005862516816705465,-0.9965827465057373,-0.5404171943664551,0.2420184314250946,-0.6340464949607849,27.70748519897461,-9.676986694335938,40.26415252685547,0
1,10089,-0.047506414353847504,0.05214563384652138,-0.9518980979919434,0.42637646198272705,-0.9140538573265076,-0.636757493019104,30.565141677856445,-8.38185977935791,39.686153411865234,0
2,19991,-0.03914697468280792,0.05676976591348648,-0.9733814597129822,-0.34988632798194885,0.5173998475074768,-0.1428065001964569,29.295862197875977,-10.700118064880371,40.85377883911133,0
3,29966,-0.015233977697789669,-0.022797435522079468,-1.0405138731002808,0.8934542536735535,0.03659673035144806,-0.45423048734664917,30.93476676940918,-9.510492324829102,40.00505447387695,0
4,40220,0.05508707836270332,0.01641956716775894,-0.9949867725372314,0.953606903553009,0.5402441620826721,-0.26238659024238586,29.568504333496094,-10.135397911071777,39.826995849609375,0
5,50092,0.03017679788172245,0.09059201925992966,-0.9915544390678406,0.5719771385192871,0.014485427178442478,0.24911577999591827,29.100820541381836,-10.51943302154541,40.65412902832031,0
6,59963,0.05339211970567703,0.09260880202054977,-1.0096296072006226,-0.5625088214874268,0.40664172172546387,0.06897766888141632,28.620906829833984,-11.205097198486328,40.327850341796875,0
7,70205,0.0692957416176796,0.03113841824233532,-0.989979088306427,-0.1968323141336441,-0.35040804743766785,0.5028560757637024,30.217714309692383,-9.318889617919922,42.2764778137207,0
8,80040,-0.026148848235607147,-0.054808109998703,-0.9823041558265686,0.32849422097206116,0.7952443957328796,-0.01811094954609871,30.930374145507812,-10.433131217956543,40.478431701660156,0
9,89940,0.039187148213386536,-0.04688403382897377,-1.00201416015625,0.2792510390281677,-0.4137643277645111,1.0886131525039673,31.866222381591797,-9.695340156555176,38.598846435546875,0
10,99782,0.04252368211746216,-0.08977288752794266,-1.0035974979400635,-0.6482706069946289,-0.052512701600790024,0.018467433750629425,28.568599700927734,-11.269874572753906,39.7963981628418,0
11,110033,-0.014682491309940815,-0.022258590906858444,-0.9862040877342224,0.2547149956226349,-0.26358526945114136,-0.680029034614563,30.090600967407227,-10.818341255187988,38.042728424072266,0
12,119988,-0.009860546328127384,0.08558852970600128,-0.994140088558197,0.19745156168937683,-0.34745144844055176,-0.43650564551353455,29.425634384155273,-10.163451194763184,39.99082946777344,0
13,130074,-0.04853346198797226,0.03070586733520031,-0.9747927188873291,0.24654044210910797,0.16321268677711487,0.04388948529958725,30.08535385131836,-9.989113807678223,40.66002655029297,0
14,140037,-0.042582008987665176,0.03771563619375229,-0.9659715890884399,-0.14016906917095184,0.4594661295413971,-0.29529625177383423,30.886898040771484,-10.866432189941406,40.746307373046875,0
15,150150,0.02515619806945324,0.016015131026506424,-0.9974020719528198,-0.46369773149490356,-0.0024205741938203573,-0.13073870539665222,30.031801223754883,-9.5003080368042,39.580692291259766,0
16,160092,-0.06405239552259445,-0.022542616352438927,-0.9778909683227539,-0.25273746252059937,-0.6823387742042542,0.060603413730859756,30.64682960510254,-10.512462615966797,38.05924987792969,0
17,170110,0.03102024644613266,0.09255123138427734,-0.9918601512908936,-0.3964463770389557,-0.13811902701854706,-0.09849008172750473,32.30237579345703,-9.867635726928711,40.28349304199219,0
18,179922,0.011511050164699554,0.015715520828962326,-1.0284520387649536,-0.2470312863588333,0.4957107901573181,-0.3828704357147217,30.47232437133789,-11.299216270446777,40.21113967895508,0
19,190104,0.00661833630874753,0.002808324061334133,-1.0264043807983398,-0.3088528513908386,-1.0508296489715576,0.7243247032165527,32.18034744262695,-9.212776184082031,39.419593811035156,0
20,199991,0.045285940170288086,0.06334609538316727,-0.9992020130157471,0.11188843846321106,-0.3419376313686371,0.06381828337907791,29.18323516845703,-9.684576988220215,40.350563049316406,0
21,210214,0.007882153615355492,0.01768696866929531,-0.9836737513542175,-0.5182356238365173,-0.17982618510723114,-0.6032986044883728,30.244840621948242,-9.162839889526367,40.129093170166016,0
22,220231,-0.07535768300294876,0.014702376909554005,-1.0209327936172485,-0.41691961884498596,0.19140619039535522,-0.08751697093248367,29.774076461791992,-9.779129028320312,39.93295669555664,0
23,229906,0.07573501020669937,0.025795556604862213,-1.011834740638733,0.21435002982616425,-0.3067088723182678,0.45493435859680176,31.11081886291504,-11.751752853393555,41.82313537597656,0
24,239977,0.029016854241490364,-0.036462146788835526,-0.9698352813720703,0.46372783184051514,1.07704758644104,0.7041447758674622,32.95174026489258,-8.4492769241333,39.678585052490234,0
25,249888,-0.04729524627327919,-0.04985690861940384,-1.0062015056610107,0.5523934364318848,0.5608420968055725,0.9010374546051025,30.96685028076172,-9.28648567199707,41.05060577392578,0
26,259992,0.014925162307918072,0.11369840055704117,-1.009576439857483,-0.2191052883863449,0.1960342526435852,-0.21106566488742828,29.4161376953125,-8.868143081665039,40.716854095458984,0
27,270094,-0.0665012001991272,0.001222313498146832,-0.9894841313362122,-1.00839102268219,-0.317667156457901,-0.13558851182460785,31.395471572875977,-9.760229110717773,40.56657791137695,0
28,280199,0.018288036808371544,-0.05887819826602936,-1.0134704113006592,0.7307332754135132,0.3358524441719055,-0.04975740239024162,30.331947326660156,-9.759511947631836,41.37689208984375,0
29,290252,0.02977660484611988,0.06824249029159546,-0.9948272109031677,0.8400930762290955,0.980193555355072,0.6122578978538513,28.3231201171875,-8.394257545471191,39.518978118896484,0
30,299748,0.0015488741919398308,-0.05960887670516968,-1.019121766090393,-0.46566078066825867,-0.9298223257064819,0.22076290845870972,30.30327796936035,-8.819870948791504,39.455631256103516,0
31,310369,-0.024073174223303795,-0.010730862617492676,-1.0061877965927124,0.009142447263002396,0.026862332597374916,-0.053952597081661224,30.155229568481445,-9.421198844909668,40.32050704956055,0
32,320050,-0.02073967643082142,0.01593194529414177,-1.0005537271499634,-0.0780046135187149,0.4930221140384674,-0.01009537186473608,29.16295623779297,-10.902702331542969,40.76539993286133,0
33,329940,0.04966709390282631,-0.09362363815307617,-0.9884195327758789,0.042821142822504044,0.2878013849258423,0.5755417943000793,28.91065216064453,-10.30323314666748,40.578529357910156,0
34,340248,0.009058739058673382,0.024632399901747704,-1.0353599786758423,0.4515789747238159,-0.6031672954559326,0.8585545420646667,28.14622688293457,-8.474584579467773,39.238677978515625,0
35,349872,-0.011656293645501137,0.005033744499087334,-0.9860356450080872,-0.4163917601108551,0.17471829056739807,-0.46489888429641724,30.282934188842773,-9.1815767288208,39.991416931152344,0
36,360047,0.031234171241521835,0.0011190299410372972,-1.00908362865448,0.18605734407901764,0.6534973382949829,0.4752415418624878,30.04671287536621,-11.088142395019531,41.01387405395508,0
37,370281,0.0759008601307869,-0.014018294401466846,-1.019091010093689,0.8317675590515137,0.4715728163719177,0.3371003568172455,28.294157028198242,-10.25613784790039,41.88800048828125,0
38,380070,0.029994957149028778,-0.08669935911893845,-1.0114295482635498,0.020330585539340973,-1.0188992023468018,0.4361499547958374,29.760601043701172,-10.728102684020996,40.513797760009766,0
39,389719,0.0067006866447627544,-0.03399927541613579,-0.9781866073608398,0.7842959761619568,0.008939624764025211,-0.7971848249435425,29.579544067382812,-10.634332656860352,39.8222770690918,0
40,399723,0.0006393959047272801,0.04248424991965294,-0.9993703365325928,-0.11337780207395554,-0.10333459824323654,-0.5145128965377808,30.03301239013672,-8.198948860168457,38.36005401611328,0
41,410129,-0.004431242123246193,-0.05135520175099373,-1.004717469215393,-0.23812584578990936,0.6959105134010315,-0.031025787815451622,29.174745559692383,-9.330875396728516,40.06310272216797,0
42,420138,-0.025562388822436333,-0.010356990620493889,-0.9917557239532471,-0.02224915847182274,-0.45159411430358887,0.13643674552440643,30.71802520751953,-10.466336250305176,40.96311569213867,0
43,430092,-0.018020493909716606,0.04104367271065712,-0.9981428384780884,0.1840236783027649,0.37900257110595703,0.22472767531871796,29.97399139404297,-11.192358016967773,40.31061935424805,0
44,440053,-0.021222161129117012,0.01165365893393755,-0.9743577837944031,0.1841905415058136,-0.2853606343269348,0.2714381515979767,30.833890914916992,-10.949164390563965,40.31277084350586,0
45,449925,-0.0762283056974411,0.13102786242961884,-1.0303459167480469,-0.15028686821460724,0.12650103867053986,1.0740878582000732,30.868839263916016,-9.408282279968262,40.05952453613281,0
46,460061,0.01222202181816101,-0.02534734643995762,-1.0117580890655518,-0.2027154564857483,0.5662139058113098,-0.3522697389125824,28.7916259765625,-9.869271278381348,40.50978088378906,0
47,469902,0.04342709481716156,-0.008655045181512833,-0.9984815716743469,0.5106137990951538,0.38231366872787476,0.303725004196167,28.191116333007812,-10.108803749084473,39.14312744140625,0
48,479990,0.06365541368722916,0.017554519698023796,-0.9847357273101807,-0.033882252871990204,0.491239458322525,0.7718589305877686,28.221431732177734,-10.402021408081055,38.5355224609375,0
49,489841,-0.02886444330215454,-0.030281823128461838,-0.9830929636955261,0.19526363909244537,-0.4307660460472107,-0.8279639482498169,29.110488891601562,-8.925572395324707,41.8646240234375,0
50,500075,0.11216972768306732,0.0007124419207684696,-0.990031361579895,-0.3319956064224243,-0.42553114891052246,-0.017879517748951912,29.94176483154297,-9.99364185333252,40.65938949584961,0
51,509962,0.03212878853082657,0.02436066046357155,-0.9833755493164062,0.9665656089782715,0.3666449785232544,-0.26078715920448303,27.969778060913086,-9.554219245910645,39.1663932800293,0
52,519960,-0.07100348174571991,0.03381041809916496,-0.9793320298194885,-0.6937157511711121,1.1821861267089844,0.4008767902851105,31.794849395751953,-10.61143684387207,40.127628326416016,0
53,529836,-0.009362847544252872,0.03698462247848511,-1.012753963470459,-0.8455910086631775,0.1042531356215477,0.18093329668045044,28.007749557495117,-9.553619384765625,40.436767578125,0
54,540145,-0.031778790056705475,-0.06274677813053131,-0.9968120455741882,0.09545070677995682,-0.3036032021045685,0.20817556977272034,29.99439239501953,-10.43387508392334,41.33094787597656,0
55,550104,-0.016736187040805817,0.07819163054227829,-1.0081191062927246,0.639078676700592,0.5441272258758545,-0.20454011857509613,30.478614807128906,-9.140214920043945,40.23329544067383,0
56,560050,-0.011500061489641666,0.031548891216516495,-1.0420808792114258,-1.4939159154891968,-0.7185071706771851,0.18675202131271362,29.361358642578125,-9.907729148864746,38.809356689453125,0
57,569933,0.03626164048910141,0.01369074359536171,-1.0193685293197632,0.600985586643219,0.4694325625896454,0.031148714944720268,30.540742874145508,-12.01129150390625,38.54281997680664,0
58,579894,-0.021218590438365936,-0.09468042850494385,-1.009623646736145,-0.0027585704810917377,0.31866443157196045,-0.22139526903629303,29.570470809936523,-8.898262977600098,39.66630172729492,0
59,590430,0.014609182253479958,-0.026805533096194267,-1.03748619556427,-0.08368657529354095,-0.2886859178543091,0.02218337170779705,30.520278930664062,-9.568594932556152,39.32276916503906,0
60,599979,-0.06995347142219543,-0.032627835869789124,-0.9729642868041992,0.29613256454467773,-0.2097425013780594,0.4573915898799896,29.28447151184082,-7.576927185058594,38.75601577758789,0
61,609684,-0.011000310070812702,0.08435889333486557,-1.0192980766296387,-1.6054515838623047,0.6687273979187012,0.1708027571439743,28.928253173828125,-10.571922302246094,40.35428237915039,0
62,620131,0.0031016517896205187,-0.0039066132158041,-0.9771968722343445,0.9334239959716797,0.48805272579193115,-1.2606184482574463,31.13727378845215,-9.771679878234863,39.4724006652832,0
63,630172,-0.04576009884476662,0.0031008936930447817,-0.9849546551704407,0.12899929285049438,-0.16006827354431152,-0.08951374888420105,32.07792282104492,-9.252302169799805,41.6898193359375,0
64,639994,-0.004876395687460899,0.08202972263097763,-1.0009644031524658,0.09648783504962921,0.4241122603416443,-0.27602556347846985,30.103343963623047,-9.367284774780273,40.46030807495117,0
65,650116,0.008324974216520786,0.012383564375340939,-0.9835476875305176,-0.7871933579444885,-0.3111811876296997,0.18562714755535126,29.41705322265625,-10.46634578704834,40.821556091308594,0
66,659976,-0.07579512149095535,0.006481366232037544,-1.0188288688659668,0.7914878726005554,0.8139411807060242,-0.3664487600326538,30.624616622924805,-11.891624450683594,38.22880935668945,0
67,669901,-0.021030841395258904,-0.024903710931539536,-0.9883227348327637,0.013511312194168568,-0.4559824764728546,-0.37730979919433594,29.30539894104004,-9.105376243591309,39.66184997558594,0
68,679916,0.011389576829969883,-0.017503958195447922,-1.0004754066467285,0.45885714888572693,0.05013822764158249,0.05702274292707443,30.67695426940918,-8.989073753356934,40.505645751953125,0
69,690043,0.05507643520832062,-0.032060619443655014,-0.9958601593971252,-0.19039909541606903,0.3705766201019287,0.4561149477958679,29.113149642944336,-10.088150978088379,41.07291793823242,0
70,699877,-0.10106799751520157,0.07562914490699768,-0.9815863966941833,-0.30324000120162964,0.7491317391395569,-0.28284788131713867,28.791240692138672,-10.56204605102539,39.4305534362793,0
71,710103,-0.051321033388376236,-0.041774291545152664,-0.9981284737586975,-0.8014292120933533,-0.44821739196777344,0.31560373306274414,31.052011489868164,-7.601101875305176,39.637210845947266,0
72,719727,-0.015028208494186401,-0.0803074762225151,-1.018312931060791,1.0909502506256104,-0.01196823175996542,0.202631413936615,28.666513442993164,-9.000595092773438,40.79624938964844,0
73,730052,0.02146266959607601,-0.0720478966832161,-1.0180058479309082,-0.2292168289422989,0.17119744420051575,0.9117472767829895,28.719398498535156,-10.306451797485352,40.61063766479492,0
74,739959,-0.0160544291138649,-0.006078557576984167,-1.0204097032546997,0.7009099125862122,-0.14321422576904297,-0.7456971406936646,28.667186737060547,-8.489953994750977,41.02171325683594,0
75,749955,-0.06240946426987648,0.0029448007699102163,-0.9567017555236816,0.11944180727005005,-0.2163708359003067,-0.21616673469543457,30.225666046142578,-9.228314399719238,40.0941276550293,0
76,760161,-0.005403826478868723,0.05660833418369293,-0.9832912087440491,0.34023961424827576,-0.1993488073348999,-0.1961621642112732,30.822172164916992,-10.269214630126953,40.131202697753906,0
77,770012,0.05783413350582123,0.0068102371878921986,-0.9883872270584106,-0.06887688487768173,-0.09449319541454315,0.16203191876411438,29.07042694091797,-9.086051940917969,41.090240478515625,0
78,779866,-0.043329399079084396,-0.08703377097845078,-1.005369782447815,-0.34627464413642883,0.015964770689606667,0.11102928221225739,29.090641021728516,-11.038776397705078,39.33884048461914,0
79,789915,-0.01537161786109209,0.006324737332761288,-0.9646499752998352,0.3953864276409149,0.8654165863990784,0.0040524001233279705,29.76079750061035,-7.953807830810547,40.70771026611328,0
80,799772,-0.0056145829148590565,0.08265280723571777,-1.0186434984207153,-0.016222944483160973,0.374223530292511,-0.34242478013038635,29.24604606628418,-11.210869789123535,40.33143615722656,0
81,809936,-0.020494461059570312,-0.02769414521753788,-1.0146360397338867,-0.13731901347637177,-1.1173943281173706,0.7459267377853394,29.799667358398438,-10.778242111206055,40.7005729675293,0
82,819955,0.05270793288946152,0.0501154288649559,-1.0007332563400269,0.34253188967704773,0.29360607266426086,0.5401089787483215,28.812204360961914,-10.137409210205078,39.810081481933594,0
83,829976,-0.045732561498880386,-0.03155259042978287,-0.9738786816596985,-0.409424364566803,0.25494399666786194,-0.44147223234176636,28.23769760131836,-10.591594696044922,39.347347259521484,0
84,839847,0.007078148424625397,-0.06318004429340363,-0.9739859104156494,-0.5514607429504395,-0.7212324738502502,-0.5012232661247253,29.103221893310547,-10.884018898010254,40.37651824951172,0
85,849839,-0.03905007988214493,0.05522200092673302,-0.9839780926704407,0.2523767650127411,0.29842716455459595,0.300444096326828,28.944650650024414,-10.686419486999512,42.59914779663086,0
86,859988,-0.06668596714735031,0.04391065239906311,-0.9924678802490234,0.240989089012146,-1.2209209203720093,0.028134716674685478,31.161174774169922,-10.059324264526367,40.92230224609375,0
87,869878,0.04224802181124687,-0.03892919793725014,-1.0367095470428467,-0.7469245791435242,0.5065117478370667,0.3444496691226959,29.900680541992188,-10.650049209594727,39.56523513793945,0
88,880096,0.011242933571338654,-0.01126741711050272,-0.9816991686820984,0.4548753499984741,-0.08227571099996567,-0.9599514007568359,30.492910385131836,-9.151534080505371,41.652320861816406,0
89,890001,-0.012179753743112087,-0.03268248960375786,-0.9899163246154785,-0.5371568202972412,-0.37369203567504883,-1.243295431137085,31.01833724975586,-10.36372184753418,39.84278869628906,0
90,900177,0.029061410576105118,-0.04482536017894745,-1.0055699348449707,0.04091205075383186,-0.14472198486328125,0.5738481879234314,28.854537963867188,-10.445862770080566,40.28669738769531,0
91,910101,-0.02207256108522415,0.06590336561203003,-0.9883889555931091,0.15337945520877838,-0.8239948153495789,0.6190897226333618,30.75823974609375,-10.492400169372559,41.12099838256836,0
92,920056,-0.12752847373485565,0.0648856908082962,-1.0316680669784546,0.24116763472557068,-1.1535687446594238,0.9835947155952454,30.243825912475586,-11.302438735961914,40.62398910522461,0
93,929943,0.004061759915202856,0.02533802203834057,-1.0055632591247559,-0.3306663930416107,-0.18146634101867676,-0.39485254883766174,30.721303939819336,-11.01325511932373,39.621437072753906,0
94,939904,-0.07100815325975418,0.0005960597191005945,-0.9856531023979187,0.4631214737892151,-0.6606225371360779,-0.7991350889205933,29.3964786529541,-9.97336196899414,37.94317626953125,0
95,949575,0.12887758016586304,0.03313932940363884,-0.9828674793243408,-0.16661779582500458,0.3832610249519348,-1.030356526374817,31.829118728637695,-11.013392448425293,38.05517578125,0
96,960000,-0.09114350378513336,0.12841789424419403,-0.9995536804199219,-0.284579336643219,-0.48069703578948975,-1.4253534078598022,28.67034912109375,-11.799351692199707,38.960575103759766,0
97,969823,0.021198268979787827,-0.021234380081295967,-1.0119315385818481,0.22283309698104858,0.2143692821264267,0.0495469756424427,29.92892074584961,-8.71640396118164,40.567447662353516,0
98,980125,-0.029203636571764946,-0.012920578010380268,-0.9878683090209961,0.2161531001329422,-0.06419207900762558,-0.2230556458234787,31.558761596679688,-10.811840057373047,39.459747314453125,0
99,989853,-0.08492414653301239,0.07317285239696503,-0.9860897660255432,0.13320818543434143,0.34012603759765625,0.2318374514579773,31.50421714782715,-9.367465019226074,39.287357330322266,0
100,1000000,0.038565389811992645,0.05592208355665207,-0.9591683149337769,-0.3044082522392273,-0.7265332937240601,-0.11160433292388916,30.350351333618164,-9.710169792175293,41.34440994262695,0
101,1010053,-0.05030547454953194,0.025996748358011246,-1.0113301277160645,0.0861535593867302,-0.32426589727401733,-0.1397150605916977,29.8051815032959,-8.366386413574219,40.06644058227539,0
102,1020068,0.06564787030220032,-0.012857223860919476,-1.0272938013076782,0.19487762451171875,0.16546106338500977,0.3355053961277008,29.021198272705078,-9.752589225769043,41.53741455078125,0
103,1029914,0.10049127787351608,-0.038892365992069244,-0.9912261366844177,-0.36447855830192566,-0.5040729641914368,-0.1039290577173233,29.639591217041016,-9.832886695861816,39.89564895629883,0
104,1040081,0.008402885869145393,-0.04918471723794937,-1.0167816877365112,0.5532180070877075,-1.2448786497116089,0.27130377292633057,30.753206253051758,-11.132855415344238,39.4350471496582,0
105,1049692,-0.024878185242414474,-0.02436749078333378,-0.96385258436203,-0.8342084288597107,0.4486641585826874,-0.29563093185424805,29.078792572021484,-10.382627487182617,40.41422653198242,0
106,1060433,-0.07164819538593292,-0.07319755107164383,-0.9778980016708374,0.8037218451499939,0.27319034934043884,0.00026382022770121694,30.26043128967285,-9.271410942077637,37.836708068847656,0
107,1069889,0.021134911105036736,-0.06081090494990349,-0.9941738843917847,-0.7779059410095215,0.4163816273212433,0.7173579335212708,28.635190963745117,-10.285855293273926,40.448394775390625,0
108,1080066,0.0490509532392025,0.01943081244826317,-1.0246946811676025,-0.6092430353164673,0.17578063905239105,-0.3934301733970642,29.527816772460938,-9.112913131713867,39.9110107421875,0
109,1089991,0.01777721382677555,0.022996000945568085,-1.0010896921157837,0.4399172067642212,-0.9131346344947815,-0.4691612124443054,29.33522605895996,-11.378965377807617,41.31488800048828,0
110,1099953,-0.03260825201869011,-0.05915125459432602,-1.0025174617767334,-0.054824065417051315,0.8271366357803345,0.18481501936912537,31.349355697631836,-10.122884750366211,38.542938232421875,0
111,1110011,0.017136864364147186,0.079771488904953,-1.0211081504821777,-0.24549600481987,0.27437034249305725,0.6113452315330505,29.365663528442383,-11.65273380279541,39.68392562866211,0
112,1119779,0.01635570451617241,0.06755010038614273,-1.023199439048767,0.02397947944700718,-0.438510924577713,0.11951287090778351,29.0613956451416,-9.910332679748535,40.18879699707031,0
113,1129993,-0.08049450069665909,-0.012357085943222046,-0.9895240664482117,-0.7200433611869812,0.0792158916592598,0.36187973618507385,28.921524047851562,-11.087808609008789,39.671443939208984,0
114,1139866,0.05317600071430206,0.06343056261539459,-1.0084627866744995,0.29778993129730225,-0.1059647724032402,0.2099635899066925,29.619991302490234,-8.436729431152344,39.39669418334961,0
115,1150226,0.03493751585483551,-0.11876230686903,-0.9984699487686157,-0.3216048777103424,-0.040339432656764984,-0.4522647559642792,31.08550262451172,-7.41991662979126,40.92965316772461,0
116,1160011,0.08391452580690384,-0.007835062220692635,-1.0225034952163696,0.408978670835495,1.0822283029556274,0.3055049479007721,30.683937072753906,-11.112685203552246,38.94515609741211,0
117,1170084,0.022670509293675423,0.03110150434076786,-0.9959400296211243,0.47061601281166077,0.5371626615524292,-0.30295827984809875,30.239009857177734,-11.227755546569824,40.254451751708984,0
118,1180077,-0.0026429323479533195,-0.037267737090587616,-1.020807147026062,1.0693352222442627,-0.20114506781101227,1.2071282863616943,30.569622039794922,-9.522278785705566,41.64904022216797,0
119,1190019,0.014078413136303425,-0.005015694070607424,-0.975744366645813,0.34564560651779175,-0.4185289442539215,-0.5433388352394104,29.727994918823242,-11.755654335021973,40.58539581298828,0
120,1200383,-0.07139808684587479,0.058318182826042175,-0.9944890141487122,0.08015193045139313,0.5998749732971191,-0.0016887167003005743,30.15415382385254,-10.35838508605957,40.57315444946289,0
121,1210138,-0.02510141395032406,0.045216355472803116,-1.0036349296569824,0.3358883857727051,0.6249706745147705,0.16011105477809906,29.162860870361328,-10.15865707397461,37.730674743652344,0
122,1219871,0.008773741312325,0.04088843613862991,-0.9961802959442139,-0.2660010755062103,0.33338361978530884,-0.05461611598730087,30.28122329711914,-9.938896179199219,39.73876953125,0
123,1230074,-0.02326664701104164,0.031055830419063568,-0.997946560382843,0.3717259466648102,0.9352695345878601,-0.4510177969932556,29.575551986694336,-10.918817520141602,41.074317932128906,0
124,1240049,-0.026723427698016167,-0.01182660274207592,-0.99284827709198,0.7109491229057312,0.09875911474227905,-0.4432195723056793,29.98456382751465,-11.186439514160156,41.02214050292969,0
125,1250001,-0.04650091007351875,-0.003986739553511143,-1.0035802125930786,0.9078879952430725,0.27659496665000916,-0.33123070001602173,30.866424560546875,-8.931678771972656,40.889461517333984,0
126,1260178,-0.09948260337114334,0.041310034692287445,-1.0054607391357422,0.6576697826385498,-0.293488085269928,0.5768133997917175,31.12651824951172,-9.484524726867676,40.54323196411133,0
127,1270017,0.041026435792446136,-0.08592968434095383,-0.9964613914489746,-0.46978995203971863,0.29969462752342224,0.7646985650062561,30.175148010253906,-10.150664329528809,40.342044830322266,0
128,1280233,-0.012898742221295834,-0.06385846436023712,-0.9986737966537476,-0.3824653923511505,-0.30046355724334717,-0.7966768145561218,29.841997146606445,-9.086297035217285,40.9166374206543,0
129,1290013,-0.018689582124352455,-0.07141506671905518,-1.0027761459350586,0.3675665557384491,-0.9961031079292297,0.4672811031341553,29.800264358520508,-11.210519790649414,38.32876205444336,0
130,1300036,0.029815487563610077,-0.047579001635313034,-0.9914968013763428,0.6404455304145813,0.314191073179245,-0.7967771291732788,29.48567008972168,-7.5991716384887695,40.48517608642578,0
131,1310006,0.05277262255549431,0.04028879106044769,-1.0203739404678345,1.2702710628509521,-0.6896989941596985,-0.1440669447183609,30.975788116455078,-10.321612358093262,39.80580139160156,0
132,1320017,-0.13751594722270966,0.044467221945524216,-1.0490378141403198,0.11605311930179596,-0.21112658083438873,0.2029874175786972,30.3363094329834,-9.190446853637695,39.03383255004883,0
133,1329835,0.005733224097639322,-0.0461556613445282,-1.023121953010559,0.4449872076511383,-0.5914078950881958,-0.021876489743590355,28.590307235717773,-11.63885498046875,38.473289489746094,0
134,1340021,-0.007631889544427395,-0.03142407909035683,-1.02829110622406,1.2102290391921997,0.06810209900140762,0.22938895225524902,27.808944702148438,-8.864524841308594,39.45904541015625,0
135,1349994,0.08294656872749329,0.04481745511293411,-1.0007338523864746,0.18690134584903717,0.4980625808238983,0.05092514678835869,30.125263214111328,-8.245536804199219,38.13309860229492,0
136,1360117,-0.05889318138360977,0.08764652907848358,-0.9789490699768066,-0.3637341558933258,-0.21924825012683868,0.0649050772190094,28.553617477416992,-11.435673713684082,41.250003814697266,0
137,1370142,-0.03374927118420601,0.05355996638536453,-1.0305099487304688,0.6710116863250732,-0.11858198046684265,-0.08116188645362854,31.241315841674805,-8.096456527709961,38.83409881591797,0
138,1380013,0.015251602046191692,0.025851262733340263,-0.9990397095680237,0.9727281332015991,-0.6021479368209839,0.26904135942459106,29.607189178466797,-10.11177921295166,39.343589782714844,0
139,1390040,0.017124244943261147,-0.07768792659044266,-0.9888771176338196,0.6150135397911072,0.029914434999227524,-0.6749500036239624,28.344289779663086,-9.987032890319824,41.180931091308594,0
140,1400148,0.07024981826543808,0.04255063086748123,-1.0471562147140503,-0.14189426600933075,-0.8137009739875793,0.016174789518117905,33.240875244140625,-8.286532402038574,40.56565475463867,0
141,1410082,-0.07565093785524368,-0.02743740752339363,-1.004565954208374,-0.06560002267360687,0.19136829674243927,0.48402145504951477,30.76580810546875,-11.102550506591797,39.62607192993164,0
142,1420160,0.05938958004117012,0.049989551305770874,-0.9745264649391174,-0.8833723664283752,-0.2510276734828949,0.3104696571826935,31.413249969482422,-11.094169616699219,38.71875,0
143,1430071,0.012746155261993408,0.051622770726680756,-0.9525415301322937,0.17676915228366852,-0.5754822492599487,-0.22718894481658936,30.42157745361328,-10.118881225585938,39.00166702270508,0
144,1440128,-0.007420763373374939,0.004972672555595636,-1.016369342803955,-0.10037104785442352,0.1250748187303543,-0.6799326539039612,30.329130172729492,-10.114031791687012,39.1668815612793,0
145,1450038,0.09209482371807098,0.08048216253519058,-1.0271940231323242,0.09948477149009705,-0.049686819314956665,0.3075622320175171,31.069202423095703,-10.07817554473877,40.49688720703125,0
146,1459717,0.019195977598428726,0.0007814916898496449,-0.9892502427101135,-0.03333045169711113,-0.3817513585090637,-0.32459741830825806,30.12961769104004,-9.48468017578125,38.89121627807617,0
147,1469940,-0.055486418306827545,0.05124574527144432,-0.9643377065658569,-0.6414569616317749,0.40001681447029114,0.9291879534721375,30.494537353515625,-9.434443473815918,39.32027816772461,0
148,1480081,-0.01128911878913641,0.010264175944030285,-0.9963271617889404,0.53736412525177,-0.008450374007225037,-0.0323270745575428,29.981544494628906,-10.528700828552246,39.873985290527344,0
149,1489986,0.025147197768092155,0.014250674284994602,-0.9678571224212646,-0.09367617964744568,-1.1330745220184326,-0.18154092133045197,28.756498336791992,-11.218106269836426,40.464664459228516,0
150,1500005,0.05334879457950592,0.021146230399608612,-1.0047318935394287,0.008549432270228863,0.058356571942567825,-0.012492681853473186,31.097192764282227,-9.45551586151123,40.71058654785156,0
151,1509965,-0.03161133453249931,0.012379275634884834,-1.0006994009017944,0.6208095550537109,-0.6564100980758667,-0.897405207157135,28.058258056640625,-7.418130874633789,40.97514343261719,0
152,1519868,0.04347774386405945,0.0596858412027359,-0.9951083660125732,0.2552723288536072,0.1554301679134369,-0.6593706011772156,28.973447799682617,-7.990889072418213,41.25490188598633,0
153,1529833,0.01559477299451828,-0.054235827177762985,-1.000227451324463,-0.2661437690258026,0.34244802594184875,0.33199256658554077,28.875064849853516,-10.925599098205566,39.043418884277344,0
154,1540193,0.037604909390211105,0.045022670179605484,-1.0216782093048096,-0.7278937697410583,-0.5105798840522766,0.6634034514427185,29.50757598876953,-10.229438781738281,42.036041259765625,0
155,1550005,-0.04621236398816109,0.0677112489938736,-0.9711419343948364,-0.2602057158946991,-0.8098071217536926,0.31453239917755127,31.0028018951416,-9.964009284973145,40.78371810913086,0
156,1559799,0.020979266613721848,-0.03758489713072777,-1.0025690793991089,0.19730421900749207,-0.36409682035446167,0.105463907122612,30.76581573486328,-8.544076919555664,39.47646713256836,0
157,1569784,-0.03171766176819801,0.09602478891611099,-1.0044324398040771,-0.5688555240631104,0.08919534832239151,0.7645480036735535,31.517683029174805,-8.865121841430664,41.548763275146484,0
158,1579931,-0.010454805567860603,0.0454469732940197,-0.9760733842849731,-0.10311456024646759,0.49978819489479065,0.7314638495445251,30.057985305786133,-9.696883201599121,41.70915603637695,0
159,1590136,0.0013103169621899724,-0.030340036377310753,-0.9806044697761536,-0.2149546891450882,-0.14700882136821747,0.48937639594078064,30.6585693359375,-8.672412872314453,40.38926696777344,0
160,1599994,0.0009496991988271475,0.00543553801253438,-1.0080052614212036,0.0023606382310390472,-1.2352532148361206,0.5530056953430176,29.495664596557617,-9.768277168273926,39.462398529052734,0
161,1609853,-0.04944463074207306,-0.020529214292764664,-1.018538475036621,-0.053552012890577316,-0.12406841665506363,-0.4185115396976471,29.944318771362305,-10.521599769592285,39.31867980957031,0
162,1619779,-0.09911133348941803,-0.004365955479443073,-0.9811077117919922,-0.6730794906616211,-0.4083235263824463,0.7109843492507935,28.50648307800293,-9.502652168273926,40.71757125854492,0
163,1630090,0.13110794126987457,0.029473766684532166,-0.9965859055519104,-0.47877952456474304,0.06062329187989235,0.8150866627693176,30.669179916381836,-10.933683395385742,38.67385482788086,0
164,1640016,-0.08567430078983307,-0.04531383886933327,-0.951489269733429,0.7888427376747131,0.5761685967445374,0.6300972104072571,31.088274002075195,-8.868992805480957,37.78520202636719,0
165,1650017,-0.02506529539823532,0.04068223759531975,-0.9639405608177185,-0.26660940051078796,-0.0764031708240509,-0.3374951481819153,30.543764114379883,-11.24068832397461,41.577362060546875,0
166,1660057,0.0038601544220000505,0.03405650332570076,-1.0047334432601929,-0.3733576238155365,-0.12757843732833862,0.3338650166988373,30.88166046142578,-8.201050758361816,38.63800048828125,0
167,1669753,-0.02131243422627449,-0.07014797627925873,-1.0282741785049438,-0.3855379819869995,0.35321924090385437,-0.29640820622444153,31.140716552734375,-9.917951583862305,39.77787399291992,0
168,1679812,-0.04784421622753143,-0.05000733211636543,-1.0299458503723145,-0.8539639115333557,-0.3554442524909973,0.4318069517612457,28.168800354003906,-11.098243713378906,38.80841827392578,0
169,1689841,0.0018982579931616783,-0.07097978889942169,-1.0209736824035645,-0.8879104256629944,0.7698423862457275,0.2729327380657196,28.517303466796875,-9.25491714477539,40.288761138916016,0
170,1699705,-0.005384034011512995,0.010811065323650837,-0.9869493246078491,-0.5247353315353394,-0.04041682928800583,0.6302391886711121,29.873790740966797,-8.321892738342285,41.533931732177734,0
171,1710007,0.028307463973760605,-0.012382368557155132,-0.9812861084938049,-0.6517270803451538,-0.5121423006057739,1.0818341970443726,29.323482513427734,-10.074943542480469,39.37063980102539,0
172,1719817,-0.01315009593963623,-0.007538734469562769,-1.0404613018035889,0.6143834590911865,-0.7484006285667419,0.5004844665527344,29.926570892333984,-10.415547370910645,41.02816390991211,0
173,1730032,-0.08708057552576065,-0.09730468690395355,-0.9592323303222656,0.011231673881411552,0.335461288690567,-0.6951110363006592,30.971681594848633,-8.221227645874023,41.27268981933594,0
174,1740011,0.0532086156308651,-0.06430152803659439,-0.9829907417297363,0.28411397337913513,-0.6914018988609314,-0.8039126396179199,28.337875366210938,-10.144145011901855,39.730133056640625,0
175,1750252,0.04414927214384079,0.057683609426021576,-0.9910712838172913,0.2810344398021698,-0.5725334286689758,0.8299452066421509,30.884483337402344,-10.273444175720215,38.928035736083984,0
176,1759886,0.03893497958779335,0.011032919399440289,-1.0336518287658691,-0.12252536416053772,-0.6439236998558044,0.02262953110039234,31.938377380371094,-9.897873878479004,40.19437026977539,0
177,1769788,-0.00870524626225233,-0.08197012543678284,-0.9847220182418823,0.15500615537166595,-0.6197241544723511,0.5047101974487305,28.790708541870117,-9.88603401184082,40.39122772216797,0
178,1780094,-0.06504543125629425,0.06195217743515968,-0.9994680285453796,0.739081084728241,0.31088173389434814,-0.41807985305786133,29.181154251098633,-10.301145553588867,40.58746337890625,0
179,1790152,0.04125659912824631,-0.061332136392593384,-0.9732753038406372,-0.15927153825759888,0.5232489705085754,0.3163635730743408,30.049938201904297,-11.205941200256348,37.422176361083984,0
180,1800385,-0.07832331955432892,-0.15752184391021729,-0.9939103722572327,0.44407519698143005,0.776729166507721,0.46406006813049316,28.691041946411133,-10.67554759979248,39.705711364746094,0
181,1810147,0.021804554387927055,-0.026235774159431458,-1.0181282758712769,0.1644069105386734,1.2356243133544922,0.5247873663902283,29.879318237304688,-10.990884780883789,37.162471771240234,0
182,1820041,0.07392733544111252,0.07298622280359268,-0.9938684701919556,0.5714924931526184,0.7376883625984192,-0.4569977819919586,29.868276596069336,-8.732247352600098,39.64923095703125,0
183,1829647,0.01079842820763588,0.037413548678159714,-0.9844072461128235,-0.20612552762031555,0.4084044098854065,-0.1455858200788498,29.67259979248047,-10.253661155700684,39.76020812988281,0
184,1839952,-0.09402412176132202,-0.034782104194164276,-1.032356858253479,0.1457846611738205,0.02416878379881382,0.066372349858284,30.07852554321289,-9.279274940490723,39.50807189941406,0
185,1850288,0.010257503017783165,0.02752080373466015,-0.9812601804733276,0.6760953664779663,-0.7149293422698975,0.062432076781988144,29.77899742126465,-10.285715103149414,40.81925964355469,0
186,1859665,0.05244706571102142,-0.02484334260225296,-1.0014392137527466,-0.08332408219575882,-0.08030450344085693,0.25071439146995544,30.425312042236328,-12.077960014343262,40.52743911743164,0
187,1870063,-0.018582414835691452,0.038084641098976135,-0.9958947896957397,-0.07734376192092896,0.6069844365119934,0.30708062648773193,29.373735427856445,-9.126255989074707,40.39705276489258,0
188,1880102,-0.02480323798954487,-0.008502018637955189,-1.0393664836883545,0.15387585759162903,0.2446877807378769,-0.15701040625572205,29.847347259521484,-11.723502159118652,39.87456512451172,0
189,1889813,-0.07663490623235703,-0.011247753165662289,-1.0331228971481323,0.04420741647481918,0.2650289237499237,-0.4292336404323578,29.066619873046875,-12.291044235229492,38.324710845947266,0
190,1899693,-0.06688330322504044,0.06989087164402008,-0.9746993780136108,-0.0963248610496521,-0.3387008011341095,-0.7273795008659363,30.128700256347656,-8.896116256713867,39.48845291137695,0
191,1909839,0.018979324027895927,0.07090690732002258,-0.9738482236862183,-0.3197042942047119,0.6512581706047058,-0.10557355731725693,29.466339111328125,-9.701589584350586,39.7501106262207,0
192,1920217,-0.04749472439289093,0.06044803559780121,-0.9578542113304138,0.15372119843959808,-0.05935739725828171,0.2573574483394623,30.35227394104004,-9.652255058288574,42.338783264160156,0
193,1930139,0.07197389751672745,-0.03204677253961563,-1.0300825834274292,-0.05804876610636711,-0.439104825258255,0.2553347647190094,29.86741065979004,-11.15462875366211,38.90220642089844,0
194,1940004,-0.06191486492753029,0.03567834943532944,-1.0024933815002441,0.24242696166038513,-0.14353911578655243,-0.05367935076355934,28.630752563476562,-10.553699493408203,40.3509635925293,0
195,1950191,-0.12564948201179504,-0.05003641918301582,-1.0044821500778198,0.2860918641090393,-0.014931290410459042,-0.6925642490386963,29.157821655273438,-10.372383117675781,41.59428787231445,0
196,1959757,0.007999302819371223,-0.02838284894824028,-0.9649252891540527,-0.0884261429309845,0.24040043354034424,-0.04095853120088577,29.873720169067383,-9.857808113098145,40.678157806396484,0
197,1970366,-0.010377675294876099,-0.07631563395261765,-1.0091770887374878,-0.4451819658279419,-0.15349222719669342,-0.39394158124923706,30.84395980834961,-9.199426651000977,39.23335266113281,0
198,1979971,-0.029769977554678917,0.139828622341156,-0.9774616956710815,-0.3322996199131012,-0.5568565130233765,-0.09671975672245026,30.332353591918945,-10.841506004333496,41.724342346191406,0
199,1990090,0.03864380344748497,-0.03448313847184181,-0.9897640943527222,0.06395606696605682,-0.17073096334934235,-0.10988052189350128,29.316795349121094,-10.21056842803955,39.58921432495117,0
200,2000083,0.08118519186973572,-0.07360180467367172,-0.9845256209373474,0.26751354336738586,0.975529134273529,0.11553306877613068,30.117673873901367,-7.821767807006836,40.094268798828125,0
201,2010170,-0.04885873571038246,0.07059156894683838,-1.0269495248794556,0.13043028116226196,0.5958243608474731,-0.6725932955741882,28.620960235595703,-9.615487098693848,38.85251998901367,0
202,2019538,-0.056794486939907074,-0.053921569138765335,-1.0009430646896362,1.1227697134017944,-0.28105804324150085,-0.7247849106788635,27.74416160583496,-10.46578598022461,40.45575714111328,0
203,2030302,-0.0012688635615631938,-0.06200903281569481,-0.9869110584259033,0.005034537520259619,-0.9503877758979797,0.41008275747299194,31.45262908935547,-11.31797981262207,40.22084045410156,0
204,2039961,0.028013911098241806,-0.004489983897656202,-1.0184346437454224,-0.3543194830417633,0.2034349888563156,0.3844374120235443,29.925397872924805,-9.951810836791992,40.496517181396484,0
205,2050040,0.007722531910985708,-0.02382856234908104,-0.9931716918945312,-0.2537856698036194,-0.17888638377189636,-0.02574477717280388,29.367507934570312,-8.180602073669434,40.77229690551758,0
206,2060033,0.021859008818864822,0.06072446331381798,-1.0031875371932983,0.41416168212890625,-0.7509147524833679,0.058070242404937744,30.999610900878906,-10.089142799377441,40.53139114379883,0
207,2070236,-0.06702224910259247,0.04985203221440315,-1.0195426940917969,-0.3127008378505707,-0.34956514835357666,0.09934306144714355,29.966854095458984,-9.284842491149902,40.2171516418457,0
208,2079898,-0.006226884666830301,0.02640906348824501,-0.9994101524353027,0.04966358095407486,-0.06461584568023682,0.06193999946117401,28.968748092651367,-10.4706449508667,41.47252655029297,0
209,2090155,0.1403743475675583,-0.007044451776891947,-0.978782057762146,-0.4696888327598572,0.409476101398468,-0.5191863775253296,30.267099380493164,-11.21110725402832,40.61518096923828,0
210,2099889,-0.05028769001364708,0.02588173933327198,-0.9919869303703308,0.403287410736084,0.015725871548056602,-0.45769521594047546,29.462371826171875,-10.484950065612793,40.51178741455078,0
211,2110155,0.057575758546590805,-0.05619541555643082,-1.0035139322280884,1.0010915994644165,0.10059699416160583,-0.05069003626704216,29.011375427246094,-9.97028923034668,39.573665618896484,0
212,2120134,0.056376680731773376,-0.10153279453516006,-0.9934311509132385,0.20810997486114502,-0.48258140683174133,0.10286116600036621,29.667234420776367,-9.574942588806152,40.60818862915039,0
213,2130131,0.028149863705039024,0.006139079108834267,-1.0272194147109985,0.49620458483695984,0.47636979818344116,0.9869497418403625,30.32346534729004,-9.838258743286133,40.316097259521484,0
214,2139834,-0.08762942999601364,-0.04673847556114197,-0.9962207078933716,0.4426047205924988,-0.7038058042526245,1.2315733432769775,30.460247039794922,-9.347301483154297,39.46553421020508,0
215,2149988,0.096078060567379,-0.03992391377687454,-1.0006085634231567,-0.5887137651443481,-0.32924115657806396,-0.3551376760005951,29.392112731933594,-12.055490493774414,40.891868591308594,0
216,2160007,0.02855844981968403,-0.06808661669492722,-0.9798780083656311,0.5169133543968201,0.56300288438797,0.15441307425498962,31.364469528198242,-12.280083656311035,41.17323303222656,0
217,2170077,-0.022229721769690514,0.02388850972056389,-0.9812244772911072,0.6031263470649719,-0.30875006318092346,0.7015057802200317,30.617761611938477,-8.781208992004395,38.9588508605957,0
218,2180139,-0.021174587309360504,0.049198996275663376,-0.9992658495903015,-0.659008264541626,-0.13362164795398712,-0.02598755806684494,29.854389190673828,-10.143335342407227,37.63823318481445,0
219,2189952,-0.03382663056254387,0.061284471303224564,-0.9900717735290527,-0.07230263203382492,-0.5384981632232666,0.5165576338768005,29.779579162597656,-9.463444709777832,39.512794494628906,0
220,2200325,-0.03703296557068825,-0.09905102849006653,-0.9890453219413757,0.5447448492050171,-0.04833490774035454,-0.8135637044906616,29.98627471923828,-7.856266498565674,38.74631881713867,0
221,2210173,-0.040692225098609924,0.02205396629869938,-0.9648206830024719,-0.022216496989130974,0.12403937429189682,-0.2633999288082123,29.771865844726562,-9.94524097442627,39.846641540527344,0
222,2219737,-0.06837140768766403,0.06976989656686783,-0.9886255860328674,-0.4881594777107239,0.3619382977485657,0.07665432244539261,31.41976547241211,-11.63744831085205,40.15701675415039,0
223,2230150,0.02261526510119438,0.012411723844707012,-0.9972448348999023,0.15265586972236633,0.2611440420150757,-0.3533402383327484,28.151912689208984,-10.796714782714844,40.716468811035156,0
224,2239881,-0.02985508367419243,0.0018538313452154398,-1.0129228830337524,-0.4613479673862457,0.07776451855897903,-0.20571094751358032,28.54670524597168,-8.553397178649902,38.43627166748047,0
225,2249988,-0.06258431822061539,-0.028999492526054382,-0.9953484535217285,0.21374103426933289,0.419348806142807,0.08853315562009811,29.24959373474121,-9.112724304199219,39.82573699951172,0
226,2260316,0.04115072265267372,0.03654242679476738,-1.0306082963943481,0.6933593153953552,-0.4299030005931854,0.3256189525127411,30.8185977935791,-9.096855163574219,40.18117141723633,0
227,2270010,0.08395441621541977,0.04596809670329094,-0.9786711931228638,0.22268228232860565,0.41875359416007996,0.3151848614215851,31.170331954956055,-8.870376586914062,40.01081085205078,0
228,2280008,0.019826754927635193,-0.012805527076125145,-1.001734972000122,0.01713215932250023,0.18040403723716736,-0.6459050178527832,28.644737243652344,-10.13023853302002,40.82957077026367,0
229,2289913,0.0335688479244709,0.003179405117407441,-1.0004515647888184,-0.7321584820747375,-0.36433321237564087,0.16926178336143494,30.23227310180664,-8.531923294067383,42.10548400878906,0
230,2300023,-0.007023869547992945,0.012213421985507011,-0.9979012608528137,0.019354695454239845,-1.0586168766021729,0.4593936502933502,30.313217163085938,-10.290926933288574,38.849613189697266,0
231,2310166,-0.0039561428129673,-0.06722389906644821,-0.9994567632675171,-0.6154314279556274,-0.11017558723688126,1.039535641670227,30.69362449645996,-8.253951072692871,41.87687683105469,0
232,2319777,-0.1098698303103447,-0.03196147084236145,-1.0276353359222412,-0.594847559928894,-0.4948495328426361,0.056362323462963104,29.215534210205078,-10.871866226196289,39.26496887207031,0
233,2329750,-0.037560734897851944,0.05726201832294464,-0.9920392036437988,0.5533884167671204,0.3415681719779968,-0.31828436255455017,30.632240295410156,-11.863018035888672,40.74286651611328,0
234,2339869,-0.05378958582878113,-0.05809576436877251,-1.0117675065994263,-0.918418824672699,0.7069700956344604,-0.2806614339351654,30.170406341552734,-11.197589874267578,39.80582809448242,0
235,2350065,0.011854121461510658,0.030300114303827286,-0.9889070987701416,-0.042449165135622025,0.5580524206161499,0.15650096535682678,31.952348709106445,-8.6137113571167,40.2764892578125,0
236,2359945,-0.0339813157916069,0.03654813766479492,-1.0263032913208008,-0.030596325173974037,-0.14181071519851685,-0.24160879850387573,29.73118782043457,-8.925622940063477,39.54594802856445,0
237,2369928,-0.01926076039671898,-0.015035060234367847,-1.021877646446228,0.4234587252140045,0.2647416293621063,-0.4227488934993744,30.158823013305664,-9.527228355407715,39.13301467895508,0
238,2380206,-0.04868287593126297,0.05917857214808464,-0.9973942637443542,-0.7585301995277405,-0.02183353342115879,0.6767488718032837,29.649477005004883,-9.858607292175293,41.34696578979492,0
239,2389933,0.07922634482383728,0.005259954370558262,-1.0173084735870361,-0.30094578862190247,-0.2826184332370758,0.6688844561576843,29.698514938354492,-11.712395668029785,39.12358474731445,0
240,2400171,-0.04421340674161911,0.09296865016222,-1.0600297451019287,-0.7051735520362854,-0.052479226142168045,-0.05182737112045288,31.722766876220703,-9.741829872131348,40.66197204589844,0
241,2409871,-0.029690487310290337,-0.05145704373717308,-1.010417103767395,-0.06934786587953568,0.4664139151573181,-0.4002517759799957,31.305994033813477,-10.483563423156738,39.59851837158203,0
242,2420055,-0.016646601259708405,-0.0664731115102768,-1.040450930595398,-0.7411673069000244,0.3811480700969696,-1.5868325233459473,32.23490524291992,-8.859367370605469,39.9741096496582,0
243,2429910,-0.06433946639299393,0.052458908408880234,-0.9975841045379639,0.17955519258975983,-0.39742207527160645,-0.5206438899040222,29.8756046295166,-10.902198791503906,39.455230712890625,0
244,2440037,0.0480353981256485,0.0422838069498539,-1.008603572845459,-0.26998233795166016,-0.2732638418674469,0.6402216553688049,28.448570251464844,-10.060901641845703,39.54201126098633,0
245,2450095,0.0014786336105316877,0.03918153792619705,-1.0196239948272705,0.14507608115673065,0.7168399095535278,0.5912836194038391,27.878780364990234,-10.767125129699707,38.94651412963867,0
246,2459939,0.07813214510679245,-0.026919793337583542,-1.0445530414581299,0.49261170625686646,-1.3044114112854004,-0.17812307178974152,29.249881744384766,-11.182648658752441,39.966087341308594,0
247,2470004,-0.00748590799048543,-0.09782695025205612,-1.0216370820999146,-0.787567675113678,-0.18277442455291748,-0.5225582718849182,29.65393829345703,-11.052722930908203,38.12383270263672,0
248,2479899,-0.007540710270404816,-0.012465489096939564,-1.0152177810668945,-0.08846194297075272,-0.32007449865341187,-0.3518052101135254,29.038654327392578,-10.357766151428223,38.94449234008789,0
249,2490096,0.03444577381014824,0.01189668569713831,-1.0158004760742188,1.2334845066070557,0.18993814289569855,0.8568058013916016,30.79621696472168,-10.47855281829834,38.65437316894531,0
250,2500036,0.04179765284061432,0.01253410056233406,-1.002469539642334,-0.5080773830413818,-0.8678498268127441,0.3469568192958832,30.559364318847656,-9.856592178344727,40.06843566894531,0
251,2510005,0.028068644925951958,-0.09030009806156158,-1.015884518623352,0.11920765042304993,0.4377085864543915,-0.06559741497039795,30.764253616333008,-9.882672309875488,40.8743896484375,0
252,2520121,-0.028244782239198685,0.06812123209238052,-0.9853240251541138,-0.13687263429164886,-0.3981906771659851,0.2018064707517624,29.749130249023438,-10.132448196411133,39.559661865234375,0
253,2530186,0.015282378531992435,-0.06593860685825348,-0.9657292366027832,0.15450255572795868,0.20416320860385895,-0.24297977983951569,29.626428604125977,-10.807223320007324,41.613563537597656,0
254,2540079,0.03944886475801468,-0.031768154352903366,-0.994392454624176,0.11842881888151169,0.5630029439926147,-0.49833178520202637,29.403846740722656,-10.222662925720215,39.99424362182617,0
255,2549905,0.06289830058813095,0.05276435241103172,-0.9847610592842102,-0.1745799034833908,-0.5119487643241882,0.3405393064022064,29.53308868408203,-11.447763442993164,40.790740966796875,0
256,2560308,-0.009828869253396988,-0.11006370186805725,-0.9931429624557495,-0.5352711081504822,0.0032018283382058144,0.12972675263881683,30.585739135742188,-10.832015037536621,38.78812026977539,0
257,2569974,-0.03661609813570976,-0.025937337428331375,-1.0060302019119263,-0.15825028717517853,0.3953481614589691,-0.19814437627792358,30.215045928955078,-11.125783920288086,41.25307846069336,0
258,2579896,-0.04497707635164261,-0.036092206835746765,-1.0194416046142578,0.17010502517223358,0.43375658988952637,-0.29426467418670654,30.95785140991211,-9.855510711669922,40.887107849121094,0
259,2589785,0.0604361966252327,0.05714128911495209,-1.0108317136764526,0.9337260127067566,-0.12642168998718262,0.6393566727638245,30.224437713623047,-10.216155052185059,40.89185333251953,0
260,2599906,0.02357553504407406,0.03400026261806488,-1.0059245824813843,0.4220356047153473,-0.3817559480667114,0.6045194864273071,30.58810043334961,-9.930190086364746,40.02455520629883,0
261,2610047,0.017774011939764023,0.023700900375843048,-0.9749321937561035,-0.27253425121307373,0.18518607318401337,-0.0700748860836029,30.618431091308594,-10.923264503479004,42.415733337402344,0
262,2619748,0.05346750468015671,-0.002281730528920889,-0.9918239116668701,0.21654820442199707,0.49374833703041077,0.5015254616737366,29.526851654052734,-10.062029838562012,40.58070373535156,0
263,2630014,-0.1486859768629074,0.020222753286361694,-0.9886600971221924,-0.14318913221359253,-0.2628237307071686,0.24679836630821228,31.772214889526367,-10.376447677612305,38.19766616821289,0
264,2639910,-0.02632475458085537,0.07874725759029388,-0.9838215708732605,0.2642064094543457,0.2960817813873291,0.24266286194324493,27.97950553894043,-10.184814453125,38.77296447753906,0
265,2650008,0.005855655297636986,-0.03931654617190361,-1.0106791257858276,0.08050011843442917,0.011056515388190746,0.5319627523422241,30.073713302612305,-9.925589561462402,39.09284591674805,0
266,2660002,-0.03320908546447754,0.018120452761650085,-1.0288288593292236,-0.8177421689033508,-1.031145691871643,-0.4313247799873352,30.383562088012695,-8.267333030700684,40.02356719970703,0
267,2670121,0.03857417032122612,-0.0784633606672287,-0.9677577018737793,0.30673012137413025,-0.3502734303474426,-0.8436376452445984,30.49968910217285,-11.084495544433594,40.461891174316406,0
268,2679763,-0.03064139001071453,-0.018682485446333885,-0.9663963317871094,0.2630850076675415,0.6921472549438477,0.2924186587333679,28.89494514465332,-9.722407341003418,41.687294006347656,0
269,2689907,0.003246295964345336,-0.11411677300930023,-1.0135074853897095,0.040284428745508194,-0.0757080689072609,0.563987672328949,30.444761276245117,-8.674378395080566,39.21186065673828,0
270,2700136,0.01570330373942852,-0.01711798831820488,-0.9903596639633179,0.3519243896007538,0.21553395688533783,0.6359240412712097,29.045166015625,-10.45503044128418,40.67576599121094,0
271,2710000,0.07084663957357407,0.005739531479775906,-1.0234624147415161,1.509781837463379,-0.15431222319602966,-0.6477739810943604,30.390583038330078,-8.896709442138672,38.781272888183594,0
272,2720007,-0.006218970753252506,0.0854615792632103,-0.9852184057235718,-1.100739598274231,-0.10551802814006805,0.2976846396923065,30.477590560913086,-9.771871566772461,40.576263427734375,0
273,2730201,-0.008400782942771912,0.033494774252176285,-0.9738504886627197,0.38295283913612366,0.05661949887871742,0.34866565465927124,28.87886619567871,-7.818957328796387,40.349971771240234,0
274,2739887,-0.0078210961073637,0.05125200375914574,-1.0235066413879395,-0.5307475924491882,-0.3142157196998596,-0.688339352607727,31.95143699645996,-9.610280990600586,39.05866241455078,0
275,2750013,-0.07996013760566711,-0.11301373690366745,-0.9924400448799133,-0.7364932894706726,-0.1085982471704483,0.11724983155727386,29.39236068725586,-10.964334487915039,40.55971908569336,0
276,2759935,0.026825090870261192,0.028179576620459557,-0.9971932172775269,0.6019869446754456,-0.19287711381912231,-0.08720497041940689,30.05113410949707,-9.398090362548828,39.669654846191406,0
277,2769824,0.07299654930830002,0.04750702530145645,-0.9851879477500916,-0.2778073251247406,-0.19655337929725647,0.4763505756855011,30.751676559448242,-8.28596305847168,40.36243438720703,0
278,2780242,0.0012834907975047827,-0.11119300127029419,-1.0480420589447021,0.5202513337135315,0.08328132331371307,-0.2185455560684204,30.34101676940918,-9.686427116394043,39.51388168334961,0
279,2789828,0.06451968103647232,-0.031404539942741394,-1.0104360580444336,-0.33024439215660095,0.36431771516799927,-0.7068226933479309,30.603628158569336,-8.959432601928711,39.02665710449219,0
280,2799926,0.03319603204727173,0.02905275672674179,-0.9919042587280273,-0.4815830886363983,0.7308764457702637,0.05897857993841171,29.17950439453125,-9.227910041809082,40.68385696411133,0
281,2810076,-0.08515346795320511,-0.05160795897245407,-0.9919006824493408,0.37902864813804626,0.493675172328949,0.34109461307525635,28.53214454650879,-9.79558277130127,38.841304779052734,0
282,2819597,0.07412008941173553,-0.015368875116109848,-0.9998692870140076,-0.0583050400018692,-0.1831207424402237,0.040069326758384705,30.40909767150879,-10.046995162963867,38.35253143310547,0
283,2829813,0.06508509814739227,-0.04489196464419365,-0.995235025882721,-0.6689911484718323,-0.056754667311906815,1.1226087808609009,30.99150276184082,-8.339434623718262,41.037376403808594,0
284,2840005,0.013616744428873062,-0.036901287734508514,-1.0266964435577393,-0.4327811002731323,-0.006515423767268658,-0.164077028632164,30.05219078063965,-10.551421165466309,39.150630950927734,0
285,2849876,0.05388280376791954,0.03077864833176136,-0.9859635829925537,-0.2998388707637787,0.19563451409339905,0.03290807828307152,30.410669326782227,-9.398298263549805,39.307064056396484,0
286,2859933,0.04222077876329422,-0.00756756542250514,-0.9880982637405396,0.19814205169677734,-1.5172477960586548,-0.03360464423894882,29.968217849731445,-9.26603889465332,39.773399353027344,0
287,2869856,0.0886903703212738,0.060165923088788986,-0.9734998345375061,0.16178131103515625,-0.569202184677124,0.02309378609061241,29.5789852142334,-10.73451042175293,38.1445198059082,0
288,2879734,-0.0606011226773262,-0.0046368492767214775,-1.0089842081069946,-0.22959719598293304,0.21939775347709656,0.5138779878616333,29.155658721923828,-10.200132369995117,40.62745666503906,0
289,2890095,0.009304648265242577,-0.035439975559711456,-0.9982110857963562,-0.37465721368789673,0.6086062788963318,0.6041540503501892,31.303321838378906,-10.557103157043457,40.73899841308594,0
290,2900083,-0.060723185539245605,-0.0710383951663971,-1.0138981342315674,-0.21525143086910248,0.7518829703330994,0.9513230323791504,31.10044288635254,-10.096975326538086,40.7223014831543,0
291,2909945,0.07094645500183105,0.01209472119808197,-1.010467767715454,-0.3628549575805664,-0.3907357454299927,-0.461803674697876,29.170326232910156,-10.790047645568848,39.77081298828125,0
292,2919813,-0.004653520882129669,0.05188755691051483,-1.0021957159042358,0.021591927856206894,0.09910033643245697,-0.503296434879303,31.545257568359375,-10.6301908493042,41.52762985229492,0
293,2929991,-0.0013721953146159649,0.053534310311079025,-0.9729709029197693,0.2725509703159332,-0.808900773525238,-0.43294018507003784,30.40259552001953,-9.435075759887695,40.10600662231445,0
294,2940159,-0.06564566493034363,0.05443381518125534,-1.0380001068115234,1.0288985967636108,0.13667438924312592,-0.6676251292228699,29.133968353271484,-10.214303016662598,40.1345100402832,0
295,2949708,-0.025545457378029823,0.00644371472299099,-1.016878366470337,-1.272802710533142,-0.3032914996147156,-0.7316519618034363,29.333154678344727,-9.251819610595703,40.83512878417969,0
296,2959857,0.014099317602813244,-0.06618595868349075,-0.9863507151603699,-1.023901343345642,-0.6885632872581482,-0.7359141111373901,31.651939392089844,-10.835902214050293,39.75157928466797,0
297,2969952,0.042413853108882904,-0.034930214285850525,-1.0126709938049316,-0.7727257609367371,-0.2200804501771927,1.6384303569793701,29.202472686767578,-11.832298278808594,39.727718353271484,0
298,2979921,-0.022850103676319122,-0.06439531594514847,-1.0302802324295044,-0.15014512836933136,-0.5067850351333618,0.3815912902355194,29.52376365661621,-8.82174015045166,42.63194274902344,0
299,2989792,0.06396084278821945,-0.06975759565830231,-0.9848491549491882,0.35604360699653625,-0.613957941532135,-0.4601193964481354,30.7191219329834,-12.552379608154297,41.43964767456055,0
300,3000291,0.013057692907750607,-0.058037009090185165,-0.9699284434318542,-0.5543519854545593,0.06717471033334732,-0.08697681128978729,30.290056228637695,-9.815852165222168,38.54261016845703,0
301,3010209,0.019392795860767365,0.039755679666996,-1.0606571435928345,0.5626834630966187,0.22846566140651703,0.2096928358078003,31.61089515686035,-8.942380905151367,41.36811828613281,0
302,3019964,-0.0711488127708435,0.014710531570017338,-0.9904511570930481,-0.35553497076034546,0.46261531114578247,-0.3454386591911316,28.081174850463867,-11.332942962646484,40.08905792236328,0
303,3029972,0.02474023401737213,0.0005790289142169058,-0.9791718125343323,-1.1284419298171997,-0.4025571048259735,0.41073644161224365,31.453022003173828,-9.302370071411133,41.79148864746094,0
304,3040035,0.008041354827582836,0.01837720163166523,-1.0253933668136597,-0.08497044444084167,-0.3416745960712433,0.7918106913566589,30.087833404541016,-9.28068733215332,41.17253875732422,0
305,3049868,0.006931273266673088,-0.07058842480182648,-1.008912444114685,0.4230717122554779,0.11772169917821884,-0.7030295133590698,31.396310806274414,-10.521265983581543,39.38584518432617,0
306,3060043,0.030667055398225784,0.03218237683176994,-0.9783575534820557,-0.3798386752605438,0.6814417243003845,-0.1653233766555786,31.620281219482422,-8.966940879821777,39.53409194946289,0
307,3070106,0.0002498029207345098,0.0002808240824379027,-0.9852980971336365,0.5301898717880249,-1.0179657936096191,0.20001253485679626,29.21724510192871,-8.987730979919434,42.06501388549805,0
308,3080074,-0.05934179574251175,-0.04659739136695862,-1.0161203145980835,0.27590665221214294,0.018084650859236717,-0.3591248095035553,29.415979385375977,-9.320850372314453,40.82575607299805,0
309,3089780,0.04543555900454521,0.0070396666415035725,-0.9735632538795471,0.04325353726744652,0.15767061710357666,0.6585014462471008,29.49982452392578,-10.594134330749512,39.484901428222656,0
310,3100028,-0.001256414339877665,-0.03633033484220505,-0.9951426982879639,-0.24682080745697021,0.07289678603410721,0.1067763939499855,32.10693359375,-10.788846969604492,39.199241638183594,0
311,3109758,-0.04738575592637062,0.011326054111123085,-1.0158683061599731,-0.179537832736969,0.3423779606819153,-0.5784200429916382,30.525959014892578,-8.713945388793945,38.31113815307617,0
312,3119964,0.0006392893265001476,0.02276606485247612,-1.0224701166152954,0.07099097967147827,0.4949187636375427,-0.8664607405662537,31.1468448638916,-9.283905982971191,38.48073959350586,0
313,3130051,-0.12581384181976318,-0.0364830419421196,-0.9476829767227173,-0.12418122589588165,0.14319850504398346,0.40858301520347595,29.74216651916504,-11.583700180053711,40.7640266418457,0
314,3140141,-0.042961977422237396,-0.021844808012247086,-0.9794020652770996,-0.5269541144371033,0.19035525619983673,0.033757369965314865,29.1190242767334,-10.354201316833496,39.023345947265625,0
315,3149968,0.039663854986429214,0.01467303279787302,-1.016486644744873,0.8250952363014221,0.21632039546966553,-0.4030953347682953,30.39059066772461,-10.86335277557373,40.22243881225586,0
316,3160021,-0.13595978915691376,0.019368641078472137,-1.01364266872406,-0.06194973364472389,1.0412286520004272,0.06193309649825096,30.496429443359375,-8.766454696655273,40.023643493652344,0
317,3169730,-0.017229558899998665,0.01121914479881525,-0.9956145286560059,1.0063198804855347,0.1851300448179245,-0.12338392436504364,30.477859497070312,-10.369099617004395,39.14981460571289,0
318,3179976,0.12570929527282715,0.05333312973380089,-0.9743684530258179,-0.18425902724266052,-0.05550561845302582,-0.17670518159866333,28.634504318237305,-10.889595985412598,39.38081359863281,0
319,3189987,0.008534306660294533,-0.017355388030409813,-1.0659291744232178,-0.1653987318277359,-0.010502527467906475,-0.5134932398796082,29.77075958251953,-10.455485343933105,40.29888916015625,0
320,3200205,-0.08045075088739395,0.009701866656541824,-0.9942528009414673,0.021760793402791023,0.19955101609230042,-1.0590413808822632,30.134286880493164,-10.743827819824219,40.469600677490234,0
321,3209970,0.051950499415397644,-0.04029041528701782,-1.0133798122406006,-0.30103254318237305,-0.13070596754550934,0.49717459082603455,30.35577392578125,-9.048905372619629,39.890586853027344,0
322,3219953,-0.022610260173678398,0.004637628328055143,-0.9547917246818542,-0.3891616761684418,-0.5689592361450195,-0.18967492878437042,30.00120735168457,-11.372876167297363,43.007781982421875,0
323,3230048,0.07905782014131546,0.053079478442668915,-0.9905091524124146,-0.4240468740463257,-0.5402615070343018,0.6500571966171265,29.268728256225586,-9.454063415527344,39.11921691894531,0
324,3240028,0.05413715913891792,0.04755370691418648,-0.9899009466171265,-0.5748611092567444,0.27659380435943604,-0.4297298789024353,27.93767738342285,-9.894482612609863,39.56024932861328,0
325,3250135,-0.08181491494178772,-0.003718015970662236,-1.0480825901031494,0.3474676311016083,0.19774097204208374,0.16243603825569153,30.0937442779541,-9.765079498291016,39.5634651184082,0
326,3260011,-0.045209284871816635,0.01986638270318508,-0.9683418273925781,0.40864092111587524,0.943673849105835,-0.32307296991348267,31.444299697875977,-8.18240737915039,40.24971389770508,0
327,3270110,-0.030980192124843597,0.046683356165885925,-1.009997844696045,-0.39353662729263306,0.5902079939842224,-0.3575451672077179,30.10643768310547,-8.551581382751465,40.60712814331055,0
328,3280130,-0.0022729041520506144,-0.09129935503005981,-0.9944170713424683,0.005439610220491886,-0.13193412125110626,-0.13988928496837616,30.691665649414062,-9.711956024169922,39.578948974609375,0
329,3290038,-0.07645577192306519,0.016611110419034958,-0.992954432964325,0.28182438015937805,0.24307720363140106,-0.28377965092658997,29.733125686645508,-10.27718734741211,40.33210754394531,0
330,3299760,-0.027962204068899155,0.1481950283050537,-1.0125972032546997,-0.07242333143949509,-0.09532565623521805,0.7489022016525269,29.290668487548828,-10.8610200881958,39.91734313964844,0
331,3310168,0.05653327330946922,-0.08317591995000839,-1.0157520771026611,0.22634825110435486,-0.1289491355419159,-0.2385118454694748,29.080272674560547,-10.178994178771973,39.38182830810547,0
332,3319858,-0.10145791620016098,-0.06631708145141602,-1.0603855848312378,-0.3400965929031372,-0.01875973679125309,-0.6637003421783447,29.759382247924805,-9.594746589660645,39.02007293701172,0
333,3330295,-0.031098276376724243,0.08641290664672852,-1.0373822450637817,0.49814844131469727,0.13189032673835754,0.25516989827156067,30.47565269470215,-8.762657165527344,38.82436752319336,0
334,3340264,0.07229341566562653,0.08534841984510422,-1.0114068984985352,-0.10609415918588638,-0.2701495885848999,-0.007775723934173584,27.994274139404297,-8.244721412658691,38.17940139770508,0
335,3350174,-0.11000754684209824,-0.03502114117145538,-0.980981171131134,-0.2558531165122986,-0.13646912574768066,-0.31995144486427307,28.825725555419922,-9.957351684570312,41.21364212036133,0
336,3360006,-0.06389641761779785,0.031869981437921524,-1.0109195709228516,0.1925092339515686,0.9230067729949951,0.19207599759101868,31.507078170776367,-8.832804679870605,40.03917694091797,0
337,3370018,0.009166340343654156,0.02203543297946453,-0.9809515476226807,0.0939675122499466,0.2169438600540161,-0.39525529742240906,30.1125431060791,-8.15046215057373,40.93907928466797,0
338,3380045,0.058990687131881714,-0.029421625658869743,-1.0235750675201416,-0.22421212494373322,0.5773831605911255,0.44755029678344727,29.415756225585938,-9.02728271484375,40.28742599487305,0
339,3389894,0.04096713662147522,-0.09514284878969193,-0.9902493357658386,0.30431148409843445,0.12922894954681396,-0.13193564116954803,30.136754989624023,-9.783975601196289,39.6417350769043,0
340,3399941,0.06606180965900421,0.07426857948303223,-0.99147629737854,-0.447748601436615,0.48337313532829285,0.3162129819393158,30.26175308227539,-8.814111709594727,39.615272521972656,0
341,3410213,-0.0232381671667099,-0.01598084531724453,-1.0032169818878174,-0.037864912301301956,0.7456070780754089,-0.6692994832992554,29.839542388916016,-10.06893253326416,39.5634765625,0
342,3420052,-0.0006689116708002985,0.05335298180580139,-0.9961482882499695,-0.19137826561927795,-0.31838223338127136,0.30728262662887573,30.93505096435547,-9.795287132263184,40.317840576171875,0
343,3429960,0.0194548312574625,-0.03181808441877365,-1.0006659030914307,0.2437094897031784,0.3039554953575134,0.07249655574560165,31.027637481689453,-12.778162002563477,37.59901428222656,0
344,3439994,-0.04757636412978172,-0.04591229185461998,-0.9561534523963928,-0.45603126287460327,0.5367106795310974,-0.34346574544906616,27.248512268066406,-8.893536567687988,39.90412139892578,0
345,3450003,0.002872649347409606,0.012000693939626217,-0.992854118347168,0.08687753230333328,0.37184280157089233,-0.5762802958488464,30.51326560974121,-10.49053955078125,38.41523361206055,0
346,3459991,0.004974148701876402,-0.07498567551374435,-1.0069230794906616,0.20946133136749268,0.1170167401432991,-0.21978256106376648,30.962080001831055,-10.010881423950195,38.49996566772461,0
347,3470256,0.043399881571531296,0.08830184489488602,-0.9958902597427368,0.014224303886294365,0.677007794380188,0.39456120133399963,28.983461380004883,-10.586270332336426,39.919063568115234,0
348,3480145,-0.024972720071673393,0.05293445289134979,-1.0256620645523071,0.7072575688362122,-0.25262001156806946,0.69550621509552,28.142337799072266,-10.471668243408203,39.613685607910156,0
349,3490039,0.031838804483413696,-0.014004148542881012,-0.9917903542518616,-1.8896241188049316,0.7731006741523743,-0.03657415509223938,30.451427459716797,-10.945978164672852,38.378658294677734,0
350,3499911,-0.054340194910764694,-0.016695603728294373,-0.9835654497146606,-0.2373015135526657,0.39229264855384827,0.7091407775878906,29.46390724182129,-9.976150512695312,38.13846206665039,0
351,3509952,-0.049759265035390854,-0.11039970070123672,-1.016227126121521,-0.2169927954673767,0.16411104798316956,0.1428910791873932,29.641008377075195,-10.120110511779785,39.58388137817383,0
352,3520056,-0.01752994768321514,-0.04449087381362915,-0.9692643284797668,0.6254991292953491,0.7496936917304993,-0.8463082313537598,29.132225036621094,-9.972472190856934,40.1336784362793,0
353,3530151,0.028069432824850082,-0.01593390852212906,-0.9986377358436584,-0.1511726826429367,-0.11704771220684052,0.1345784217119217,31.85272789001465,-8.175796508789062,39.102596282958984,0
354,3540100,0.01444186083972454,0.012432064861059189,-1.007707118988037,0.30244043469429016,-0.43867623805999756,-0.3704782724380493,31.6512508392334,-10.088773727416992,39.25186538696289,0
355,3549776,-0.0615350715816021,-0.08367343246936798,-0.999520480632782,-0.002457166789099574,0.3808125853538513,0.5111961364746094,28.876949310302734,-10.035066604614258,40.27395248413086,0
356,3559932,-0.04050726443529129,-0.04967570677399635,-1.0164425373077393,-0.6313132643699646,0.3277105987071991,-0.05322381108999252,30.76611328125,-10.41994857788086,40.325904846191406,0
357,3569876,0.024930553510785103,-0.05929207429289818,-1.005188226699829,0.40840575098991394,0.410849928855896,0.3496062755584717,29.786376953125,-9.911931991577148,40.523746490478516,0
358,3579778,-0.006144521292299032,0.03661881014704704,-0.9686630964279175,0.7949158549308777,0.49108171463012695,0.7622732520103455,31.878768920898438,-9.404745101928711,40.89194869995117,0
359,3589904,0.05637429654598236,0.10907410085201263,-0.9760072231292725,0.28227975964546204,-0.006920662708580494,-0.3211885392665863,31.261516571044922,-9.560789108276367,39.649906158447266,0
360,3599871,0.00349999382160604,0.003074364038184285,-0.9568239450454712,0.19551074504852295,0.8951767683029175,0.686722993850708,30.540651321411133,-9.556426048278809,39.17160415649414,0
361,3610108,-0.07375980913639069,0.04506468400359154,-0.9998665452003479,0.4290636479854584,0.2495848834514618,0.41093215346336365,31.696266174316406,-11.595429420471191,38.408634185791016,0
362,3619857,0.005851568654179573,-0.0624627023935318,-0.9841877818107605,-0.27029016613960266,-0.07611878961324692,-0.19483205676078796,31.96892547607422,-11.597168922424316,39.76835632324219,0
363,3630005,0.045262571424245834,-0.10993760079145432,-1.0075641870498657,0.25333237648010254,-1.3123098611831665,0.05936339870095253,30.296241760253906,-12.098798751831055,40.0573844909668,0
364,3639952,0.030446801334619522,0.03500305861234665,-1.010144591331482,-0.8918265104293823,1.1413873434066772,0.7437926530838013,28.483402252197266,-10.852506637573242,40.287841796875,0
365,3650005,-0.037461843341588974,0.0449882373213768,-0.9997550845146179,0.09659844636917114,-0.07158790528774261,0.0535782128572464,30.376420974731445,-7.99453592300415,41.27841567993164,0
366,3659695,-0.06299220025539398,0.018149472773075104,-1.003309965133667,-0.4879200756549835,0.016839610412716866,0.16637079417705536,30.525157928466797,-10.163227081298828,39.01387405395508,0
367,3670015,0.08121457695960999,0.07326164841651917,-1.0162060260772705,-0.3570624887943268,0.8276861310005188,-0.5909326672554016,31.471973419189453,-8.941492080688477,39.268836975097656,0
368,3679879,0.11719022691249847,-0.061928458511829376,-0.9875788688659668,-0.8985990285873413,-0.6618019342422485,0.41031187772750854,29.368513107299805,-9.425948143005371,40.2430419921875,0
369,3690203,0.0006243264069780707,-0.08206210285425186,-1.0063740015029907,-0.7053344249725342,-0.9098930358886719,-0.12965767085552216,30.25989532470703,-8.849230766296387,39.26071548461914,0
370,3700218,-0.005085322540253401,0.03694039210677147,-0.9878958463668823,-0.5222340822219849,-0.7534326910972595,0.6795593500137329,30.1503963470459,-9.885913848876953,39.94813919067383,0
371,3709950,-0.06347612291574478,0.0754079595208168,-0.9812431335449219,0.08629950135946274,-0.2228243350982666,-0.12730978429317474,30.548259735107422,-9.417868614196777,39.179786682128906,0
372,3720027,0.017056914046406746,-0.07707715779542923,-0.9912118315696716,-0.5400232672691345,0.09532009810209274,-0.07342378050088882,28.01766586303711,-10.279080390930176,41.0107307434082,0
373,3729924,-0.03163974732160568,-0.045729923993349075,-1.0055330991744995,0.021176690235733986,-0.5006174445152283,0.0003210179856978357,30.21592903137207,-9.304952621459961,39.859642028808594,0
374,3740078,0.056052569299936295,0.07648764550685883,-0.9814831614494324,-0.11721573024988174,-0.3255474865436554,-0.3116128444671631,30.94217872619629,-8.854328155517578,40.1437873840332,0
375,3749974,0.02779896929860115,-0.047631263732910156,-1.0031287670135498,-0.4550911784172058,-0.398405522108078,0.5425592660903931,31.107582092285156,-8.821099281311035,39.034996032714844,0
376,3759707,-0.0013017355231568217,-0.01905531994998455,-0.9988354444503784,-0.6669032573699951,-0.05830312520265579,-0.11009518802165985,29.96746826171875,-10.787303924560547,40.749454498291016,0
377,3769886,0.02188269793987274,0.06048038229346275,-0.9644786715507507,-0.6640240550041199,-0.6634510159492493,0.21960534155368805,29.423263549804688,-10.064132690429688,39.882293701171875,0
378,3780159,0.03436533734202385,0.01726343482732773,-1.0045138597488403,-0.5350948572158813,0.13985523581504822,0.018306784331798553,29.373201370239258,-10.423287391662598,39.76472091674805,0
379,3789679,0.03168459236621857,0.03983054682612419,-1.003296971321106,-0.24128934741020203,0.25844690203666687,-0.9708400368690491,28.64673614501953,-8.363689422607422,40.01668930053711,0
380,3799852,0.06596647948026657,0.08646783232688904,-0.9524908661842346,0.03613736853003502,0.5810878276824951,0.8665039539337158,31.217437744140625,-10.194958686828613,40.82529067993164,0
381,3810097,0.02390933595597744,0.001126941409893334,-0.993937611579895,0.7314785718917847,0.31388211250305176,-0.4560307562351227,29.078092575073242,-9.558905601501465,40.111942291259766,0
382,3820044,-0.0546707883477211,-0.053207673132419586,-1.0139708518981934,0.0921374261379242,-0.3493920862674713,-0.5032559633255005,27.04802703857422,-8.86274242401123,39.079986572265625,0
383,3830039,-0.09126324951648712,0.009249098598957062,-0.9469711184501648,0.25460705161094666,0.7614982724189758,-0.26030465960502625,29.30835723876953,-9.669207572937012,39.313201904296875,0
384,3839832,0.10524692386388779,0.13172803819179535,-0.9930526614189148,-0.2766176462173462,-1.0866026878356934,0.2827660143375397,28.446481704711914,-10.713698387145996,39.01229476928711,0
385,3849967,-0.07266947627067566,0.0716787800192833,-1.046164631843567,0.2364715039730072,0.6939518451690674,-0.18199323117733002,29.304853439331055,-9.549430847167969,39.3551139831543,0
386,3859626,-0.01888534240424633,-0.1501174420118332,-1.0319257974624634,0.004916100762784481,0.3381041884422302,-0.1289237141609192,29.74099349975586,-9.485631942749023,40.03002166748047,0
387,3870063,0.04376295208930969,-0.06851636618375778,-1.0101985931396484,-0.09475532919168472,0.5575147271156311,-0.05760977044701576,30.74224853515625,-9.209845542907715,39.66746520996094,0
388,3879867,0.09707669913768768,0.15576514601707458,-1.0220513343811035,-0.28654828667640686,0.2091214656829834,-0.03103788010776043,29.167190551757812,-10.443692207336426,40.81877517700195,0
389,3890141,-0.0045501114800572395,-0.0716274157166481,-1.0140788555145264,-0.3650319278240204,0.10906314104795456,0.31042489409446716,30.618881225585938,-11.685173988342285,38.59493637084961,0
390,3900040,-0.01287101861089468,0.010458842851221561,-0.9975128173828125,-0.7848469614982605,-0.0857454463839531,0.582365095615387,27.531890869140625,-11.263420104980469,39.6613883972168,0
391,3909970,-0.0068443529307842255,0.0386076495051384,-0.9830909967422485,-0.6584966778755188,0.5645270943641663,-1.121717095375061,31.156028747558594,-10.46048355102539,40.16883087158203,0
392,3919898,-0.011680048890411854,-0.02463615871965885,-0.9719515442848206,0.3659448027610779,-0.12937712669372559,0.6382653117179871,27.95743751525879,-9.417985916137695,40.04901123046875,0
393,3929952,-0.003368309698998928,0.021315021440386772,-1.0119152069091797,-0.06665796786546707,0.31359535455703735,-0.42440012097358704,28.83087921142578,-9.169755935668945,39.668212890625,0
394,3940197,0.04874662682414055,0.06189432740211487,-1.0019820928573608,0.4725099503993988,-0.8430274128913879,-0.01355702243745327,31.575992584228516,-8.651849746704102,39.004486083984375,0
395,3950305,0.03369998559355736,0.007857047952711582,-1.0043894052505493,-0.8994787931442261,0.23229053616523743,0.9388668537139893,28.257802963256836,-10.482887268066406,37.676509857177734,0
396,3959924,0.016143562272191048,-0.017320936545729637,-0.993922233581543,-0.238807812333107,-0.6359370946884155,0.009820017032325268,30.27897834777832,-10.591058731079102,41.317447662353516,0
397,3969868,-0.04722007364034653,0.028122417628765106,-1.0252035856246948,0.3688688278198242,-0.569838285446167,-1.409408450126648,29.769121170043945,-12.747776985168457,40.370784759521484,0
398,3980077,-0.014167243614792824,-0.0023557550739496946,-0.9999228715896606,0.3306775689125061,-0.1933872401714325,-0.35885611176490784,31.304521560668945,-9.257585525512695,39.201602935791016,0
399,3989958,-0.019924616441130638,0.032345693558454514,-0.9797019362449646,0.32623472809791565,0.38088446855545044,-0.11330676823854446,30.50202178955078,-10.081531524658203,40.3958740234375,0
400,3999987,0.02057299017906189,0.017014868557453156,-1.00514817237854,-0.33942711353302,0.04597475752234459,-0.004156813025474548,28.815092086791992,-10.218539237976074,41.3615608215332,0
401,4010028,0.07807954400777817,0.0280721765011549,-1.0027430057525635,-0.608135998249054,-0.3018646836280823,-0.6298391819000244,30.54608154296875,-10.175881385803223,40.55819320678711,0
402,4020160,-0.08044041693210602,-0.041643526405096054,-1.037395715713501,-0.23557275533676147,0.2995143532752991,0.926979124546051,29.61379051208496,-10.451155662536621,38.709739685058594,0
403,4030069,0.05706232413649559,0.047933727502822876,-0.9881305694580078,-0.39042699337005615,-0.23899301886558533,-0.9813169836997986,29.939186096191406,-9.58241081237793,40.68852233886719,0
404,4040401,0.01720999926328659,-0.029238184913992882,-0.9717139601707458,-0.44809412956237793,0.1484396755695343,-0.4273061156272888,28.7158260345459,-11.381806373596191,40.70587158203125,0
405,4050143,0.0072786626406013966,0.008499222807586193,-0.9916200637817383,0.35855191946029663,0.39712265133857727,0.7252010703086853,31.165386199951172,-9.06797981262207,39.38438415527344,0
406,4060059,0.020759161561727524,0.027821317315101624,-0.9673703908920288,0.37971577048301697,0.18015725910663605,0.13826769590377808,31.240507125854492,-9.499078750610352,38.631187438964844,0
407,4070178,-0.030903052538633347,0.11334031820297241,-0.9886707067489624,-0.05292516201734543,-0.5479849576950073,-0.20114146173000336,28.954635620117188,-11.399604797363281,38.94528579711914,0
408,4079832,0.005618404597043991,-0.05863736569881439,-1.0020949840545654,-0.7213072180747986,-0.4015534520149231,0.41843217611312866,32.85080337524414,-9.139542579650879,40.51961898803711,0
409,4089883,-0.006018781568855047,0.07068447023630142,-0.9951562285423279,0.3709445893764496,0.5201945900917053,-0.2216896265745163,32.288169860839844,-9.82377815246582,39.679012298583984,0
410,4099932,0.023464448750019073,0.005079828202724457,-0.970845103263855,0.2750093638896942,-0.025387803092598915,-0.4102964699268341,28.744951248168945,-9.312814712524414,39.2331657409668,0
411,4109906,0.049946583807468414,-0.0542723685503006,-1.0365794897079468,0.3083401322364807,-0.08035796135663986,-0.10544019937515259,31.392047882080078,-10.55384635925293,41.6724853515625,0
412,4119764,0.062314361333847046,0.0075301919132471085,-0.9851543307304382,0.26511648297309875,0.3696940541267395,0.12265932559967041,30.183731079101562,-10.126312255859375,38.26233673095703,0
413,4130333,-0.028905950486660004,-0.00717108603566885,-0.9828734397888184,-0.3888621926307678,0.22768506407737732,0.6051899790763855,30.276840209960938,-9.778470039367676,40.30586624145508,0
414,4140067,-0.07864546030759811,-0.0520358681678772,-1.0389106273651123,0.05429139733314514,0.30443239212036133,0.19674724340438843,29.872371673583984,-10.394007682800293,40.02451705932617,0
415,4149828,0.09192652255296707,-0.03334200009703636,-1.0146065950393677,-0.15644410252571106,0.017799044027924538,0.2186969667673111,30.3483943939209,-9.219121932983398,39.996543884277344,0
416,4160189,-0.09149996191263199,0.013196875341236591,-0.9862962961196899,0.020751595497131348,0.33645468950271606,-0.36873117089271545,30.361486434936523,-9.725970268249512,40.722145080566406,0
417,4169783,0.014247339218854904,-0.01670827530324459,-1.0108532905578613,0.28087177872657776,0.12123189121484756,0.582180380821228,29.304975509643555,-11.243315696716309,40.14011764526367,0
418,4179933,-0.025332286953926086,0.009785251691937447,-1.0177141427993774,-0.006830174010246992,-0.28538593649864197,0.5195375084877014,30.119136810302734,-9.81434154510498,39.676780700683594,0
419,4189997,0.037818413227796555,0.06465161591768265,-1.033593773841858,-0.3255283534526825,-0.09714297205209732,-0.26684120297431946,28.578662872314453,-10.7752103805542,40.23332977294922,0
420,4199974,-0.05404795706272125,0.049107689410448074,-1.018700122833252,0.3301692008972168,-0.15245597064495087,0.14138731360435486,29.397306442260742,-10.134313583374023,40.48650360107422,0
421,4210130,0.0492083802819252,-0.0029371140990406275,-1.001813530921936,0.2749166786670685,-0.42907440662384033,0.4851920008659363,30.65523338317871,-12.35094165802002,39.31760025024414,0
422,4220235,-0.12182330340147018,-0.02053002081811428,-0.9895960092544556,-1.0288559198379517,0.07733327895402908,0.12040254473686218,30.27752113342285,-9.934847831726074,39.47444152832031,0
423,4229829,-0.021231042221188545,0.025249753147363663,-1.0064518451690674,-0.417734295129776,-1.0015358924865723,-0.5103568434715271,28.422204971313477,-9.276467323303223,38.78826141357422,0
424,4240142,-0.0385148748755455,0.06987199187278748,-0.9992104768753052,-0.11827749013900757,0.42784813046455383,-0.268694132566452,28.386049270629883,-10.41415786743164,41.892059326171875,0
425,4250208,0.004659881815314293,-0.05624493956565857,-1.0175845623016357,-0.7338137030601501,-0.36118289828300476,-1.1181294918060303,31.53257942199707,-10.321722030639648,41.2740592956543,0
426,4259926,-0.10285349935293198,-0.023161502555012703,-0.9903542995452881,0.9900033473968506,0.15942583978176117,0.1969311386346817,29.662874221801758,-10.170050621032715,39.05459213256836,0
427,4269944,-0.058720458298921585,0.07481522858142853,-0.9604679346084595,0.03499598801136017,0.012883668765425682,-0.04778347909450531,29.58196258544922,-11.612430572509766,39.6285514831543,0
428,4280136,0.04384024813771248,-0.055738337337970734,-1.0123496055603027,0.5025321245193481,-0.47981444001197815,0.5032647848129272,30.08776092529297,-10.4672212600708,38.82830047607422,0
429,4289850,0.06698072701692581,-0.00843802373856306,-1.030653715133667,-0.035643745213747025,-0.22363625466823578,0.28707852959632874,29.489665985107422,-10.732410430908203,40.651309967041016,0
430,4300062,0.007299499586224556,0.03046719916164875,-1.0016133785247803,0.06355035305023193,-0.3480190932750702,0.2843673527240753,30.071279525756836,-10.069768905639648,40.04233932495117,0
431,4310090,0.01544620655477047,-0.05562719702720642,-0.9868012070655823,0.23261897265911102,-0.12685957551002502,-0.3178095817565918,29.30178451538086,-11.026901245117188,38.99021911621094,0
432,4319867,0.016320722177624702,-0.01805322803556919,-1.0051084756851196,-0.25002050399780273,-0.5750474333763123,0.6152819395065308,29.30448341369629,-9.99948787689209,40.25822830200195,0
433,4330062,-0.04433238506317139,-0.0360395573079586,-1.008455753326416,-0.08952406793832779,-0.7362249493598938,-0.6112363338470459,29.983901977539062,-10.427699089050293,39.389190673828125,0
434,4340246,-0.002119977492839098,-0.024539247155189514,-1.0063027143478394,0.5491982102394104,-0.3042376637458801,-0.46903517842292786,30.331317901611328,-9.641592979431152,40.09186935424805,0
435,4350071,0.07089947164058685,0.03273675963282585,-1.0082168579101562,-0.3659651279449463,0.3823688328266144,0.5444183349609375,31.211576461791992,-9.911734580993652,40.65016174316406,0
436,4360024,0.09281187504529953,0.030686166137456894,-1.0435587167739868,0.6709446310997009,-0.7933236956596375,-0.6898975372314453,29.096786499023438,-9.174909591674805,38.64885330200195,0
437,4370363,-0.015412707813084126,-0.014552091248333454,-0.9722191095352173,0.42260581254959106,0.47568967938423157,-0.2931777834892273,29.96057891845703,-8.932305335998535,40.13337707519531,0
438,4379966,-0.030816737562417984,0.014927438460290432,-0.982428252696991,0.9174085855484009,0.39471662044525146,0.9526821374893188,29.442453384399414,-9.745156288146973,40.47205352783203,0
439,4389981,0.018823979422450066,-0.07950413227081299,-0.9924130439758301,-0.048671890050172806,0.7715336680412292,0.21311180293560028,31.431425094604492,-9.012969970703125,39.70503616333008,0
440,4400025,0.13734661042690277,0.08883317559957504,-0.9927212595939636,-0.18616104125976562,-0.45246508717536926,0.20221909880638123,31.102502822875977,-9.452715873718262,38.97751235961914,0
441,4410269,0.08538997918367386,-0.006829361896961927,-0.9732356071472168,0.041217729449272156,-0.5867497324943542,-0.2433757334947586,29.708070755004883,-8.741884231567383,40.94165802001953,0
442,4420033,-0.08922451734542847,0.025262415409088135,-0.9914180636405945,0.5693071484565735,-0.5517426133155823,-0.3720196485519409,29.545621871948242,-8.373495101928711,40.503665924072266,0
443,4429951,0.004581664688885212,0.06356073170900345,-1.0346078872680664,0.32402101159095764,-0.31791260838508606,0.9546275734901428,29.89402961730957,-10.7203369140625,40.512996673583984,0
444,4439923,-0.016550231724977493,-0.00881215836852789,-1.005584478378296,-0.543978214263916,-0.19203273952007294,-1.074218511581421,31.348613739013672,-11.11115550994873,40.11768341064453,0
445,4450005,0.06702136248350143,0.056198667734861374,-0.9979309439659119,0.48155173659324646,0.5543002486228943,0.08999564498662949,31.480592727661133,-9.853734970092773,40.463775634765625,0
446,4460342,-0.10457431524991989,-0.021291647106409073,-0.9968251585960388,-0.3449364900588989,-0.5943779945373535,0.013318882323801517,29.676040649414062,-10.602189064025879,39.95211410522461,0
447,4469802,0.030342722311615944,-0.056503064930438995,-0.9895541071891785,-0.3158895969390869,0.8244901299476624,0.36815449595451355,32.16326904296875,-10.250544548034668,38.47955322265625,0
448,4479782,-0.031122002750635147,-0.11192568391561508,-0.9962687492370605,0.8260633945465088,-0.5204479694366455,0.5315273404121399,30.057619094848633,-11.531835556030273,40.991947174072266,0
449,4489993,-3.350954648340121e-05,0.05157909914851189,-1.033905029296875,0.9491218328475952,-0.012839407660067081,0.5865751504898071,31.483966827392578,-10.199177742004395,39.81241226196289,0
450,4499878,-0.006278430111706257,0.11568444222211838,-0.9821098446846008,-0.20988847315311432,0.2235228568315506,0.07650676369667053,30.714601516723633,-8.93708610534668,41.27507400512695,0
451,4509909,0.011660032905638218,-0.07795611768960953,-1.0271289348602295,-0.3410392999649048,-0.29427069425582886,-0.2543538510799408,29.995885848999023,-11.462204933166504,40.248905181884766,0
452,4519945,0.055672790855169296,-0.02303616888821125,-0.9786642789840698,0.12896069884300232,-0.729160726070404,-0.3336057960987091,30.013259887695312,-9.559328079223633,40.039615631103516,0
453,4529777,0.0796877071261406,0.07515140622854233,-0.9881303906440735,-0.8498649001121521,-0.23099958896636963,0.141129270195961,31.059492111206055,-10.69674301147461,40.051177978515625,0
454,4540213,0.031955085694789886,0.04543941468000412,-1.010227918624878,0.2842532992362976,0.44596925377845764,0.3194027841091156,29.72015380859375,-8.943077087402344,39.496368408203125,0
455,4549937,0.07154055684804916,-0.01829322800040245,-0.9884535670280457,-0.37152332067489624,-0.7334510684013367,0.15150636434555054,30.455659866333008,-10.340513229370117,42.37723922729492,0
456,4559746,-0.04497018828988075,0.015331774018704891,-0.9966121315956116,0.1735473871231079,0.09759369492530823,-0.5695883631706238,29.138534545898438,-10.619793891906738,40.563011169433594,0
457,4570050,0.10321851819753647,0.01001736056059599,-0.9699501395225525,-0.48239248991012573,-0.04838119447231293,-1.1902014017105103,30.760303497314453,-9.644559860229492,40.44825744628906,0
458,4579823,0.07384774833917618,0.05687699839472771,-0.9674317240715027,1.2334558963775635,-0.33857351541519165,-0.48606786131858826,31.626018524169922,-10.392061233520508,40.333946228027344,0
459,4590093,0.011926748789846897,0.07508969306945801,-0.9875363707542419,0.6096369624137878,0.5526130795478821,-0.2811715304851532,30.40827751159668,-11.196717262268066,40.70066833496094,0
460,4599819,0.08845222741365433,-0.000500155205372721,-1.008487582206726,-0.3281524181365967,-0.6853821873664856,-0.8179240226745605,31.5248966217041,-9.298717498779297,40.691471099853516,0
461,4610003,-0.04884575679898262,-0.1625179946422577,-0.9941267371177673,-1.0810596942901611,-0.4431415796279907,-0.7469955682754517,27.90253448486328,-8.373627662658691,40.78827667236328,0
462,4620295,-0.04649166017770767,-0.010452582500874996,-1.0304620265960693,-0.18449930846691132,-0.45461902022361755,0.6988563537597656,31.579545974731445,-9.027729034423828,39.28266525268555,0
463,4630214,0.053239356726408005,0.016916858032345772,-0.9721594452857971,0.21233569085597992,-0.31391388177871704,-0.49932384490966797,30.256959915161133,-9.64303207397461,42.101802825927734,0
464,4640276,-0.06625960767269135,0.026610983535647392,-0.9837272763252258,-0.0005079184775240719,-0.06516306847333908,-0.3523813784122467,27.993623733520508,-10.275430679321289,40.22134780883789,0
465,4650020,0.021699391305446625,0.08678168803453445,-0.9463378190994263,-0.028046833351254463,-0.8995780348777771,0.43565958738327026,29.88455581665039,-12.322895050048828,39.04938507080078,0
466,4660134,-0.0006503796903416514,-0.036222998052835464,-1.0041085481643677,-0.3686452805995941,0.17730972170829773,-0.10398548096418381,30.23118782043457,-10.823119163513184,41.13041687011719,0
467,4670012,-0.04973530396819115,-0.025429105386137962,-0.9803069233894348,-0.3137566149234772,0.579017698764801,0.8199560046195984,28.354324340820312,-10.093321800231934,38.26091003417969,0
468,4679937,0.03721630945801735,-0.028099728748202324,-1.0051991939544678,0.3115943968296051,0.21577727794647217,-0.5381692051887512,30.292085647583008,-9.574170112609863,39.50150680541992,0
469,4689744,-0.01569686457514763,0.033082399517297745,-1.015923261642456,-0.45522835850715637,-0.031943581998348236,0.3624953031539917,29.779315948486328,-9.553729057312012,40.84654998779297,0
470,4699978,-0.04508800432085991,-0.08039268851280212,-1.004562258720398,-0.030210230499505997,0.045231375843286514,-0.41971519589424133,30.179956436157227,-9.655374526977539,40.07872009277344,0
471,4710050,0.003315641777589917,-0.0023199201095849276,-1.0315287113189697,-0.056265056133270264,-0.32873427867889404,0.5993719696998596,31.447124481201172,-10.39650821685791,41.71870422363281,0
472,4720033,0.06186387687921524,-0.0633893832564354,-0.9705776572227478,0.17008255422115326,-0.20519627630710602,0.35294756293296814,31.524187088012695,-9.943528175354004,39.55546188354492,0
473,4729941,0.023237915709614754,0.053389787673950195,-1.005393624305725,-0.3717007339000702,-0.0025603061076253653,-0.16570428013801575,29.854480743408203,-12.011756896972656,40.55479431152344,0
474,4740037,0.002399430377408862,-0.03927861899137497,-0.9953489899635315,1.6452808380126953,0.19489233195781708,-0.7611420154571533,29.792448043823242,-9.983731269836426,39.0650749206543,0
475,4750126,0.027158008888363838,0.0023857129272073507,-0.9809879064559937,-0.8997603058815002,0.19301803410053253,-0.2829347550868988,30.946678161621094,-10.894438743591309,41.302345275878906,0
476,4759874,-0.03936927393078804,-0.022211415693163872,-1.0149016380310059,0.4555884003639221,0.1694933921098709,0.7247427105903625,29.996456146240234,-9.634902000427246,39.42201232910156,0
477,4769650,0.04183733090758324,0.09594662487506866,-0.9898648262023926,-0.8103281855583191,-0.0647168755531311,0.49648404121398926,29.497425079345703,-10.2213134765625,40.571834564208984,0
478,4779962,-0.031798239797353745,0.009364853613078594,-0.9628919363021851,0.1985001266002655,0.1596703976392746,-0.9500486254692078,29.753929138183594,-10.405261993408203,39.9231071472168,0
479,4789846,0.03408409282565117,0.052819475531578064,-0.9867771863937378,-0.6629316806793213,-0.4047185480594635,0.23197877407073975,30.929996490478516,-11.275640487670898,40.93653869628906,0
480,4800010,-0.004319591447710991,0.1148936077952385,-0.9832730889320374,0.7789057493209839,-0.10365016013383865,0.4946509599685669,30.930086135864258,-9.78371524810791,41.10063171386719,0
481,4809746,0.08518297225236893,0.021956373006105423,-0.951499342918396,0.09308271110057831,-0.4229092597961426,0.3537481427192688,30.413015365600586,-10.086501121520996,42.026611328125,0
482,4820023,0.03706296905875206,0.019963091239333153,-1.0092326402664185,0.24236521124839783,-0.15553466975688934,-0.1915002316236496,29.512414932250977,-11.607394218444824,40.43886947631836,0
483,4830083,-0.014698214828968048,-0.055554457008838654,-0.9761804342269897,-0.5823206305503845,0.2348383218050003,0.5405707359313965,28.319944381713867,-10.448753356933594,40.86689376831055,0
484,4840111,0.03796733543276787,-0.027970029041171074,-1.0174278020858765,-0.17898677289485931,0.6888625025749207,-0.5829221606254578,31.023361206054688,-10.03368854522705,41.78972625732422,0
485,4849963,-0.024381300434470177,-0.01723739691078663,-1.0086838006973267,-0.06693406403064728,-0.13748705387115479,-0.4120113253593445,32.85609436035156,-10.437179565429688,40.91526412963867,0
486,4859710,0.015562712214887142,0.11866360157728195,-1.0237847566604614,-0.8803343772888184,0.4309837818145752,-0.42835962772369385,30.056859970092773,-10.459589958190918,41.65619659423828,0
487,4870256,-0.010575763881206512,0.011988515965640545,-0.994792640209198,-0.30433496832847595,0.177133247256279,0.4456145465373993,29.78449821472168,-8.160055160522461,38.89692687988281,0
488,4880029,0.006151339504867792,0.10220571607351303,-0.9928601384162903,0.8891529440879822,0.4039444923400879,0.32909148931503296,29.964107513427734,-9.599361419677734,39.5777587890625,0
489,4889969,-0.05527263879776001,0.12818114459514618,-1.001894474029541,0.6823254227638245,-0.2137182652950287,-0.5883249044418335,30.3770751953125,-8.376175880432129,40.924312591552734,0
490,4899758,0.037600934505462646,0.017376795411109924,-0.9947279095649719,0.7684034705162048,-0.21895316243171692,-0.20386044681072235,30.697065353393555,-10.397321701049805,40.53977966308594,0
491,4909735,-0.03658611699938774,-0.018415000289678574,-1.0060906410217285,0.1487656831741333,0.16755174100399017,0.5105626583099365,28.138927459716797,-11.71705150604248,40.744022369384766,0
492,4920056,-0.07706911861896515,-0.06009482219815254,-1.0125154256820679,-0.5135520696640015,-0.03417950123548508,-0.3892394006252289,30.297489166259766,-8.004600524902344,39.73236083984375,0
493,4930231,-0.06327810138463974,0.08024217188358307,-1.0123769044876099,-0.061016105115413666,0.1853123903274536,-0.6671887040138245,29.7830753326416,-7.939337730407715,40.711002349853516,0
494,4939912,0.003350459272041917,-0.0961231216788292,-1.0051896572113037,0.1356818675994873,0.7575035691261292,-0.5226700305938721,30.531354904174805,-10.269147872924805,41.15468215942383,0
495,4950165,-0.05429854243993759,0.04757735878229141,-0.9781656861305237,0.6985743641853333,-0.15464426577091217,-0.599448025226593,30.347618103027344,-9.998371124267578,38.998199462890625,0
496,4960002,0.012707995250821114,0.01242330763489008,-1.0093333721160889,0.18075641989707947,-0.12704408168792725,-0.5614477396011353,32.08511734008789,-9.599979400634766,40.78323745727539,0
497,4969985,0.035593997687101364,-0.06813862919807434,-0.9967781901359558,0.3512725234031677,-0.25505122542381287,-0.26372483372688293,28.3609676361084,-9.72160816192627,39.20549774169922,0
498,4980001,-0.04862073063850403,0.012666990980505943,-0.9968637228012085,0.3324476480484009,-0.30478543043136597,-0.27450206875801086,30.399574279785156,-10.476663589477539,39.486148834228516,0
499,4990009,-0.0474083349108696,-0.01459776982665062,-1.0037614107131958,0.4468780755996704,-0.11170750111341476,-0.6873806118965149,28.809165954589844,-10.853094100952148,41.181480407714844,0
500,5000027,-0.055204275995492935,-0.024339398369193077,-1.0225591659545898,-0.3110311031341553,0.45055413246154785,0.5549321174621582,30.233797073364258,-8.937926292419434,40.67301559448242,0
501,5009872,0.0012077644933015108,-0.005111148580908775,-0.9922271370887756,0.7897093296051025,-0.4510841369628906,-0.4238114655017853,30.837688446044922,-10.988828659057617,39.75200271606445,0
502,5019783,-0.0323919951915741,0.007371116429567337,-1.0439060926437378,-0.15675753355026245,-0.09724175184965134,-0.7613117694854736,31.43305206298828,-9.870185852050781,40.70151138305664,0
503,5030220,-0.008601479232311249,0.0412675105035305,-1.0306917428970337,0.24386298656463623,0.28700000047683716,1.0127100944519043,29.034318923950195,-11.099930763244629,39.69649887084961,0
504,5039885,0.058978717774152756,0.014666782692074776,-0.9983543753623962,-0.9092952013015747,0.8967292904853821,0.5019540786743164,30.24006462097168,-7.777247428894043,39.44704818725586,0
505,5050191,0.047794848680496216,-0.0008540019043721259,-1.0050041675567627,-0.24320685863494873,0.7199283242225647,0.7452517151832581,30.615447998046875,-10.002294540405273,39.571449279785156,0
506,5059627,-0.004796378780156374,-0.007537360303103924,-0.9998056292533875,0.813816249370575,0.6244696378707886,0.3430593013763428,28.81612777709961,-9.613883018493652,39.59211349487305,0
507,5069956,0.04885708913207054,-0.06461548060178757,-1.0133918523788452,0.4304744601249695,-0.25473785400390625,-0.6500055193901062,31.5771484375,-9.680127143859863,38.221099853515625,0
508,5079990,0.012272834777832031,0.0399087518453598,-1.0048738718032837,-0.00040499147144146264,-0.48049676418304443,-0.22142307460308075,29.95945167541504,-9.670914649963379,39.96824645996094,0
509,5090148,-0.08034560084342957,0.025285106152296066,-1.011521816253662,-1.1616566181182861,-0.2745893597602844,-0.9045867323875427,29.960758209228516,-12.094670295715332,38.70946502685547,0
510,5100227,-0.008254876360297203,-0.02255457267165184,-0.9937271475791931,-0.8268074989318848,0.40478965640068054,-0.7867631316184998,28.962493896484375,-10.093194007873535,41.256141662597656,0
511,5110197,-0.08507703244686127,0.030965643003582954,-0.985369861125946,-0.5423941016197205,-0.6393232941627502,0.07264567166566849,29.419530868530273,-11.444173812866211,40.877174377441406,0
512,5119938,-0.09826577454805374,0.05392380431294441,-1.008294701576233,0.8665558695793152,0.29519009590148926,-0.5540324449539185,29.056344985961914,-11.89806842803955,41.255062103271484,0
513,5130284,-0.10236725211143494,0.03217962011694908,-0.9763672947883606,0.765691339969635,-0.2397591918706894,-0.6347792744636536,30.364789962768555,-8.05385971069336,42.048736572265625,0
514,5140115,0.047841478139162064,-0.016416244208812714,-1.0038741827011108,-0.06671488285064697,-0.32723280787467957,0.5013353228569031,30.70290756225586,-11.776700973510742,40.94796371459961,0
515,5150039,0.0027353574987500906,0.05031431093811989,-0.9901272058486938,-0.01896279864013195,-0.8930160999298096,0.33301791548728943,31.245220184326172,-9.910550117492676,40.359214782714844,0
516,5159908,-0.09825954586267471,-0.013326584361493587,-0.9716969728469849,0.5959572792053223,-0.6018511056900024,0.31154865026474,28.605548858642578,-11.81213665008545,39.82382583618164,0
517,5170033,-0.007912563160061836,-0.03938105329871178,-0.9652479887008667,0.5243996977806091,1.1424641609191895,-0.1643235981464386,31.006134033203125,-11.129881858825684,40.407928466796875,0
518,5180088,-0.012626509182155132,0.02277950569987297,-1.0323857069015503,0.1502237319946289,-0.014169993810355663,-0.5852755308151245,28.026315689086914,-11.130940437316895,38.691246032714844,0
519,5190193,-0.13977663218975067,0.050737883895635605,-0.993441641330719,0.4248030483722687,0.21614249050617218,0.08463449031114578,29.61276626586914,-8.246075630187988,38.87752151489258,0
520,5199770,-0.05563538521528244,0.062144454568624496,-0.9847049713134766,0.08571410924196243,-0.6384385228157043,-0.2518600821495056,30.25271224975586,-9.451354026794434,38.735294342041016,0
521,5209807,0.050326377153396606,0.03594169020652771,-1.0214824676513672,-0.2723047435283661,-0.16239650547504425,0.10276923328638077,28.406982421875,-8.354647636413574,39.19546890258789,0
522,5219753,-0.07346297055482864,0.08710717409849167,-0.9977891445159912,-0.05904176086187363,-0.22210147976875305,0.06489431113004684,31.287973403930664,-11.186717987060547,40.27992630004883,0
523,5230037,-0.04716397076845169,-0.029576880857348442,-1.0368794202804565,-0.4167574644088745,-0.8760242462158203,0.8923283815383911,30.17323112487793,-9.383833885192871,39.647483825683594,0
524,5239902,0.015805799514055252,0.14895662665367126,-1.0054830312728882,-0.20391075313091278,-0.000361894752131775,0.06883113831281662,31.033592224121094,-9.641729354858398,41.811126708984375,0
525,5250046,-0.06623703986406326,0.01040798332542181,-0.9778705835342407,-0.10195621848106384,-0.6120299100875854,0.22837033867835999,30.471546173095703,-9.798413276672363,39.43680953979492,0
526,5259960,0.0076655796729028225,-0.008975178934633732,-1.0164052248001099,0.32836827635765076,-0.6390374302864075,0.04019106924533844,30.118432998657227,-9.36967945098877,40.61754608154297,0
527,5270095,-0.028720492497086525,-0.0017331248382106423,-1.01356041431427,0.09837957471609116,-0.10924170166254044,-0.09365243464708328,29.072595596313477,-11.839417457580566,40.88813018798828,0
528,5279957,-0.042370349168777466,0.03786154463887215,-1.009440302848816,-0.22377584874629974,0.7170500159263611,0.4956569969654083,29.096220016479492,-7.704096794128418,40.49444580078125,0
529,5289915,0.0582757405936718,-0.004843589384108782,-1.0232442617416382,0.635021448135376,-0.0758553296327591,0.15359923243522644,30.37061309814453,-8.505410194396973,39.899227142333984,0
530,5300020,-0.039750389754772186,0.015854543074965477,-1.002260684967041,-0.1889076679944992,0.025745095685124397,-0.3638421297073364,31.445056915283203,-10.576821327209473,40.08673095703125,0
531,5309853,0.014412610791623592,0.08082260936498642,-0.972011148929596,-0.09033513069152832,-0.12364564090967178,-0.5797060132026672,32.66450500488281,-8.163423538208008,40.3597526550293,0
532,5319947,0.02175082080066204,-0.1083422303199768,-1.0100001096725464,-0.14295820891857147,1.312862515449524,0.17382583022117615,28.205602645874023,-12.103894233703613,41.78839874267578,0
533,5329568,-0.017215391620993614,0.059150587767362595,-1.017554759979248,0.8679686188697815,0.5360355973243713,-0.023583171889185905,28.94637107849121,-11.625326156616211,38.73131561279297,0
534,5339979,0.04933875799179077,0.05098826065659523,-0.9822955131530762,-0.7743567824363708,0.01243787445127964,-1.1146539449691772,29.381303787231445,-9.765117645263672,40.25221252441406,0
535,5350109,-0.04821603000164032,-0.070503368973732,-0.9951178431510925,0.5132764577865601,-0.6887915134429932,0.5079858899116516,30.890316009521484,-10.438937187194824,37.55828094482422,0
536,5359947,0.022380869835615158,0.0035628792829811573,-0.9956060647964478,0.19246906042099,-0.10616017878055573,-0.8465068936347961,31.280744552612305,-9.843254089355469,39.33000564575195,0
537,5369905,-0.10373521596193314,0.025371499359607697,-0.9712725877761841,-0.7696579098701477,-0.14768554270267487,-0.432043194770813,30.853769302368164,-9.050481796264648,40.718326568603516,0
538,5380036,-0.026812661439180374,-0.011056410148739815,-0.9959092736244202,0.6112688183784485,-0.5859975218772888,-0.028159525245428085,29.634052276611328,-10.058952331542969,38.43198776245117,0
539,5390011,0.04710647836327553,0.015502230264246464,-1.0305482149124146,0.33472004532814026,0.35320621728897095,0.3750743269920349,29.610143661499023,-11.03745174407959,39.642295837402344,0
540,5399879,0.0390305258333683,-0.057715460658073425,-0.9747177362442017,0.58833247423172,0.6005109548568726,0.10140840709209442,29.398941040039062,-9.53474235534668,38.84980773925781,0
541,5410112,-0.014712336473166943,-0.021457044407725334,-0.9724491834640503,0.08828666806221008,-0.6745511889457703,-0.7667699456214905,30.118432998657227,-10.394487380981445,41.05525207519531,0
542,5419889,-0.0472731776535511,0.025200126692652702,-1.0169785022735596,-0.12760476768016815,0.12544362246990204,-1.035086989402771,31.1397705078125,-9.201231956481934,40.1519660949707,0
543,5429990,-0.0889323502779007,0.029261380434036255,-1.0206416845321655,0.37568578124046326,-0.860360324382782,-0.08346006274223328,30.61353302001953,-11.139835357666016,38.887176513671875,0
544,5440030,-0.01648174226284027,0.01217427384108305,-0.9816539287567139,-0.5307652354240417,-0.23776386678218842,0.029447130858898163,29.25882911682129,-8.968568801879883,40.010894775390625,0
545,5449896,-0.004359066486358643,-0.048706527799367905,-1.0367426872253418,0.15687626600265503,0.7337208390235901,1.2987186908721924,30.489242553710938,-10.458123207092285,40.03297424316406,0
546,5460191,-0.003220148617401719,-0.04447358846664429,-1.0089731216430664,0.25385046005249023,0.08853673934936523,-0.9731876850128174,31.226835250854492,-11.17139720916748,39.76814651489258,0
547,5470248,0.09357942640781403,-0.05633532628417015,-1.0051815509796143,-0.1325136423110962,-0.5578951239585876,0.663191556930542,29.753658294677734,-8.298332214355469,39.612491607666016,0
548,5480001,0.018448561429977417,-0.019748061895370483,-1.0267813205718994,-0.09151428937911987,-0.3825826942920685,-0.031873393803834915,29.044246673583984,-10.881952285766602,39.981834411621094,0
549,5489989,0.019193358719348907,0.08806610852479935,-0.9999411702156067,-0.24762579798698425,-0.1960056871175766,0.17720307409763336,30.421672821044922,-11.447672843933105,38.391056060791016,0
550,5499896,0.0060161203145980835,-0.0625201091170311,-0.9821361303329468,0.2804115414619446,-0.3006364107131958,-0.04553867504000664,29.201391220092773,-9.5914888381958,40.93059539794922,0
551,5509961,-0.04948931559920311,-0.012533500790596008,-0.9765838980674744,0.4798263609409332,0.2036150097846985,-0.5713521242141724,30.0782527923584,-10.207509994506836,39.7896842956543,0
552,5519681,0.036974888294935226,-0.01700306311249733,-1.0302191972732544,0.30742576718330383,-0.3167792558670044,-0.2084684818983078,31.098703384399414,-10.018473625183105,39.552162170410156,0
553,5530253,-0.019205741584300995,-0.05930786952376366,-0.9970563650131226,-0.1446422040462494,0.11353099346160889,-0.5078355073928833,29.306180953979492,-10.793542861938477,40.35026550292969,0
554,5539807,-0.013140257447957993,0.07600123435258865,-1.020079255104065,0.6268916726112366,-0.7476509213447571,-0.19172057509422302,28.93975257873535,-9.691620826721191,41.79529571533203,0
555,5549882,-0.01171713788062334,0.03998663276433945,-1.003494381904602,0.7181854248046875,-0.13159999251365662,0.2837747633457184,30.377595901489258,-11.429444313049316,38.48591613769531,0
556,5559995,0.013161907903850079,0.00423247367143631,-1.0365608930587769,-0.14014409482479095,0.19371511042118073,-0.06814632564783096,30.648784637451172,-9.625508308410645,39.50975799560547,0
557,5569900,0.018930936232209206,-0.017458638176321983,-1.0190578699111938,0.5875114798545837,0.350425660610199,0.2159583419561386,30.23808479309082,-9.658745765686035,38.84675979614258,0
558,5580123,0.0569150410592556,0.02396129071712494,-1.0364454984664917,-0.4325811266899109,-0.5084041357040405,-0.7369528412818909,30.715805053710938,-9.44877815246582,40.31181716918945,0
559,5590022,0.04380704462528229,0.1617908626794815,-0.9864044189453125,-0.3307402431964874,0.24840810894966125,0.08816982060670853,29.093307495117188,-11.038187026977539,39.996734619140625,0
560,5600193,0.044298604130744934,0.06894262135028839,-1.0200337171554565,0.32169273495674133,-0.3157595992088318,-0.28715160489082336,29.500083923339844,-10.407748222351074,40.74301528930664,0
561,5610036,-0.027293017134070396,-0.031866997480392456,-1.0538290739059448,0.21912838518619537,0.0530448853969574,-0.653932511806488,30.830015182495117,-12.129450798034668,40.51591491699219,0
562,5620113,0.07954874634742737,0.016697529703378677,-1.0102543830871582,-1.5796481370925903,0.5751335024833679,0.10973767936229706,31.37870979309082,-8.983170509338379,39.49991989135742,0
563,5629785,-0.03820401057600975,0.06508208811283112,-1.0200761556625366,-0.06155642122030258,-0.1855766624212265,-0.4756302535533905,30.24216079711914,-11.066182136535645,40.949729919433594,0
564,5640027,-0.08049836754798889,0.025292497128248215,-0.9812329411506653,0.2948473393917084,-0.1557645946741104,-1.6802992820739746,29.92384910583496,-9.267455101013184,41.71043014526367,0
565,5650052,0.04441993311047554,0.054202694445848465,-1.0185796022415161,0.2256985455751419,-0.5770959258079529,-0.31840983033180237,30.755550384521484,-10.97095012664795,38.57551193237305,0
566,5660045,0.01412498764693737,-0.026111172512173653,-1.0001285076141357,0.18476176261901855,-1.228674292564392,0.2407466024160385,28.755496978759766,-10.423940658569336,41.23990249633789,0
567,5670003,-0.0633922591805458,0.04498595744371414,-0.9850050210952759,0.2592332363128662,0.17786972224712372,-0.44935742020606995,30.321313858032227,-11.433981895446777,38.80399703979492,0
568,5680000,-0.06902281194925308,-0.0455264151096344,-0.9807161688804626,-0.2078825682401657,1.7300375699996948,0.15689031779766083,31.779273986816406,-10.933578491210938,39.133785247802734,0
569,5689964,-0.03287780284881592,0.012554790824651718,-1.0112918615341187,0.5105782747268677,-0.006068323738873005,0.07311422377824783,31.43996238708496,-10.216899871826172,38.335723876953125,0
570,5699981,-0.045925065875053406,-0.0054372455924749374,-0.996829092502594,0.5653120279312134,-0.2509637176990509,-0.3504841923713684,30.241350173950195,-10.540009498596191,38.817832946777344,0
571,5709724,0.01796673610806465,-0.018521742895245552,-1.000074028968811,-0.10199125111103058,0.6669902205467224,-0.18541951477527618,30.28856086730957,-10.608926773071289,41.35981369018555,0
572,5720019,0.008799531497061253,0.018777325749397278,-0.9797021746635437,0.38553503155708313,-0.03080381266772747,-1.1561248302459717,29.708444595336914,-8.220719337463379,41.479732513427734,0
573,5729796,-0.0032253931276500225,-0.013316256925463676,-0.9937257170677185,0.39937248826026917,0.3224852681159973,0.03714562579989433,29.25168800354004,-9.790079116821289,39.29759979248047,0
574,5739789,-0.00043958137393929064,-0.030156806111335754,-0.9978951811790466,-0.09838171303272247,0.41863203048706055,-0.9281126260757446,28.87796974182129,-10.830204010009766,40.60191345214844,0
575,5749851,0.023624293506145477,0.008045033551752567,-0.9911471605300903,-0.5420008897781372,-0.06525791436433792,0.32499945163726807,29.886457443237305,-9.948155403137207,41.00971984863281,0
576,5760072,-0.053820859640836716,0.03196442499756813,-1.0251379013061523,1.3681858777999878,0.9060765504837036,0.8364650011062622,28.486610412597656,-9.835247039794922,40.020912170410156,0
577,5769997,-0.08333130925893784,0.10559503734111786,-1.0335357189178467,0.29208478331565857,-0.046834349632263184,-0.2658661901950836,31.286706924438477,-9.842960357666016,40.312644958496094,0
578,5779864,-0.005351567175239325,0.03185480833053589,-0.9777528643608093,-0.25932517647743225,0.339246541261673,-0.031752683222293854,29.376741409301758,-11.032379150390625,38.53898620605469,0
579,5789867,0.02937518060207367,0.05010209605097771,-0.9535866379737854,-0.21675460040569305,0.5330232977867126,0.5467432737350464,30.247831344604492,-10.972199440002441,38.90876388549805,0
580,5800000,-0.006954549811780453,-0.0021549398079514503,-0.9939860105514526,-0.023631388321518898,0.2434307485818863,-0.5995165109634399,30.518665313720703,-9.66311264038086,38.70553207397461,0
581,5809949,-0.0872938260436058,0.0006339738029055297,-0.9690947532653809,-0.3100730776786804,0.015620042569935322,0.7763468623161316,29.028059005737305,-11.282482147216797,38.13461685180664,0
582,5820241,-0.07374317198991776,0.0546436570584774,-1.0189646482467651,0.4334544837474823,0.39335721731185913,-0.4720737040042877,28.882904052734375,-9.006603240966797,40.526893615722656,0
583,5830140,-0.059202615171670914,-0.001859362586401403,-1.0177745819091797,1.0735844373703003,0.4591808021068573,-0.3856334388256073,29.394454956054688,-11.265501022338867,40.07246398925781,0
584,5839809,0.11234933882951736,0.0802164152264595,-1.0164012908935547,-0.353449285030365,-0.06292304396629333,0.37847304344177246,32.19288635253906,-10.481291770935059,39.39870834350586,0
585,5849742,-0.01933213695883751,-0.11610245704650879,-1.038308024406433,-0.7879572510719299,0.13927173614501953,0.6343480348587036,29.4530029296875,-10.48846435546875,40.05752944946289,0
586,5859979,0.037590473890304565,0.05430982634425163,-1.0130659341812134,0.10349968075752258,-0.6287336349487305,-0.3677977919578552,29.82497787475586,-8.85495376586914,41.24293518066406,0
587,5869889,-0.019005190581083298,-0.026542378589510918,-1.0359177589416504,-0.08063825219869614,-0.0346752405166626,-0.25228309631347656,28.018075942993164,-9.992182731628418,38.78773880004883,0
588,5880300,0.025670351460576057,-0.03687401860952377,-0.9950151443481445,-0.7053197622299194,0.18799738585948944,-0.7896943688392639,28.08962059020996,-9.676288604736328,41.325050354003906,0
589,5889923,-0.02353517897427082,0.0462828055024147,-0.9924592971801758,0.7762796878814697,-0.1960877776145935,-0.04232694208621979,28.678525924682617,-10.91864013671875,40.39586639404297,0
590,5899942,0.03793010488152504,-0.06684493273496628,-1.0015809535980225,-0.4653753638267517,0.39428868889808655,-0.10442917793989182,30.039335250854492,-9.178750991821289,40.63227081298828,0
591,5910027,0.00700377905741334,0.093033067882061,-1.0127813816070557,0.25694596767425537,-0.3339800536632538,-0.750809907913208,29.139619827270508,-9.717416763305664,38.17055130004883,0
592,5919921,0.01616496592760086,0.07265516370534897,-0.9656164050102234,0.32345816493034363,0.6717513799667358,-0.120594322681427,30.456340789794922,-8.377862930297852,40.44063186645508,0
593,5930097,0.0540512315928936,0.0010905497474595904,-1.0170053243637085,-0.25449737906455994,-0.3165600597858429,-0.5819272398948669,30.62891960144043,-11.124560356140137,40.294246673583984,0
594,5940260,-0.03313516825437546,0.06958365440368652,-1.019906997680664,-0.2634830176830292,0.032805781811475754,0.7125621438026428,29.65266990661621,-8.60220718383789,41.960514068603516,0
595,5950128,-0.05340434983372688,-0.047193508595228195,-0.9896080493927002,0.7046482563018799,-0.32530084252357483,0.276620090007782,31.33814239501953,-10.511428833007812,39.35878372192383,0
596,5959896,-0.08737369626760483,0.038408346474170685,-0.998547375202179,-0.7944493889808655,0.8301107883453369,-0.8377276062965393,29.608095169067383,-9.034099578857422,39.55058670043945,0
597,5970122,-0.028236376121640205,0.01895258016884327,-0.995047926902771,0.5567145347595215,0.21390259265899658,-0.3057996332645416,30.55024528503418,-10.044767379760742,40.682395935058594,0
598,5980230,-0.041840460151433945,-0.0867914929986,-0.9537443518638611,1.032235026359558,0.020323583856225014,-0.31262508034706116,30.846986770629883,-11.259637832641602,41.14981460571289,0
599,5990067,0.022946035489439964,-0.03757251799106598,-0.9779552817344666,-0.44094619154930115,0.6532101035118103,-0.20358172059059143,30.34952735900879,-11.923981666564941,39.788360595703125,0
600,5999867,0.021249599754810333,0.034123774617910385,-0.9916409850120544,-0.6577842235565186,-0.43248608708381653,0.2435906082391739,30.24933433532715,-12.018555641174316,39.0706672668457,0
601,6009848,0.0005528127076104283,0.03551013767719269,-0.9895140528678894,-1.044344425201416,0.47223642468452454,-0.2968555688858032,31.330413818359375,-10.844283103942871,39.794193267822266,0
602,6019862,0.026462115347385406,-0.06507641822099686,-0.9917155504226685,0.08890706300735474,-1.3092923164367676,0.24615150690078735,29.077253341674805,-11.242786407470703,41.830379486083984,0
603,6029789,0.057061098515987396,0.06663799285888672,-1.032917857170105,0.05598154664039612,0.3485071361064911,0.7948086857795715,29.67091178894043,-9.284738540649414,40.82358169555664,0
604,6040015,0.009898445568978786,0.011082274839282036,-1.0057629346847534,-0.12919515371322632,-0.45804363489151,0.005460754502564669,32.49589157104492,-10.317606925964355,40.89494323730469,0
605,6049994,0.009904972277581692,0.03931879624724388,-1.0331616401672363,-0.012517288327217102,-0.10195814073085785,-0.6215420961380005,32.06312942504883,-10.104204177856445,39.31538391113281,0
606,6059984,-0.05558720976114273,-0.05447449907660484,-1.0310213565826416,-0.23976105451583862,-0.5240365266799927,1.0234096050262451,28.97617530822754,-11.051445007324219,39.17250442504883,0
607,6069948,-0.10270116478204727,-0.08878819644451141,-1.0050605535507202,0.0965213030576706,-0.535595178604126,0.36390823125839233,30.975860595703125,-11.360944747924805,40.74458312988281,0
608,6079895,-0.09979115426540375,-0.0144494092091918,-1.0078051090240479,0.3987143039703369,-0.17062442004680634,0.14377912878990173,31.018156051635742,-9.740478515625,40.0577392578125,0
609,6089921,-0.0026098734233528376,0.04382507875561714,-1.0090543031692505,0.23985455930233002,0.19927193224430084,-0.4443874657154083,30.57080841064453,-11.554679870605469,38.3763542175293,0
610,6100199,0.06800387054681778,0.06726519763469696,-1.0268861055374146,-1.2126253843307495,-0.5617422461509705,0.7507746815681458,30.127321243286133,-8.934999465942383,39.57508850097656,0
611,6109586,0.021502582356333733,-0.017259249463677406,-1.029118299484253,-0.6192489862442017,-0.5925180315971375,-0.6490159630775452,30.180240631103516,-9.82148265838623,40.463783264160156,0
612,6119989,0.006261599250137806,-0.036781664937734604,-0.9969184994697571,0.18625715374946594,-0.4457257091999054,0.46985629200935364,30.698936462402344,-9.83304500579834,40.01457977294922,0
613,6129782,-0.0073060872964560986,0.09550619125366211,-1.0301662683486938,-0.03721058741211891,-0.6964929699897766,0.4639667868614197,29.416826248168945,-9.906781196594238,41.103370666503906,0
614,6140041,-0.0475703589618206,0.013702353462576866,-0.9644163846969604,0.3424071669578552,0.40218549966812134,1.0369123220443726,31.429101943969727,-8.57104206085205,39.993431091308594,0
615,6149781,0.004958607722073793,-0.021721523255109787,-0.9987680912017822,-0.11643246561288834,-0.6084988117218018,-0.14093181490898132,31.842790603637695,-10.316364288330078,39.43746566772461,0
616,6160184,-0.05702555179595947,-0.029072700068354607,-0.9702361226081848,-0.9906501770019531,-1.2106620073318481,-0.1873350888490677,30.689796447753906,-10.082785606384277,40.736541748046875,0
617,6170018,0.055405013263225555,0.07102401554584503,-1.0050299167633057,0.38626840710639954,-0.37618404626846313,-0.047457531094551086,28.399250030517578,-9.625703811645508,41.98489761352539,0
618,6179794,-0.019493483006954193,0.015618122182786465,-1.0054278373718262,-0.44719064235687256,0.09868890047073364,1.4775465726852417,30.283061981201172,-10.336739540100098,40.173160552978516,0
619,6190292,-0.13991963863372803,0.018682826310396194,-0.9890363812446594,-0.36354973912239075,0.28595390915870667,-0.5757426023483276,29.653104782104492,-9.941166877746582,37.71033477783203,0
620,6199869,-0.01153504941612482,-0.039504148066043854,-1.0105983018875122,0.16539275646209717,0.9952492117881775,0.010685889981687069,29.9976749420166,-9.366251945495605,41.50631332397461,0
621,6210035,0.005470636300742626,0.03876128047704697,-0.9898506999015808,-0.8260946273803711,-0.23738868534564972,0.44137224555015564,29.71278953552246,-10.235888481140137,39.42109680175781,0
622,6220015,-0.018207864835858345,0.07249294221401215,-1.0048738718032837,0.13524380326271057,-0.29715240001678467,-0.32707250118255615,29.304702758789062,-9.211694717407227,39.13140106201172,0
623,6229987,-0.006492200307548046,0.030372878536581993,-1.0021106004714966,-0.543923556804657,-0.410284161567688,-0.1926458179950714,29.20876121520996,-9.258785247802734,40.7148323059082,0
624,6239752,-0.10156484693288803,-0.05339406058192253,-1.000779390335083,-0.1409096121788025,-0.7422083616256714,-0.5623607635498047,29.837650299072266,-10.962045669555664,38.8310661315918,0
625,6250141,-0.1317831128835678,0.09096768498420715,-1.0017943382263184,0.1086660847067833,-0.939163863658905,0.309963196516037,31.31250762939453,-10.544317245483398,41.29549026489258,0
626,6260102,-0.026542020961642265,0.03966512903571129,-0.9826552867889404,-0.549498438835144,0.2633956968784332,0.16510678827762604,30.975345611572266,-11.401127815246582,39.10276794433594,0
