seq,time_us,ax,ay,az,gx,gy,gz,mx,my,mz,drop_flag
0,45,0.11980703473091125,0.04065556451678276,-1.014725685119629,1.1089609861373901,-0.12395638227462769,-0.1764313280582428,28.802629470825195,-10.242419242858887,39.4578857421875,0
1,10169,0.0017054877243936062,0.0018724125111475587,-1.050462245941162,-0.039396028965711594,0.36795783042907715,0.7105299234390259,30.561342239379883,-10.525864601135254,41.621341705322266,0
2,20060,-0.0027652813587337732,-0.00027005336596630514,-1.0120761394500732,0.09500183165073395,-0.11814813315868378,-0.24501794576644897,29.280336380004883,-10.293396949768066,39.75464630126953,0
3,29949,0.023916224017739296,-0.03050953522324562,-1.0173622369766235,-0.2810720205307007,-0.033180493861436844,1.0185554027557373,29.357807159423828,-10.550207138061523,40.06465530395508,0
4,40162,0.029297657310962677,0.07582805305719376,-1.0130153894424438,0.14993226528167725,0.31805795431137085,-0.3777030110359192,32.142433166503906,-8.591882705688477,38.47315979003906,0
5,49997,0.055793631821870804,0.049239832907915115,-0.978495180606842,-0.1430901139974594,-0.17660710215568542,1.1163264513015747,30.610395431518555,-10.588360786437988,41.03529357910156,0
6,60086,0.025995882228016853,-0.01658332347869873,-0.9939050078392029,-0.9592871069908142,0.871833086013794,-0.6110929846763611,30.275508880615234,-11.0911865234375,39.1229248046875,0
7,70125,-0.060027167201042175,-0.029128750786185265,-1.0254944562911987,0.8099169135093689,0.23847466707229614,0.22995133697986603,29.928796768188477,-10.929666519165039,40.801422119140625,0
8,79898,0.009153181686997414,-0.03881273791193962,-1.0317388772964478,0.4198817014694214,0.016278907656669617,0.17584355175495148,29.25763702392578,-10.590136528015137,41.42882537841797,0
9,89838,-0.03838302940130234,0.08387670665979385,-1.0089943408966064,0.08563056588172913,0.062368690967559814,0.395518034696579,29.88283348083496,-8.652436256408691,41.04460906982422,0
10,99950,0.06955093145370483,0.005960800684988499,-1.0010051727294922,0.020816819742321968,0.2415734827518463,0.30457499623298645,29.410018920898438,-7.8872456550598145,39.179344177246094,0
11,109997,-0.06410825997591019,0.006576539017260075,-1.0074150562286377,0.28267189860343933,0.5037190318107605,0.18438215553760529,30.066368103027344,-9.249799728393555,38.67734909057617,0
12,119958,-0.01652033068239689,0.008241131901741028,-1.0373114347457886,-1.047288179397583,0.3175390064716339,0.26256537437438965,30.563276290893555,-9.598323822021484,39.02290344238281,0
13,130196,0.023054659366607666,-0.016386594623327255,-1.0341849327087402,-0.10288872569799423,0.11273537576198578,0.38184091448783875,28.450511932373047,-10.095197677612305,39.38658905029297,0
14,140091,0.039928678423166275,0.08471392095088959,-0.9936765432357788,0.39162009954452515,0.29740267992019653,0.19405597448349,30.274404525756836,-11.461355209350586,37.60226821899414,0
15,149958,-0.07673497498035431,0.0422428660094738,-1.0034033060073853,0.3417220413684845,-0.970476508140564,0.29086777567863464,30.98636245727539,-9.0801362991333,41.20341873168945,0
16,159850,-0.07828348129987717,-0.0051690745167434216,-0.9966883063316345,-0.6534221172332764,-0.10436800122261047,-0.408353716135025,29.87765121459961,-10.621572494506836,39.694881439208984,0
17,169869,-0.07390400767326355,-0.04206732660531998,-0.9981144666671753,0.1401260644197464,-0.44703567028045654,0.29756394028663635,30.492511749267578,-9.703192710876465,38.2078742980957,0
18,180371,-0.03835007920861244,0.0417691171169281,-0.9872769713401794,0.5747562050819397,0.14049674570560455,0.32241880893707275,30.115283966064453,-9.832470893859863,39.952388763427734,0
19,189806,-0.05864330753684044,0.0010770815424621105,-0.980103075504303,-0.9106777310371399,-0.14415952563285828,0.1560913473367691,29.215145111083984,-9.235522270202637,40.68118667602539,0
20,200135,0.028940683230757713,0.008102169260382652,-1.006842851638794,-0.31275901198387146,-0.34279483556747437,0.590307354927063,29.621326446533203,-9.777510643005371,38.642791748046875,0
21,210006,-0.033003345131874084,0.014248089864850044,-0.9968435764312744,-0.5834411382675171,0.015580353327095509,0.2650734484195709,30.08162498474121,-10.464735984802246,40.168434143066406,0
22,219695,-0.045114126056432724,0.04006829857826233,-1.0125033855438232,-0.24525755643844604,0.1997372955083847,0.5630530714988708,29.21351432800293,-10.171682357788086,38.60004806518555,0
23,230067,0.06163449212908745,0.02230621501803398,-1.0141689777374268,-0.40511536598205566,-0.31529268622398376,0.16551576554775238,31.68122100830078,-12.044449806213379,39.40966796875,0
24,240137,0.015092974528670311,0.07291758060455322,-1.0199267864227295,0.765657365322113,-0.06960581988096237,-0.7790915369987488,28.594640731811523,-9.769750595092773,38.819786071777344,0
25,249765,0.0027780525851994753,-0.055591851472854614,-0.993452250957489,-0.5767897963523865,-0.13852930068969727,0.11412736028432846,29.063323974609375,-12.519055366516113,38.84995651245117,0
26,259970,-0.0016624793643131852,-0.10076210647821426,-1.0259615182876587,0.7168256044387817,-0.1477510631084442,0.1432163119316101,31.27423095703125,-10.06095027923584,40.84598922729492,0
27,269998,-0.032255854457616806,-0.06432747095823288,-1.023342490196228,-0.33596089482307434,0.3476158082485199,0.6398224234580994,29.89086151123047,-11.681124687194824,39.503318786621094,0
28,280031,-0.0267925001680851,0.0802830308675766,-0.9733412861824036,-0.4047802686691284,0.1629060059785843,-0.45105284452438354,27.008056640625,-10.431618690490723,39.818843841552734,0
29,289843,-0.003000965341925621,-0.009137059561908245,-0.9940958023071289,-0.006442922167479992,-0.7737088799476624,1.2394168376922607,30.564851760864258,-10.977046966552734,39.63947677612305,0
30,300102,0.0029680090956389904,-0.0002506272285245359,-0.990347683429718,-0.3374004662036896,-0.18129850924015045,0.06880155950784683,29.917438507080078,-8.913081169128418,41.14636993408203,0
31,309895,0.11524061113595963,0.016613474115729332,-0.9559215903282166,-0.403830349445343,0.4316699206829071,-0.9383991360664368,29.45758819580078,-10.330925941467285,39.43378448486328,0
32,319748,-0.08982653170824051,0.001998565625399351,-0.996157705783844,-0.8949792385101318,0.6435279250144958,-0.15618933737277985,30.61289405822754,-9.902918815612793,40.1009521484375,0
33,329486,-0.01298895850777626,0.02996884286403656,-1.0002713203430176,0.2697751224040985,-0.3414851129055023,-0.1798475831747055,28.770252227783203,-11.329499244689941,39.979034423828125,0
34,339729,0.0658617690205574,0.023359524086117744,-0.9903785586357117,0.11690066009759903,-0.07447252422571182,0.4428548216819763,29.24169921875,-9.888516426086426,39.7117805480957,0
35,350027,-0.00635587377473712,-0.06306299567222595,-0.9899006485939026,0.5426527261734009,-0.6385146379470825,-0.5842240452766418,30.719663619995117,-9.211257934570312,42.67357635498047,0
36,360065,-0.03414288908243179,0.08646749705076218,-1.0199600458145142,0.4998859167098999,-0.6460129618644714,-0.696413516998291,30.347620010375977,-9.867164611816406,39.14353561401367,0
37,370253,0.007261786609888077,-0.04882967472076416,-0.975135862827301,-0.6140349507331848,-1.0440282821655273,0.802629292011261,29.316665649414062,-9.330802917480469,41.6658935546875,0
38,379818,0.010238251648843288,0.07074097543954849,-0.9893375039100647,0.7159615755081177,0.7804809808731079,0.23627685010433197,30.92090606689453,-9.368160247802734,38.83211898803711,0
39,390221,-0.05623731017112732,-0.05263521149754524,-0.9788931012153625,-0.575487494468689,0.6739325523376465,0.3615643084049225,29.802335739135742,-10.293045997619629,39.69749450683594,0
40,399451,0.044420041143894196,-0.020287837833166122,-1.0019131898880005,0.45942726731300354,0.04599280282855034,0.827798068523407,29.74726676940918,-9.46953296661377,40.23001480102539,0
41,409926,-0.049498554319143295,-0.014844190329313278,-0.9960022568702698,-0.3181445896625519,0.9918469786643982,0.3735312521457672,30.411224365234375,-9.823548316955566,41.07097625732422,0
42,420232,-0.02925921231508255,0.12171207368373871,-0.9937198758125305,-0.43064990639686584,-0.21097591519355774,0.6421540975570679,29.17824935913086,-9.815993309020996,40.65475082397461,0
43,430159,-0.059834275394678116,0.04885353893041611,-0.9850809574127197,-0.30955255031585693,0.036122750490903854,0.1125994399189949,30.79987144470215,-9.032771110534668,39.71864700317383,0
44,439968,-0.050901949405670166,-0.020593861117959023,-1.0066940784454346,-1.0945626497268677,-0.43405669927597046,0.7463173866271973,29.579349517822266,-10.42337703704834,37.450965881347656,0
45,450149,-0.03670202195644379,0.018850985914468765,-0.9987131357192993,-0.5344120860099792,-0.7465128302574158,-1.062173843383789,28.66264533996582,-9.595654487609863,40.29041290283203,0
46,460043,0.03175164386630058,-0.02806740440428257,-0.9959375262260437,-0.4384438991546631,-0.2646171748638153,0.5112193822860718,29.429611206054688,-10.589149475097656,39.942420959472656,0
47,470157,0.03924649953842163,0.03051658533513546,-0.9889926314353943,0.3814065456390381,0.8894439339637756,-0.14378467202186584,29.15131950378418,-9.198508262634277,41.17239761352539,0
48,480046,0.027822401374578476,0.0474015511572361,-0.97996586561203,-0.6448022127151489,0.3689790964126587,-0.5005567669868469,29.66411018371582,-10.011154174804688,39.31269454956055,0
49,489627,-0.043486692011356354,0.037933532148599625,-0.9708853960037231,-0.29683032631874084,-0.041662439703941345,0.6642663478851318,28.707773208618164,-9.907454490661621,39.31618118286133,0
50,500061,-0.015943165868520737,0.04224959388375282,-0.9816594123840332,-0.4533521234989166,-0.09905385226011276,0.7130265831947327,29.85528564453125,-9.53184986114502,40.312538146972656,0
51,510138,-0.042159199714660645,0.06111486628651619,-1.0039749145507812,0.7209886908531189,0.002805292373523116,-0.23273730278015137,31.899261474609375,-10.399935722351074,38.52518844604492,0
52,520129,-0.015224304050207138,0.003456478239968419,-1.021298885345459,0.46240952610969543,-0.5793930292129517,-0.4061269164085388,30.665342330932617,-9.925259590148926,41.10019302368164,0
53,529881,0.027329232543706894,-0.036809030920267105,-1.0102818012237549,0.16397210955619812,0.9857770800590515,-0.19965511560440063,30.177757263183594,-10.311887741088867,38.99053192138672,0
54,539861,-0.061102237552404404,-0.056016240268945694,-0.9910833239555359,-0.7417442202568054,0.3860779404640198,0.5555145740509033,29.159679412841797,-8.429383277893066,39.58438491821289,0
55,550083,-0.0034420350566506386,0.11328963190317154,-0.9792674779891968,0.9151503443717957,0.36744827032089233,0.4975954294204712,29.626127243041992,-10.063041687011719,41.68537139892578,0
56,559938,0.050220198929309845,0.054835934191942215,-1.0272306203842163,0.7896031141281128,-0.499899685382843,0.5041347146034241,31.120471954345703,-9.61336612701416,39.457496643066406,0
57,570427,-0.08470728248357773,0.011304711923003197,-1.0027353763580322,-0.6199526190757751,-0.4975968897342682,0.23210757970809937,30.522842407226562,-10.269906997680664,38.829200744628906,0
58,579970,0.012532741762697697,0.014035369269549847,-1.003453016281128,0.4380472004413605,-0.003628350095823407,-0.4540408253669739,30.122495651245117,-9.233198165893555,39.52003479003906,0
59,590132,-0.04491781070828438,-0.11323261260986328,-0.9922611117362976,-0.09719812124967575,-0.4065210223197937,1.0830525159835815,30.539173126220703,-10.6399564743042,39.57506561279297,0
60,600050,-0.048274099826812744,0.020302115008234978,-0.9785279035568237,0.2492533028125763,-0.10964243859052658,-0.2825254499912262,28.98117446899414,-11.17408275604248,39.919769287109375,0
61,609836,0.0007712491205893457,0.0720035657286644,-0.9886470437049866,-0.7891726493835449,0.4076404273509979,-0.17541161179542542,31.48912239074707,-8.169775009155273,39.20243453979492,0
62,619857,-0.07257027924060822,0.07395143061876297,-1.0062071084976196,0.28620028495788574,-0.07209420949220657,-1.1979786157608032,29.275617599487305,-10.393770217895508,39.82664108276367,0
63,629865,0.022433485835790634,-0.040319301187992096,-1.023024559020996,-0.057900749146938324,-0.21602971851825714,-0.6967777013778687,28.008434295654297,-9.18620491027832,39.5596923828125,0
64,640031,-0.03347102925181389,-0.1125294640660286,-0.9903679490089417,-0.11422526836395264,-0.1621367335319519,0.22694618999958038,28.416032791137695,-10.438055038452148,40.0087776184082,0
65,650218,0.026237333193421364,0.0023421873338520527,-0.972075879573822,0.2633262872695923,-0.8884069919586182,-0.14657755196094513,29.602140426635742,-8.904577255249023,39.13454818725586,0
66,659874,-0.033265188336372375,-0.041094835847616196,-1.0159776210784912,0.04546947777271271,0.18966522812843323,0.28983041644096375,28.37738800048828,-10.07702350616455,40.44562530517578,0
67,670076,-0.0032965445425361395,0.12012951076030731,-0.9767789244651794,-0.27316224575042725,-0.9251490831375122,-0.5527477860450745,29.189191818237305,-9.649614334106445,39.53517532348633,0
68,679960,0.01175489742308855,-0.06865295767784119,-1.004106879234314,0.29540032148361206,-0.5606914162635803,0.7029432058334351,30.773921966552734,-10.889864921569824,39.972042083740234,0
69,689821,-0.028527481481432915,0.0939345508813858,-1.0160306692123413,0.23018589615821838,-0.16654165089130402,-0.10522792488336563,30.227039337158203,-10.164631843566895,40.18027877807617,0
70,700094,-0.05663690343499184,-0.09764162451028824,-0.9567373394966125,0.21622547507286072,0.5090561509132385,0.702734649181366,33.28129959106445,-7.575076103210449,40.480323791503906,0
71,709993,-0.1026500016450882,-0.053566548973321915,-1.0109360218048096,0.8461751341819763,0.0540275014936924,-0.25294002890586853,30.18863868713379,-10.68430233001709,41.41933822631836,0
72,719831,0.07956033200025558,0.0026663264725357294,-0.9878130555152893,0.23383985459804535,-0.9703250527381897,-0.5929305553436279,30.68138313293457,-9.599474906921387,38.509151458740234,0
73,729654,0.04792703315615654,0.07687035948038101,-1.0318979024887085,0.1627940982580185,-0.6664958000183105,0.1363196223974228,29.20596694946289,-11.327357292175293,38.96770095825195,0
74,739875,-0.0020960576366633177,0.045632828027009964,-1.025797963142395,-1.316245436668396,0.5276755690574646,0.46151575446128845,30.349905014038086,-8.115482330322266,41.674842834472656,0
75,750074,-0.003591363551095128,0.034703709185123444,-0.9903901815414429,-0.7838904857635498,-0.47090235352516174,0.22720427811145782,28.01035499572754,-10.757389068603516,41.15353775024414,0
76,759996,-0.023887639865279198,0.009038451127707958,-0.9862602949142456,0.009328433312475681,0.13111107051372528,-0.2307259440422058,30.017610549926758,-9.991196632385254,39.302757263183594,0
77,770157,-0.09044124186038971,0.04149702191352844,-0.9895077347755432,-0.016216440126299858,0.44449153542518616,0.729115903377533,32.49980926513672,-9.570080757141113,39.637939453125,0
78,779983,0.03498595207929611,-0.04044102504849434,-0.9986975193023682,-0.26194363832473755,-0.4636847972869873,0.23327718675136566,28.973981857299805,-10.257079124450684,41.25910568237305,0
79,789691,-0.04358373209834099,-0.04806157574057579,-1.010388970375061,0.07596885412931442,0.43145638704299927,0.7057113647460938,31.13133430480957,-10.407013893127441,41.19934844970703,0
80,800019,-0.1105150356888771,0.11717212200164795,-0.9982630610466003,-0.10047066956758499,0.01131802424788475,0.274339497089386,30.686634063720703,-10.854330062866211,39.387935638427734,0
81,810035,-0.04260718449950218,-0.09511546790599823,-0.9939132332801819,0.33175572752952576,-0.010239893570542336,-0.5462114214897156,28.265796661376953,-10.597787857055664,40.054771423339844,0
82,820009,0.0031083538196980953,-0.029490333050489426,-0.9980806112289429,-0.04927036911249161,0.17886142432689667,0.007918979972600937,30.195261001586914,-11.596973419189453,40.22761154174805,0
83,830103,-0.06668872386217117,-0.034557800740003586,-0.9608973860740662,0.03789985924959183,-0.08243263512849808,-0.3932090997695923,31.68964385986328,-8.040775299072266,39.18818664550781,0
84,840112,0.017458271235227585,0.06148898974061012,-1.0036107301712036,-0.6746311187744141,-0.14481723308563232,0.6097239255905151,28.92704963684082,-10.3546142578125,40.12655258178711,0
85,849965,-0.021712223067879677,-0.08132673054933548,-0.978401243686676,0.5470461249351501,0.44940441846847534,-0.6461136341094971,29.84333038330078,-10.577094078063965,42.418975830078125,0
86,860146,0.02740640752017498,0.011452184990048409,-0.9868671894073486,0.5440353751182556,-0.14153063297271729,0.14167556166648865,31.278011322021484,-9.179654121398926,39.46197509765625,0
87,869805,0.013756267726421356,0.019196851179003716,-0.9944118857383728,-0.8991482257843018,0.28455275297164917,0.10201509296894073,31.382463455200195,-9.334711074829102,40.18998718261719,0
88,880144,0.05609003081917763,-0.04236746206879616,-0.9691726565361023,-0.31454142928123474,0.26807209849357605,0.02498367615044117,30.157798767089844,-9.599100112915039,40.52925109863281,0
89,889990,0.03928166627883911,0.0676344782114029,-1.0432660579681396,-0.16723309457302094,-0.05327634513378143,0.7654910683631897,28.700971603393555,-8.761449813842773,39.28512954711914,0
90,899764,0.04184703901410103,0.022110141813755035,-0.9733697175979614,1.166631817817688,-0.40669840574264526,-0.3875199258327484,29.3780574798584,-9.80644702911377,40.12540817260742,0
91,910026,0.019756387919187546,-0.0101549681276083,-1.0141812562942505,0.36986052989959717,0.0775890052318573,0.47919151186943054,28.277368545532227,-9.75456714630127,39.032630920410156,0
92,920090,0.04271002486348152,-0.026655180379748344,-0.9947289824485779,-0.5632362961769104,0.166113018989563,0.23217208683490753,30.040010452270508,-9.685258865356445,40.82073211669922,0
93,930043,0.01522339042276144,-0.07928530871868134,-1.0360147953033447,-0.21094302833080292,-0.5340834259986877,0.06027890369296074,27.749225616455078,-9.96525764465332,39.137290954589844,0
94,940039,-0.0679243952035904,0.027083242312073708,-0.9850625395774841,0.6442152261734009,0.49321290850639343,0.24462567269802094,30.440370559692383,-9.980932235717773,38.3433952331543,0
95,950078,0.02726462483406067,0.0421726368367672,-1.0236916542053223,0.2884446382522583,0.1463599056005478,-0.7856419086456299,32.25122833251953,-10.942173957824707,40.60245132446289,0
96,960151,0.023346060886979103,-0.007785508409142494,-0.9865407943725586,0.09466725587844849,0.22851990163326263,0.023958109319210052,31.364360809326172,-10.5418119430542,41.57793045043945,0
97,970016,0.04157869890332222,0.05546141788363457,-1.0539593696594238,-0.1843670904636383,0.6185286641120911,-0.42635947465896606,29.05565071105957,-8.477313041687012,38.922607421875,0
98,979980,-0.03524114936590195,-0.05883884057402611,-0.9872871041297913,-0.19656877219676971,-0.2677781581878662,0.26170483231544495,31.325464248657227,-10.854793548583984,39.89011001586914,0
99,990045,-0.02957840822637081,0.06763697415590286,-1.0307976007461548,-0.8727319240570068,-0.18779809772968292,0.030991796404123306,29.055736541748047,-10.273749351501465,40.25873565673828,0
100,1000302,-0.06218521669507027,-0.0629911795258522,-1.0083781480789185,-0.5467607378959656,-0.17438764870166779,0.966939389705658,31.559850692749023,-12.055621147155762,40.4229621887207,0
101,1009870,-0.023704752326011658,0.019621774554252625,-1.0163019895553589,-1.2772376537322998,0.3517133295536041,-0.39950406551361084,30.839723587036133,-10.115732192993164,38.95105743408203,0
102,1019731,0.04250086471438408,-0.029842831194400787,-0.9742811918258667,0.23684582114219666,0.05059758573770523,0.2835192084312439,29.789485931396484,-8.987175941467285,39.79409408569336,0
103,1030058,0.06607621908187866,0.009241056628525257,-1.0195890665054321,0.6294452548027039,0.026693735271692276,0.6096577644348145,30.48974609375,-10.215868949890137,40.24851989746094,0
104,1039807,-0.01665823720395565,0.07806485891342163,-0.9908876419067383,0.13178277015686035,0.6961207389831543,-0.3478774428367615,29.052621841430664,-9.717666625976562,40.14528274536133,0
105,1049944,-0.03218930959701538,-0.04541274905204773,-0.9814289808273315,0.3450787365436554,-0.2939363420009613,-0.543850302696228,29.64706802368164,-9.212400436401367,39.97158432006836,0
106,1060025,-0.08321385085582733,0.004842029418796301,-1.0187522172927856,0.5316303372383118,-0.012540389783680439,0.011145186610519886,30.21908187866211,-9.313472747802734,38.93125915527344,0
107,1070095,-0.012957073748111725,0.0470411591231823,-0.9936420321464539,-0.07254816591739655,-0.17607112228870392,0.1667013317346573,31.490747451782227,-10.707215309143066,41.946998596191406,0
108,1080169,-0.059744514524936676,0.016270987689495087,-1.0186357498168945,0.5077154040336609,-0.9530929327011108,0.6689615845680237,30.16016960144043,-10.69284725189209,39.68001937866211,0
109,1089902,-0.07875966280698776,-0.08189396560192108,-1.0038243532180786,0.12736043334007263,-0.9478989839553833,0.06860869377851486,29.42009925842285,-10.632387161254883,38.760833740234375,0
110,1099999,-0.010406180284917355,0.09959402680397034,-0.9964839220046997,0.19947955012321472,-0.2846614122390747,0.22356747090816498,28.790616989135742,-9.612990379333496,39.956050872802734,0
111,1110006,-0.03148198127746582,0.024055225774645805,-1.0258347988128662,-0.5482290387153625,-0.030773479491472244,-1.0686343908309937,29.961074829101562,-10.3643159866333,41.01744079589844,0
112,1119980,-0.02355458028614521,0.041731204837560654,-1.0267025232315063,0.6857481002807617,0.802354097366333,-0.37838998436927795,30.545650482177734,-10.314663887023926,39.66326904296875,0
113,1129872,-0.006252245046198368,-0.03233031556010246,-0.9990239143371582,0.3400314152240753,-0.2717667520046234,0.31934764981269836,31.701356887817383,-9.399337768554688,39.06917190551758,0
114,1140101,-0.038883935660123825,-0.04788514971733093,-1.0031832456588745,1.2188761234283447,0.3165211081504822,0.028769534081220627,30.198244094848633,-10.02706241607666,40.781246185302734,0
115,1149881,-0.0317964032292366,-0.014700225554406643,-1.02086341381073,1.0151407718658447,-0.3135363757610321,-0.41629865765571594,28.77608299255371,-11.119813919067383,40.90571212768555,0
116,1159958,-0.014612751081585884,-0.03267960622906685,-0.9652774333953857,1.1596224308013916,-0.02367272973060608,0.6590286493301392,29.431737899780273,-9.846765518188477,40.14034652709961,0
117,1170054,0.05573141574859619,0.018968740478157997,-0.9936354756355286,0.1802198886871338,-0.8417122960090637,-0.40392011404037476,30.523900985717773,-8.132341384887695,39.22908401489258,0
118,1179755,-0.009715918451547623,-0.07662292569875717,-1.0056849718093872,0.06020049750804901,1.040873646736145,0.408608078956604,30.33810806274414,-9.408534049987793,39.786048889160156,0
119,1190111,-0.09844467043876648,-0.08624808490276337,-0.9990836977958679,-0.3881545662879944,-0.4528135359287262,-0.3878718316555023,29.66590690612793,-10.402925491333008,39.16999053955078,0
120,1199900,-0.05935736373066902,0.030137481167912483,-0.9843658208847046,-1.0862482786178589,-0.42012354731559753,-0.3471599817276001,28.3720645904541,-9.925498962402344,40.6987419128418,0
121,1210281,-0.022046871483325958,0.028306156396865845,-0.9632649421691895,1.565544843673706,-0.01034455094486475,0.3934374153614044,30.095684051513672,-11.892157554626465,40.92462921142578,0
122,1220067,-0.05640033259987831,0.03240140527486801,-0.9981043934822083,-0.04614938423037529,0.4392441213130951,-0.23747235536575317,29.791919708251953,-10.095152854919434,40.68954849243164,0
123,1229988,0.08619431406259537,-0.024322448298335075,-1.0202305316925049,-0.12750546634197235,0.5574447512626648,-0.16433006525039673,29.64382553100586,-9.543804168701172,40.290042877197266,0
124,1240100,-0.03374950587749481,-0.016678210347890854,-0.9551470279693604,0.17764626443386078,-0.07888416200876236,0.3371800184249878,30.213163375854492,-10.159588813781738,38.49844741821289,0
125,1250118,-0.013549641706049442,-0.0290738046169281,-1.0245792865753174,-0.073600634932518,0.23065069317817688,-0.11566008627414703,30.798057556152344,-10.423309326171875,40.6283073425293,0
126,1260210,0.003483045380562544,0.04860808700323105,-1.0102348327636719,0.6361995935440063,-0.23469547927379608,0.7378747463226318,30.12400245666504,-8.719482421875,40.922000885009766,0
127,1269810,-0.0008394866017624736,0.04873263090848923,-0.9762530326843262,0.034872155636548996,0.7184861898422241,-0.4701278805732727,29.585140228271484,-9.280220031738281,40.624755859375,0
128,1279889,0.014546429738402367,-0.0431101992726326,-1.0312234163284302,1.0763521194458008,-0.23529283702373505,0.24958156049251556,29.395353317260742,-10.933749198913574,39.68801498413086,0
129,1289970,-0.010321859270334244,0.036890577524900436,-0.9466729760169983,0.08686600625514984,0.43793317675590515,-0.14067856967449188,29.611671447753906,-11.272254943847656,40.6390266418457,0
130,1299883,0.040086377412080765,0.02757035754621029,-0.9988561868667603,0.7874854207038879,-0.7126376628875732,-0.22428223490715027,28.625307083129883,-10.317922592163086,39.07859420776367,0
131,1309925,-0.10725580900907516,0.05642033740878105,-1.0293067693710327,-0.07628908008337021,0.7736740708351135,0.3093014657497406,29.366790771484375,-8.503982543945312,41.17508316040039,0
132,1319764,-0.040251560509204865,0.010653965175151825,-0.9907774329185486,0.47631746530532837,-0.13816377520561218,0.3929530084133148,30.71792221069336,-9.723931312561035,40.403533935546875,0
133,1330241,-0.021535539999604225,-0.05069417506456375,-0.975740373134613,-0.6156117916107178,0.31932196021080017,0.7534869313240051,29.501699447631836,-9.738096237182617,39.87691879272461,0
134,1339892,0.08201058954000473,-0.07055459171533585,-0.9886745810508728,0.5313152074813843,0.2668305039405823,0.21734210848808289,28.168825149536133,-9.619134902954102,38.58573532104492,0
135,1350030,-0.018813125789165497,-0.0503024160861969,-0.994745135307312,-0.2587796449661255,-0.192189559340477,0.6244297027587891,31.088672637939453,-10.126444816589355,39.93983840942383,0
136,1359875,-0.020907633006572723,-0.025568833574652672,-1.0241024494171143,0.2049165815114975,0.6438391208648682,-0.44515448808670044,31.294191360473633,-11.843765258789062,40.59880828857422,0
137,1369693,0.036486487835645676,0.022090742364525795,-1.0113097429275513,-0.31399786472320557,-0.2136029750108719,0.06704272329807281,31.137676239013672,-8.488606452941895,40.097572326660156,0
138,1380219,-0.0625893697142601,-0.022456126287579536,-0.9836326837539673,0.626717209815979,-0.5948095917701721,0.4286782741546631,27.660301208496094,-11.393792152404785,38.036842346191406,0
139,1389861,0.041630085557699203,0.0785130187869072,-1.0652748346328735,-0.38395383954048157,0.010771043598651886,-0.9446572661399841,30.386449813842773,-10.67562484741211,41.975772857666016,0
140,1399913,-0.025419550016522408,-0.030215967446565628,-0.9840900897979736,-0.2257232815027237,-0.3773963153362274,-0.44947460293769836,32.014705657958984,-9.770723342895508,40.28029251098633,0
141,1410093,-0.02770245634019375,0.0955435186624527,-0.978789746761322,-0.3173162639141083,0.2184581756591797,0.2793974280357361,28.960098266601562,-8.982861518859863,38.65195083618164,0
142,1419857,0.0201753918081522,-0.01704164408147335,-1.0423918962478638,-0.9446669816970825,-0.32162633538246155,-0.6427863240242004,30.129894256591797,-10.897764205932617,39.59822082519531,0
143,1429986,0.01425839401781559,0.010827899910509586,-1.0515838861465454,0.08586325496435165,0.42849525809288025,-0.34143394231796265,30.879575729370117,-9.956989288330078,39.20848083496094,0
144,1440254,0.009908372536301613,0.01815260387957096,-0.9572019577026367,-0.3021332919597626,0.09044322371482849,0.4022190272808075,28.6170597076416,-8.678007125854492,39.96408462524414,0
145,1450092,0.050130389630794525,-0.07926614582538605,-1.0186505317687988,0.3803640305995941,0.5274044871330261,-0.2644628584384918,29.94105339050293,-11.184679985046387,39.80927276611328,0
146,1459965,-0.042040176689624786,0.04125241935253143,-1.0014264583587646,-0.3622788190841675,0.004680948797613382,-0.5844287276268005,28.73201560974121,-10.305120468139648,41.24991989135742,0
147,1470096,-0.02445082552731037,0.008922369219362736,-1.0188140869140625,-0.1726830154657364,-0.49623903632164,0.044544968754053116,30.644453048706055,-8.970170974731445,40.38070297241211,0
148,1480153,0.07838110625743866,0.025989573448896408,-0.991192102432251,0.28292930126190186,0.07565723359584808,0.03264227509498596,29.890195846557617,-10.212839126586914,38.61865997314453,0
149,1489816,-0.0455264113843441,0.10639697313308716,-1.0049484968185425,-0.6351931095123291,0.08243857324123383,0.34308651089668274,30.511503219604492,-8.570764541625977,41.43045425415039,0
150,1500227,-0.004574615508317947,-0.017135178670287132,-0.9629486203193665,-0.2313009798526764,0.2809067666530609,0.2633291780948639,30.530681610107422,-10.376814842224121,38.99867248535156,0
151,1510031,0.014276290312409401,0.00831444188952446,-1.0088077783584595,0.3858320415019989,-0.24874477088451385,0.3461991548538208,31.720346450805664,-10.629952430725098,41.38810729980469,0
152,1520095,0.04953419789671898,-0.04897533357143402,-1.0318187475204468,-0.06325773149728775,0.5042011141777039,0.6592840552330017,30.18379783630371,-9.052290916442871,38.677146911621094,0
153,1530034,0.04705233871936798,-0.0071171121671795845,-0.9876413345336914,0.21499910950660706,0.6471142172813416,0.38735613226890564,29.371946334838867,-9.137551307678223,39.922645568847656,0
154,1540142,-0.016854751855134964,0.10123170912265778,-1.0370986461639404,0.5646206736564636,-0.0007091297302395105,0.04964737966656685,31.340892791748047,-9.123340606689453,41.14028549194336,0
155,1549820,-0.04216193035244942,0.0598621591925621,-1.0043474435806274,-0.6330559849739075,1.0824570655822754,0.05987972393631935,30.021869659423828,-10.982812881469727,39.38886642456055,0
156,1560212,-0.028786826878786087,-0.01953968033194542,-1.0204288959503174,0.036509811878204346,0.339893639087677,0.2859107255935669,30.224332809448242,-10.421272277832031,39.43623733520508,0
157,1569797,-0.00698587391525507,-0.03493519499897957,-0.9999322891235352,0.09604454785585403,0.7697990536689758,0.3024452328681946,32.04499053955078,-9.946905136108398,39.6164436340332,0
158,1579760,0.0295218825340271,-0.11597840487957001,-0.9857493042945862,0.15971088409423828,0.20957230031490326,-0.010554841719567776,29.57681655883789,-11.134981155395508,39.863258361816406,0
159,1590199,-0.002158399438485503,-0.022083744406700134,-1.0351622104644775,-0.7292590141296387,0.3610927164554596,0.688379168510437,30.349214553833008,-9.72983455657959,39.46808624267578,0
160,1600093,0.019932685419917107,-0.016578681766986847,-0.9723665118217468,0.007473255507647991,0.5936239957809448,0.6097679138183594,29.006580352783203,-11.12008285522461,40.14423370361328,0
161,1609891,0.11905470490455627,-0.024564659222960472,-1.0376768112182617,-0.6039007902145386,-0.480675607919693,0.034789200872182846,30.207958221435547,-9.757946014404297,40.467647552490234,0
162,1619987,-0.011853141710162163,0.007522913161665201,-1.0302976369857788,0.5225911736488342,-0.40142112970352173,-0.44532081484794617,29.205602645874023,-9.570085525512695,39.88597106933594,0
163,1630181,-0.02434883639216423,-0.05193829536437988,-1.004233479499817,-0.12297991663217545,-0.10867974907159805,-0.5477703213691711,28.003246307373047,-9.931794166564941,40.59748458862305,0
164,1639890,-0.018799271434545517,0.047907888889312744,-1.0303833484649658,-0.03640647605061531,-0.6057619452476501,-0.09584134817123413,30.26053810119629,-9.551179885864258,39.64799880981445,0
165,1650163,0.10274025797843933,0.07101595401763916,-1.0091114044189453,0.8093993663787842,1.0135570764541626,-0.9702142477035522,29.983890533447266,-10.012235641479492,40.80934524536133,0
166,1659827,0.027954353019595146,-0.09017208218574524,-0.9880964159965515,0.6222447752952576,-0.008447241969406605,0.42109107971191406,28.804771423339844,-9.401999473571777,40.20700454711914,0
167,1670000,0.012201346457004547,0.08088269084692001,-1.0029693841934204,-1.1269221305847168,0.17454944550991058,-1.2508846521377563,29.940902709960938,-10.767024993896484,38.55998992919922,0
168,1679907,-0.022003617137670517,0.0212264321744442,-0.9839401841163635,-0.763620138168335,0.03108915127813816,0.39703166484832764,30.177555084228516,-8.580610275268555,39.04521560668945,0
169,1689913,0.0315534770488739,-0.05224556848406792,-1.0079513788223267,-0.062013160437345505,0.7278452515602112,-0.5062047243118286,30.758827209472656,-9.014974594116211,40.635009765625,0
170,1700149,-0.0019962722435593605,0.03618349879980087,-0.9982235431671143,-1.0138120651245117,0.2047564685344696,-0.157232403755188,29.498411178588867,-10.470450401306152,39.93466567993164,0
171,1709911,-0.007359628565609455,-0.0027678622864186764,-1.001769781112671,0.15819288790225983,-0.24668298661708832,-0.37650641798973083,29.316728591918945,-9.510717391967773,39.79771041870117,0
172,1720065,0.05449140444397926,-0.05439785122871399,-1.0140169858932495,-0.7502202987670898,0.6235301494598389,-0.5817172527313232,30.308990478515625,-9.53879165649414,40.12553405761719,0
173,1730108,0.02780374139547348,0.08081433176994324,-0.9893127083778381,-0.03713056445121765,-0.0005763761000707746,-0.3663410246372223,29.946714401245117,-11.071113586425781,39.713775634765625,0
174,1739890,0.03824981674551964,-0.03125157952308655,-0.972568929195404,0.4273641109466553,-0.024137403815984726,0.916604220867157,30.57408905029297,-8.763714790344238,38.43766784667969,0
175,1750223,0.053031545132398605,0.03408060967922211,-1.003273844718933,-0.3925347924232483,-0.33338141441345215,0.04373037815093994,28.101274490356445,-11.206564903259277,41.24534606933594,0
176,1760002,-0.011682562530040741,0.10282629728317261,-1.0065932273864746,-0.6017429232597351,-0.6923226118087769,-0.18239472806453705,30.236873626708984,-10.086862564086914,40.136695861816406,0
177,1770000,0.028608007356524467,-0.030109211802482605,-0.9863597750663757,-1.4030778408050537,0.003603410441428423,0.0993095263838768,29.81426239013672,-9.810205459594727,40.411651611328125,0
178,1779966,-0.010267585515975952,-0.025544986128807068,-1.027056336402893,0.1342105269432068,-0.32802915573120117,-0.12000803649425507,30.212890625,-10.140402793884277,38.94986343383789,0
179,1789869,0.005847852677106857,-0.011420116759836674,-1.0074313879013062,0.08769264817237854,0.7269827127456665,0.8236657977104187,29.00868797302246,-9.260738372802734,39.101806640625,0
180,1799971,-0.025756442919373512,-0.022856706753373146,-1.001027226448059,-0.47327592968940735,0.7748899459838867,-0.41295313835144043,30.53145980834961,-10.912768363952637,39.76539993286133,0
181,1809796,0.0021144316997379065,0.02748914621770382,-0.9734368920326233,-0.4906693398952484,0.3699856698513031,-0.6237046122550964,29.865467071533203,-11.139025688171387,40.07240295410156,0
182,1820030,-0.0021049221977591515,-0.02452126331627369,-1.0337615013122559,-0.44449275732040405,0.40771210193634033,0.1516282707452774,29.657316207885742,-9.565689086914062,39.3372688293457,0
183,1829616,-0.025970792397856712,0.06545885652303696,-1.0025207996368408,0.17153556644916534,0.183437317609787,-0.4511297047138214,29.946352005004883,-10.130293846130371,40.13552474975586,0
184,1839691,-0.0970589742064476,0.011606773361563683,-0.9739265441894531,-0.3356761038303375,0.22433079779148102,-0.04499093070626259,30.860496520996094,-10.093676567077637,40.206607818603516,0
185,1850090,0.026921061798930168,-0.0056809247471392155,-1.0019599199295044,0.21419957280158997,-0.07267053425312042,0.16938516497612,29.69072914123535,-11.24576473236084,40.556095123291016,0
186,1859979,-0.07894465327262878,0.01722053252160549,-1.0078932046890259,0.48272445797920227,-0.06324233114719391,-0.660905122756958,29.943422317504883,-10.802199363708496,41.278926849365234,0
187,1869963,0.043687473982572556,-0.04214862361550331,-0.9695669412612915,0.46653977036476135,0.6647463440895081,-0.06644858419895172,30.114356994628906,-8.716461181640625,39.28510284423828,0
188,1879958,0.009666310623288155,0.02166620083153248,-0.9635765552520752,0.21494393050670624,0.0753604844212532,-0.727336585521698,30.992246627807617,-11.528897285461426,39.958133697509766,0
189,1890002,-0.0014075393555685878,0.01617441698908806,-0.9899245500564575,-0.7937549948692322,0.12305847555398941,0.9121236801147461,31.10774040222168,-10.696782112121582,40.40267562866211,0
190,1899957,-0.05528615415096283,0.10274346172809601,-1.022269606590271,-0.32540595531463623,-0.33701589703559875,-0.13939745724201202,30.407583236694336,-10.170282363891602,38.03800582885742,0
191,1909711,0.03537331521511078,0.007381019648164511,-0.9854886531829834,0.5428938865661621,0.23660844564437866,0.2724092900753021,28.8695011138916,-9.473286628723145,41.98323059082031,0
192,1920096,-0.1331261247396469,-0.03935794159770012,-0.9828066825866699,0.04162222519516945,0.014892355538904667,0.5275692939758301,29.41002655029297,-10.174072265625,40.24159622192383,0
193,1929799,-0.03337467834353447,-0.07556601613759995,-0.9966183304786682,-0.09948112815618515,-0.3489096462726593,-0.9449570178985596,29.94348907470703,-10.193550109863281,40.98566818237305,0
194,1939922,-0.1477888822555542,-0.012695602141320705,-0.9997355341911316,-0.24570822715759277,0.2688421905040741,0.45505741238594055,30.795927047729492,-9.9869966506958,40.08682632446289,0
195,1950273,-0.06964205950498581,-0.00959257036447525,-0.9952541589736938,1.1817762851715088,0.15379883348941803,0.7167109251022339,29.079591751098633,-9.415752410888672,40.055076599121094,0
196,1960064,0.0009180993074551225,0.01016263011842966,-0.986303985118866,-0.4967632591724396,0.3312723934650421,-0.5241608619689941,30.530670166015625,-10.761209487915039,39.96306610107422,0
197,1969984,0.04657459631562233,0.004031284712255001,-0.9826413989067078,-0.12418209761381149,-0.36976397037506104,-0.8804022073745728,28.634252548217773,-11.592004776000977,41.43571090698242,0
198,1979883,0.032504692673683167,-0.017951766029000282,-0.976136326789856,-1.0286586284637451,-0.6244010329246521,0.532245397567749,29.277143478393555,-11.38676929473877,40.3271484375,0
199,1989915,0.05014290660619736,-0.09922689944505692,-0.9636898636817932,-0.20423921942710876,-0.03493282571434975,-0.19043591618537903,29.737747192382812,-9.169471740722656,39.66000747680664,0
200,1999699,0.020777171477675438,-0.010644298046827316,-0.9912213087081909,-0.5168121457099915,-0.440836101770401,0.11852031946182251,30.384611129760742,-9.313633918762207,38.77006530761719,0
201,2010018,0.01599743776023388,-0.024812253192067146,-0.9876857995986938,-0.5076729655265808,0.9897335767745972,0.28294363617897034,30.36544418334961,-7.957332611083984,40.205448150634766,0
202,2020097,-0.01616760529577732,-0.09886503219604492,-0.9988680481910706,0.24477311968803406,0.14073790609836578,0.08936987817287445,28.23964500427246,-9.63426685333252,39.60953903198242,0
203,2029711,0.011887574568390846,-0.03930888697504997,-1.0111031532287598,-0.040934786200523376,0.9691773056983948,0.19187752902507782,29.789941787719727,-9.47413444519043,40.51217269897461,0
204,2039901,0.012475389055907726,-0.08399438112974167,-0.9966070055961609,0.3298093378543854,0.29964420199394226,0.10255887359380722,30.212955474853516,-8.208148002624512,38.078365325927734,0
205,2049770,0.03243013098835945,0.08888252824544907,-1.030977725982666,0.5776333808898926,-0.3834463059902191,-0.11539871245622635,31.73530387878418,-9.249734878540039,40.14887237548828,0
206,2059919,0.0700196847319603,0.04712776094675064,-1.0517719984054565,0.38822391629219055,-0.07213473320007324,0.039351727813482285,27.738676071166992,-10.329063415527344,39.83090591430664,0
207,2069840,0.05416809394955635,0.03869454562664032,-0.9994832277297974,0.63204425573349,-0.24029415845870972,0.00986214354634285,28.546493530273438,-9.888614654541016,41.60741424560547,0
208,2079943,-0.06411194056272507,-0.05638889595866203,-0.9709555506706238,-0.08177521079778671,-0.5711492300033569,0.6664602160453796,29.816511154174805,-10.666413307189941,39.827781677246094,0
209,2089782,-0.059808678925037384,-0.04780576005578041,-0.978731095790863,-0.6509802937507629,0.26629000902175903,0.46944862604141235,27.28584861755371,-8.54483413696289,38.44346618652344,0
210,2100177,-0.02849995717406273,0.022633949294686317,-0.9876219630241394,0.6858887672424316,-0.3539150655269623,-0.6036648154258728,29.699384689331055,-10.639363288879395,41.32331085205078,0
211,2110220,0.007160613778978586,-0.01084346417337656,-1.0423624515533447,1.0742799043655396,0.7762993574142456,0.6301280856132507,30.146440505981445,-11.813549041748047,41.249759674072266,0
212,2119526,-0.05898987501859665,-0.04137884080410004,-1.0164815187454224,-0.4175592064857483,0.22180971503257751,-0.5513182878494263,30.14131736755371,-9.893439292907715,39.34989547729492,0
213,2130068,0.0023667369969189167,-0.0294656902551651,-1.01481032371521,0.3979862928390503,-0.7243868112564087,-0.5215114951133728,28.799232482910156,-9.806124687194824,39.545196533203125,0
214,2140296,0.07250507920980453,-0.0019099632045254111,-0.999748945236206,-0.3990519642829895,-0.1600814014673233,-0.07102341204881668,30.361106872558594,-11.96291446685791,40.00954055786133,0
215,2149809,0.007876547984778881,0.04493742063641548,-0.9855575561523438,0.20180466771125793,0.3563838601112366,-0.021561775356531143,31.316265106201172,-10.251457214355469,40.13719940185547,0
216,2160100,0.04278697073459625,-0.011533179320394993,-0.9978878498077393,-0.45739495754241943,0.6157498359680176,0.30033114552497864,31.092309951782227,-10.986087799072266,39.90505599975586,0
217,2169835,-0.06193241849541664,0.045449838042259216,-1.0051484107971191,-0.24707409739494324,0.29214805364608765,0.04325610771775246,29.626291275024414,-10.195881843566895,39.73442459106445,0
218,2180078,0.04587240889668465,-0.041587747633457184,-0.9809985756874084,-0.08658747375011444,-0.1992369294166565,-0.19351917505264282,29.802928924560547,-9.316347122192383,39.4329833984375,0
219,2189913,0.053147777915000916,0.12019027024507523,-1.0073788166046143,-0.5069572329521179,0.5249700546264648,-0.4903707504272461,29.02377700805664,-9.179976463317871,39.34262466430664,0
220,2200018,-0.05022158846259117,-0.03920729085803032,-1.0004494190216064,0.3216942548751831,0.30051499605178833,-0.594774067401886,30.116891860961914,-9.391366004943848,39.87362289428711,0
221,2210238,0.08856659382581711,0.03323214128613472,-0.9985633492469788,-0.44602394104003906,-0.39168262481689453,0.7990333437919617,28.01939582824707,-8.933649063110352,39.32148361206055,0
222,2219913,0.03331335633993149,0.007699728012084961,-0.9792923331260681,-0.7894809246063232,-0.8430173397064209,0.28435423970222473,29.486045837402344,-10.500706672668457,41.56021499633789,0
223,2229734,-0.018647368997335434,0.01052799541503191,-1.0139589309692383,0.21165108680725098,0.2391304075717926,0.4044961631298065,32.680458068847656,-9.552268028259277,40.49508285522461,0
224,2239981,0.002522227121517062,-0.02549893595278263,-0.9869648814201355,-0.043992072343826294,0.049332454800605774,0.24647217988967896,31.143585205078125,-10.52536678314209,40.22416687011719,0
225,2250394,0.005563573911786079,-0.02726558782160282,-1.018094778060913,-0.10831709951162338,-0.7446765303611755,0.6069189310073853,28.467029571533203,-10.722245216369629,38.534515380859375,0
226,2260008,0.03007955476641655,0.01628267951309681,-0.9940387010574341,-0.5799424052238464,-0.8975199460983276,-0.0765647292137146,29.178823471069336,-10.36640739440918,41.81299591064453,0
227,2269740,0.05877343937754631,-0.008375249803066254,-0.9835312366485596,0.4886045753955841,-0.45795440673828125,0.12135889381170273,31.487051010131836,-8.730278015136719,41.741241455078125,0
228,2280102,-0.02758449874818325,0.033084578812122345,-1.040111780166626,-0.23083502054214478,0.2518801689147949,0.08621823042631149,27.71014976501465,-11.436230659484863,38.39889907836914,0
229,2290148,0.03305632993578911,-0.04431236535310745,-0.9999991059303284,0.04524759575724602,-0.26318463683128357,-0.07394049316644669,30.351720809936523,-8.562814712524414,39.94738006591797,0
230,2300098,-0.10194898396730423,0.03816564753651619,-1.0084774494171143,-0.22107261419296265,-0.42084717750549316,0.28230226039886475,30.425874710083008,-9.146514892578125,38.65705108642578,0
231,2309864,-0.04072331637144089,-0.050780460238456726,-1.0169672966003418,-0.17180714011192322,-0.3182257115840912,0.04723893105983734,30.44868278503418,-10.918742179870605,40.49053955078125,0
232,2319897,-0.025249967351555824,0.06750749051570892,-1.0066553354263306,0.39641186594963074,0.013294896110892296,-0.6741613745689392,31.100467681884766,-9.438179969787598,39.4557991027832,0
233,2329808,-0.01157117635011673,-0.03533709794282913,-0.9888266324996948,0.10094606876373291,-0.08893895894289017,0.17208823561668396,30.622133255004883,-10.73271369934082,40.50584030151367,0
234,2339848,-0.0307578407227993,0.03558496758341789,-1.0074315071105957,-1.6953715085983276,-0.058459773659706116,-0.7935320734977722,29.520994186401367,-10.225010871887207,41.70344543457031,0
235,2350147,-0.04602048918604851,-0.018939411267638206,-0.9925106167793274,-0.9123929738998413,-1.268076777458191,-0.5926673412322998,29.303281784057617,-8.728508949279785,40.145469665527344,0
236,2360061,0.0749979168176651,0.012039881199598312,-1.0173923969268799,-0.000321761064697057,0.5662907958030701,-0.3916749954223633,29.409761428833008,-9.369282722473145,41.49673843383789,0
237,2370241,-0.02235107496380806,0.006389107089489698,-1.0098892450332642,-0.06931932270526886,0.14096640050411224,-0.5021250247955322,30.614341735839844,-9.584850311279297,39.72335433959961,0
238,2380067,0.02808508835732937,0.02267712727189064,-1.0164270401000977,1.1261321306228638,-0.4516596794128418,-0.2958400845527649,29.92433738708496,-9.509215354919434,40.286006927490234,0
239,2390098,-0.046257078647613525,0.0406048558652401,-1.007674217224121,0.35379916429519653,-0.48352479934692383,0.17695993185043335,29.654726028442383,-9.062532424926758,41.611637115478516,0
240,2400139,0.032175373286008835,-0.001311968662776053,-1.0147713422775269,-0.32747891545295715,-0.05185406655073166,-0.3795633316040039,31.793298721313477,-7.916461944580078,39.970699310302734,0
241,2410039,0.04034525528550148,-0.05750676617026329,-1.0072466135025024,-0.5589025616645813,-0.2946814298629761,0.597399115562439,29.077898025512695,-9.251629829406738,41.25117492675781,0
242,2419854,0.08184616267681122,-0.0162239670753479,-1.00800359249115,-0.44655540585517883,0.30265119671821594,-0.7465788722038269,29.620880126953125,-9.346545219421387,40.88320541381836,0
243,2429919,0.04160631075501442,0.025557860732078552,-0.9711182117462158,0.19003675878047943,0.06052660942077637,0.30513808131217957,30.932897567749023,-8.058627128601074,40.178306579589844,0
244,2440013,0.08497655391693115,0.03685375303030014,-0.9716640710830688,0.7207913398742676,-0.3623964786529541,-0.16099168360233307,29.207096099853516,-8.864917755126953,40.25375747680664,0
245,2449937,-0.0355578176677227,0.09960705786943436,-1.0075736045837402,-0.36802732944488525,-0.701400876045227,0.48636284470558167,30.70014762878418,-9.785022735595703,39.942100524902344,0
246,2459642,-0.022787023335695267,-0.07176947593688965,-1.0144898891448975,-1.3373111486434937,-0.7811131477355957,-0.3409833014011383,29.989229202270508,-10.659855842590332,39.07168197631836,0
247,2470043,0.06173517927527428,-0.02251780964434147,-1.0013047456741333,-1.0200998783111572,-0.8193384408950806,-0.38736534118652344,31.060014724731445,-10.09364128112793,41.104637145996094,0
248,2480270,0.0009616478928364813,-0.009912676177918911,-1.019297480583191,0.3926280438899994,-0.5163902640342712,-0.7714574933052063,27.00023651123047,-10.377885818481445,38.68769073486328,0
249,2490390,0.12145591527223587,0.08612353354692459,-0.9838727712631226,0.4332752525806427,0.000793503480963409,-0.2347131073474884,28.739912033081055,-9.665338516235352,41.423561096191406,0
250,2499943,-0.019430553540587425,-0.006501814816147089,-1.01128351688385,-0.6138784289360046,0.07841271162033081,0.8928200602531433,29.755022048950195,-11.307815551757812,39.65622329711914,0
251,2510153,-0.015186993405222893,0.003474532626569271,-0.991631269454956,-0.050497591495513916,0.21233294904232025,1.0657511949539185,29.844486236572266,-10.210128784179688,41.324989318847656,0
252,2519731,0.03284933790564537,0.03632906824350357,-0.9756149053573608,1.3819174766540527,0.4794824719429016,0.40907466411590576,29.08465003967285,-11.813542366027832,40.833587646484375,0
253,2529900,0.015045044012367725,-0.05923018231987953,-1.0135287046432495,-0.1643195003271103,0.5433206558227539,0.3309827446937561,29.58077621459961,-9.404271125793457,40.311275482177734,0
254,2540046,-0.002465082798153162,-0.04533780366182327,-1.0232393741607666,-0.37546306848526,-0.026844220235943794,0.554720938205719,30.265623092651367,-10.797877311706543,39.95991516113281,0
255,2550017,-0.04881482571363449,0.015065530315041542,-1.0031638145446777,0.275556355714798,0.27513203024864197,0.45138323307037354,28.674409866333008,-10.483640670776367,40.707298278808594,0
256,2559837,-0.07655641436576843,0.035010386258363724,-1.0061882734298706,-0.4369354248046875,0.39799124002456665,-0.11145567893981934,31.559070587158203,-10.70202922821045,39.27882385253906,0
257,2570017,0.0032254240941256285,0.024981681257486343,-0.9844823479652405,-0.04263583570718765,0.4212695360183716,-1.274122953414917,29.455045700073242,-10.405851364135742,41.1126823425293,0
258,2580050,0.013889530673623085,-0.02790604904294014,-0.9977601766586304,0.2456246018409729,0.17557361721992493,0.06253081560134888,30.17194938659668,-8.107109069824219,40.71099090576172,0
259,2589951,0.052443813532590866,0.08367906510829926,-0.9883886575698853,-0.13143758475780487,0.47684839367866516,-0.2397473305463791,29.531421661376953,-9.03646183013916,39.54874038696289,0
260,2599914,-0.030562028288841248,-0.03694760054349899,-0.9774050116539001,0.6232727766036987,0.4157121479511261,-0.644545316696167,28.237733840942383,-11.353321075439453,39.46499252319336,0
261,2610003,-0.08443833142518997,0.05473167821764946,-1.0059373378753662,-0.9164612293243408,-0.6307762265205383,0.5795732140541077,28.746471405029297,-9.165099143981934,41.17570877075195,0
262,2619954,0.024117877706885338,0.04565520957112312,-0.9924592971801758,-0.8994412422180176,0.43121370673179626,0.0976690948009491,30.65056037902832,-9.89739990234375,41.4168701171875,0
263,2629927,0.0019165942212566733,-0.029735734686255455,-0.9823623895645142,-0.6120905876159668,0.33863070607185364,0.5490380525588989,30.19179344177246,-9.195124626159668,39.935848236083984,0
264,2639967,-0.017742564901709557,0.010478300042450428,-0.9825255870819092,0.7441152334213257,0.18373559415340424,-0.2942771911621094,28.652484893798828,-9.152839660644531,40.81089782714844,0
265,2650114,0.02936577796936035,-0.04949954152107239,-0.9960028529167175,-0.08273095637559891,0.24485179781913757,-0.26417842507362366,29.612077713012695,-10.523484230041504,39.502323150634766,0
266,2660111,0.03642354533076286,0.07554417103528976,-1.007840633392334,0.24350300431251526,-0.4544868469238281,0.12341498583555222,29.769521713256836,-9.681398391723633,40.52189636230469,0
267,2670049,0.014833865687251091,0.027982698753476143,-0.982279896736145,-0.6656823754310608,0.26799190044403076,-0.3870032727718353,28.880931854248047,-9.878264427185059,39.967891693115234,0
268,2679970,-0.021315690129995346,-0.006251681596040726,-1.0405712127685547,0.08648654818534851,0.05242360010743141,-0.09099645167589188,28.76667022705078,-9.152283668518066,39.567527770996094,0
269,2690219,-0.07432476431131363,-0.08493668586015701,-1.0369817018508911,0.06936313211917877,-0.48853185772895813,0.16991350054740906,29.338106155395508,-9.414750099182129,40.26372528076172,0
270,2699942,0.0995396301150322,0.026860829442739487,-0.981118381023407,0.9413670301437378,0.6260603070259094,1.021154522895813,28.98435401916504,-10.512797355651855,39.93955612182617,0
271,2710196,0.08376526087522507,0.06465078890323639,-1.0014870166778564,0.5810937881469727,-0.15361399948596954,0.32298514246940613,30.70821189880371,-11.39684009552002,40.80430603027344,0
272,2719890,-0.022105682641267776,0.01170792430639267,-1.023039698600769,0.8492345809936523,0.4416666328907013,0.5316486358642578,29.973440170288086,-9.859517097473145,38.00114059448242,0
273,2729878,0.12378737330436707,0.017940087243914604,-0.9964224696159363,-0.37564340233802795,-0.10888037830591202,-0.6188652515411377,31.6270809173584,-11.666406631469727,41.11665725708008,0
274,2740023,0.022249775007367134,0.007102758623659611,-1.0319111347198486,-0.10041045397520065,0.5340083837509155,1.0636528730392456,29.9296817779541,-9.89123821258545,40.165096282958984,0
275,2749802,0.04241468012332916,0.040154773741960526,-1.0340642929077148,-0.45614558458328247,0.060570381581783295,-0.7539815306663513,28.848377227783203,-9.242591857910156,40.4308967590332,0
276,2759881,-0.11482002586126328,-0.022631289437413216,-0.9982267022132874,0.4532317519187927,-0.4300406873226166,0.2435898333787918,29.898635864257812,-9.973515510559082,39.80492401123047,0
277,2770072,-0.10174807906150818,0.06075747311115265,-1.0119158029556274,-0.03979453817009926,0.15937407314777374,-0.9092698097229004,31.38995361328125,-9.886215209960938,38.50840759277344,0
278,2779902,0.040316201746463776,0.026602057740092278,-1.0010981559753418,-0.8174439668655396,-0.09168575704097748,-0.16842781007289886,29.955781936645508,-9.682634353637695,40.46376037597656,0
279,2790025,-0.033605288714170456,0.027843477204442024,-1.0189746618270874,-0.7133786082267761,0.34274351596832275,0.6559671759605408,27.373106002807617,-9.14975643157959,38.81835174560547,0
280,2800177,0.12038839608430862,-0.04698706045746803,-1.0212116241455078,0.22274534404277802,0.4867188632488251,0.0659363642334938,29.134204864501953,-9.21699047088623,40.92244338989258,0
281,2809994,0.14345839619636536,0.013257813639938831,-0.9774476289749146,0.07544514536857605,-1.0348132848739624,1.0452024936676025,28.811363220214844,-10.970190048217773,40.86891174316406,0
282,2820093,0.0423734188079834,-0.013523966073989868,-1.0127307176589966,0.18388012051582336,-0.04215746000409126,0.39422139525413513,31.026901245117188,-8.710321426391602,39.57173538208008,0
283,2830144,-0.04996798560023308,-0.08021071553230286,-1.019646406173706,0.07326614856719971,0.09902970492839813,0.1723185032606125,29.540218353271484,-9.605600357055664,39.52793884277344,0
284,2840155,0.07549697905778885,0.0721793845295906,-0.9878200888633728,-0.4065241515636444,-0.22062908113002777,0.22715699672698975,30.484067916870117,-9.387656211853027,38.2152099609375,0
285,2850018,-0.018049445003271103,0.02306106500327587,-1.0014287233352661,-0.15370604395866394,-0.16122934222221375,-0.3792448937892914,29.45773696899414,-8.215188980102539,40.19762420654297,0
286,2859886,-0.03062647581100464,-0.09521851688623428,-0.9898767471313477,-0.579678475856781,-0.3736947178840637,-0.11660172790288925,28.87007713317871,-10.068521499633789,40.674015045166016,0
287,2869833,0.09163843840360641,-0.029011577367782593,-1.053680181503296,-0.5756123661994934,-0.27072688937187195,-0.5590469241142273,30.322647094726562,-9.480742454528809,39.61997985839844,0
288,2880174,-0.0020030413288623095,0.02022046409547329,-1.0230118036270142,0.3795239329338074,-0.34302133321762085,-0.6358566880226135,29.17957878112793,-9.980291366577148,39.025047302246094,0
289,2889951,-0.003154042176902294,0.012152177281677723,-0.9843082427978516,-0.017414182424545288,-0.3877648711204529,1.0402237176895142,30.126684188842773,-9.318774223327637,39.63628005981445,0
290,2900170,0.023103298619389534,0.0025801928713917732,-0.9640408158302307,0.33127832412719727,-0.06562161445617676,0.2590510845184326,31.00192642211914,-9.196314811706543,39.04191589355469,0
291,2910073,0.0014443100662901998,-0.03951781988143921,-1.012506127357483,-0.07876736670732498,0.8306888937950134,-0.024207796901464462,29.588247299194336,-9.209980964660645,41.42775344848633,0
292,2920027,-0.05154995620250702,-0.028453316539525986,-0.9907898902893066,0.09425725042819977,-0.7074156403541565,-0.31626012921333313,30.03611183166504,-10.91999340057373,40.3895149230957,0
293,2929998,0.009918596595525742,0.021009504795074463,-0.9742863178253174,-0.6506890058517456,-0.4290037453174591,-0.5457311272621155,29.515796661376953,-8.226534843444824,39.32676696777344,0
294,2940062,-0.020049775019288063,-0.024038325995206833,-0.9801954030990601,0.29811230301856995,-0.0327814519405365,0.5578569769859314,30.407730102539062,-9.9931058883667,37.6778450012207,0
295,2949879,0.037719033658504486,0.04234699904918671,-1.0054556131362915,0.12478987127542496,-0.04536282271146774,0.4279102683067322,28.552669525146484,-9.627562522888184,40.17236328125,0
296,2959856,-0.0550973042845726,0.004558800254017115,-1.021507740020752,-0.6589809060096741,0.5110713243484497,-1.329513669013977,30.392925262451172,-9.333662033081055,40.135616302490234,0
297,2969739,0.05726323649287224,0.027580231428146362,-1.0244367122650146,0.10406278818845749,0.036373432725667953,0.7899261713027954,31.04487419128418,-9.527176856994629,39.7712516784668,0
298,2980373,-0.027509529143571854,0.06155380606651306,-1.0269341468811035,0.4914543032646179,0.25229278206825256,0.5984713435173035,28.939252853393555,-10.33592700958252,39.89548110961914,0
299,2990061,0.05388457328081131,0.058309346437454224,-0.9999598264694214,-0.5401226282119751,0.3254954218864441,-0.6164562702178955,29.68807601928711,-8.30842113494873,39.581241607666016,0
300,3000067,-0.03694308176636696,0.011375735513865948,-0.9810249209403992,-0.24126361310482025,-0.044868580996990204,-0.3275269865989685,30.170724868774414,-8.64063835144043,40.159358978271484,0
301,3010112,-0.06946563720703125,-0.038864150643348694,-1.0070972442626953,0.21291983127593994,-0.577012836933136,0.2507261037826538,31.62575912475586,-9.297361373901367,39.69023895263672,0
302,3020076,0.05394192412495613,-0.02800808660686016,-1.0154924392700195,-0.22830647230148315,0.1311572790145874,-0.7885357737541199,29.567157745361328,-10.953258514404297,41.131431579589844,0
303,3030000,0.039261139929294586,-0.059517331421375275,-1.0099823474884033,-0.23133477568626404,-0.24365539848804474,-0.09664443135261536,31.031206130981445,-10.918381690979004,40.756988525390625,0
304,3039798,0.02957318164408207,0.08388728648424149,-1.0136778354644775,0.14166240394115448,0.08053592592477798,0.522712230682373,29.724924087524414,-10.298299789428711,40.22209930419922,0
305,3050000,-0.028606651350855827,0.13431060314178467,-1.0199486017227173,0.3020963966846466,-0.3700428903102875,-0.22145138680934906,30.21248435974121,-10.545065879821777,39.676883697509766,0
306,3060002,-0.004700252786278725,-0.04971842095255852,-1.0216859579086304,-0.3095734715461731,-0.017659947276115417,0.37304946780204773,30.183425903320312,-8.413288116455078,41.12757110595703,0
307,3069980,-0.014851194806396961,0.11035346984863281,-1.040255069732666,0.10253812372684479,-0.11989457160234451,0.24213621020317078,30.722599029541016,-10.671939849853516,40.183048248291016,0
308,3079887,-0.07023148238658905,-0.03700745105743408,-1.0152604579925537,0.5570012331008911,1.0523051023483276,0.1608356088399887,30.58586311340332,-9.099763870239258,42.018516540527344,0
309,3089987,0.0412898063659668,0.004227021709084511,-0.9864048361778259,0.3618391454219818,-0.37256187200546265,0.6160439848899841,30.403512954711914,-11.308135032653809,38.48120880126953,0
310,3100019,-0.008448552340269089,0.07770907133817673,-1.001817226409912,-1.134600281715393,0.03001663088798523,0.9698834419250488,28.77405548095703,-9.218375205993652,41.771827697753906,0
311,3109906,0.03301332890987396,0.0027104925829917192,-0.951030969619751,0.02025473117828369,0.051710013300180435,-0.08894205093383789,31.152929306030273,-9.78657341003418,41.18415069580078,0
312,3120074,0.020533397793769836,-0.007525399327278137,-1.0058796405792236,0.2876099646091461,0.015184963122010231,0.2854335308074951,29.547435760498047,-12.344013214111328,39.808589935302734,0
313,3130175,-0.08633182942867279,-0.011279361322522163,-0.990529477596283,-0.19361814856529236,0.4967959225177765,-0.9134185910224915,30.397613525390625,-11.048286437988281,39.24769973754883,0
314,3139989,0.0651748850941658,-0.00695736613124609,-1.0406591892242432,-0.16863082349300385,0.010731545276939869,0.5230932831764221,29.034687042236328,-8.223410606384277,39.663597106933594,0
315,3150041,-0.043721601366996765,-0.08073819428682327,-1.0151699781417847,-0.4401409924030304,0.24965018033981323,0.7136166095733643,32.22606658935547,-11.591519355773926,40.57094192504883,0
316,3160101,0.03372564911842346,0.016549505293369293,-1.0179039239883423,0.010132452473044395,0.42597058415412903,-0.566241979598999,29.85846710205078,-9.829201698303223,40.35125732421875,0
317,3169940,0.040011417120695114,0.07451246678829193,-1.0221588611602783,-0.8066981434822083,0.533562421798706,-0.1543685495853424,32.31138229370117,-8.19783878326416,40.77037811279297,0
318,3179834,-0.03997059538960457,-0.023111188784241676,-1.0096733570098877,-0.24223433434963226,0.17288759350776672,0.29871127009391785,30.661165237426758,-10.798375129699707,40.132354736328125,0
319,3189841,-0.04808647558093071,0.024415533989667892,-0.9727196097373962,-0.4218992292881012,-0.3304526209831238,-0.3249051570892334,32.39309310913086,-10.114455223083496,40.58858871459961,0
320,3199942,-0.025154531002044678,0.020350486040115356,-1.009993314743042,-0.22409364581108093,-0.18014134466648102,-0.14365530014038086,30.99294090270996,-10.004032135009766,39.77729415893555,0
321,3209788,0.028716789558529854,0.010906273499131203,-1.003653645515442,1.4014390707015991,0.09829003363847733,0.1092338040471077,30.950374603271484,-10.247145652770996,42.1690559387207,0
322,3219829,0.016923239454627037,0.07674845308065414,-0.994530439376831,0.34185096621513367,-0.29063332080841064,-0.6916278600692749,28.604694366455078,-11.074749946594238,40.513729095458984,0
323,3229785,0.0507081113755703,-0.12524373829364777,-1.0373363494873047,-0.3452249765396118,0.7413782477378845,-0.11808035522699356,32.179595947265625,-9.85241413116455,41.33889389038086,0
324,3240229,-0.026134837418794632,0.06589492410421371,-0.9759630560874939,-0.009061357006430626,-0.43401822447776794,0.6015048623085022,30.32478141784668,-9.211538314819336,38.16407775878906,0
325,3249843,-0.015404986217617989,0.017421385273337364,-0.9841422438621521,-0.5454952120780945,0.19158177077770233,0.7519167065620422,30.700185775756836,-10.868453979492188,39.72532272338867,0
326,3260085,0.010690756142139435,0.013172988779842854,-1.0362975597381592,0.6478520035743713,-0.49251773953437805,-0.15898557007312775,29.59937858581543,-10.27371883392334,39.815555572509766,0
327,3270102,0.10791756957769394,0.018374662846326828,-1.0185357332229614,0.3686750829219818,0.13652409613132477,-0.18944218754768372,28.28529930114746,-8.646753311157227,38.78821563720703,0
328,3280055,-0.03954343870282173,0.039372362196445465,-0.9911205768585205,0.601799488067627,0.18071432411670685,0.3122875392436981,29.218442916870117,-9.76308536529541,38.80619430541992,0
329,3289908,0.03531212359666824,-0.00905417837202549,-1.0072453022003174,0.12515658140182495,-0.9211849570274353,-0.2338385432958603,30.48072624206543,-9.577597618103027,38.62612533569336,0
330,3300140,-0.05155538022518158,-0.007918475195765495,-0.990047812461853,0.22023434937000275,0.14470259845256805,0.1903117448091507,29.170284271240234,-9.684863090515137,38.19935607910156,0
331,3309964,-0.040345948189496994,-0.04014887660741806,-0.9943065047264099,0.2838389575481415,1.254320740699768,-1.224458932876587,30.104724884033203,-8.760645866394043,42.601680755615234,0
332,3320247,-0.08982715755701065,-0.04139508679509163,-1.0025535821914673,-0.23073968291282654,-0.7608481049537659,-0.6101135611534119,30.7066650390625,-9.167141914367676,40.43407440185547,0
333,3329993,0.052975695580244064,0.009565272368490696,-1.0136620998382568,-0.5985031127929688,0.09559351950883865,-0.5871966481208801,30.25913429260254,-11.35168170928955,41.726715087890625,0
334,3339930,0.04471389204263687,0.02106393128633499,-0.9984523057937622,-0.31342869997024536,-0.22215615212917328,-0.5094476342201233,30.35999870300293,-9.281194686889648,40.39405822753906,0
335,3349926,0.009452929720282555,0.0383782684803009,-1.0230647325515747,-0.49588629603385925,0.49502408504486084,-0.1909465789794922,29.343332290649414,-10.300384521484375,40.448707580566406,0
336,3360374,0.03833198547363281,0.019230583682656288,-0.9952754974365234,0.4135102927684784,-0.4684038758277893,0.05302101746201515,30.001258850097656,-10.026713371276855,38.34870910644531,0
337,3369977,0.08092419803142548,-0.05322908237576485,-0.9994572401046753,-0.3375287353992462,-0.4661277234554291,-0.02408108487725258,32.19929122924805,-9.985780715942383,38.97449493408203,0
338,3379993,0.02334139682352543,-0.009320610202848911,-1.0137245655059814,0.444297730922699,1.13739812374115,0.25899410247802734,30.634275436401367,-9.286041259765625,38.011104583740234,0
339,3390043,0.013939793221652508,0.044979214668273926,-0.9727404117584229,0.10162559896707535,-0.15589022636413574,-0.757011353969574,29.374130249023438,-10.554819107055664,40.74191665649414,0
340,3400197,-0.054755158722400665,-0.0879950225353241,-0.9774695634841919,-0.5139122009277344,1.2849929332733154,-0.43467897176742554,28.33412742614746,-11.137269020080566,40.3645133972168,0
341,3409771,0.066151462495327,0.00644276849925518,-0.9722965955734253,-0.07966561615467072,0.09810013324022293,0.30802157521247864,30.22800064086914,-9.656375885009766,39.33601760864258,0
342,3419950,-0.009426038712263107,-0.052134089171886444,-0.9833676815032959,0.441999226808548,-0.4925744831562042,0.06077089160680771,30.15068817138672,-11.391304969787598,40.54383087158203,0
343,3429905,-0.020072218030691147,-0.06938732415437698,-1.0066391229629517,0.45231086015701294,0.39376404881477356,-0.007265408989042044,31.20449447631836,-9.720205307006836,39.777915954589844,0
344,3439879,-0.06695643812417984,0.012641039676964283,-0.9609169363975525,0.17566631734371185,0.2017308920621872,0.2669067084789276,28.41547393798828,-10.80438232421875,40.49252700805664,0
345,3450095,-0.05819302424788475,0.04513831436634064,-0.9876770973205566,-0.12503036856651306,-0.4281294345855713,0.66545569896698,29.629812240600586,-9.62608814239502,41.22651672363281,0
346,3459981,0.024989839643239975,0.0035941030364483595,-1.0124690532684326,-0.35583338141441345,-0.5488225221633911,0.7627772688865662,30.94672393798828,-9.269906997680664,37.73344802856445,0
347,3469977,-0.0357324481010437,-0.005087189842015505,-0.9939430356025696,-0.38391855359077454,0.792073130607605,0.10131816565990448,31.14572525024414,-7.125239849090576,39.15024185180664,0
348,3479937,0.01667848601937294,-0.030856769531965256,-0.9878493547439575,-0.14319707453250885,0.1283440887928009,-0.07036109268665314,30.063650131225586,-9.770842552185059,39.53740692138672,0
349,3490296,-0.031573254615068436,0.04222537577152252,-0.9838557243347168,0.3307601511478424,-0.2900959551334381,0.843349277973175,32.029205322265625,-11.996411323547363,40.58945083618164,0
350,3500044,-0.059400103986263275,0.034515298902988434,-0.9586079120635986,0.16386963427066803,-0.04598963260650635,0.13128001987934113,30.838367462158203,-8.619589805603027,41.88690948486328,0
351,3510314,0.023197881877422333,-0.011020434089004993,-0.9764760732650757,0.37821120023727417,0.39562538266181946,-0.7460286021232605,29.959548950195312,-9.36641788482666,39.89539337158203,0
352,3520089,-0.04160265624523163,0.052188582718372345,-0.9731855392456055,0.5440841317176819,-0.4748046100139618,-0.7917860150337219,31.533754348754883,-9.207697868347168,39.40629196166992,0
353,3529850,0.025591017678380013,-0.043209198862314224,-0.9825544953346252,0.2837425172328949,0.10357274860143661,-1.0565001964569092,30.9823055267334,-9.262085914611816,39.82033157348633,0
354,3539782,0.024661118164658546,0.01031531672924757,-0.9777960777282715,-0.5743111371994019,0.6144283413887024,0.17575444281101227,29.36011505126953,-12.093719482421875,39.216270446777344,0
355,3550190,0.09227797389030457,-0.07922583818435669,-1.0170875787734985,-0.6390202641487122,-0.022326335310935974,-0.553043782711029,30.098556518554688,-8.24055004119873,39.80826187133789,0
356,3560123,0.020604964345693588,0.0038935975171625614,-0.9911381602287292,0.3016367256641388,-1.1107208728790283,0.5157867074012756,29.913066864013672,-9.506070137023926,37.72530746459961,0
357,3570198,0.08859983086585999,0.051322776824235916,-1.008236050605774,0.6571864485740662,0.9522515535354614,-0.2645461857318878,31.88661766052246,-10.248907089233398,42.06220245361328,0
358,3579968,0.04364325478672981,0.09100420773029327,-1.015166997909546,0.7004597783088684,-0.8167859315872192,0.4071156978607178,30.3107852935791,-10.024303436279297,38.7369499206543,0
359,3589917,0.07546379417181015,-0.06006574630737305,-0.996539831161499,-0.1235172301530838,0.5808262825012207,0.08092247694730759,28.605833053588867,-8.954209327697754,40.18954849243164,0
360,3599729,-0.014192536473274231,-0.04473843425512314,-0.9959257245063782,0.5102702379226685,0.9765340089797974,0.6486339569091797,30.196670532226562,-10.335456848144531,40.35845947265625,0
361,3609884,-0.016255399212241173,-0.0551333874464035,-0.965274453163147,0.26489710807800293,0.05411460995674133,0.2286858707666397,30.247854232788086,-12.098365783691406,41.14516830444336,0
362,3620227,0.01097912061959505,-0.04671799764037132,-0.9967343211174011,0.038728341460227966,0.7338337898254395,-0.427999347448349,28.67466926574707,-10.403005599975586,39.75438690185547,0
363,3629818,-0.06482337415218353,-0.016421595588326454,-0.9989158511161804,-0.8138702511787415,0.4927233159542084,-0.1098855584859848,28.356285095214844,-8.925419807434082,40.12751007080078,0
364,3639983,0.02099885232746601,-0.05399186909198761,-0.9808554649353027,-0.028198176994919777,0.14593073725700378,-0.21399502456188202,29.8610782623291,-10.621312141418457,39.886898040771484,0
365,3650033,-0.047344714403152466,-0.09101034700870514,-1.0039225816726685,-0.17776255309581757,0.10006611794233322,0.02358194813132286,30.413034439086914,-10.658452987670898,38.49147033691406,0
366,3659793,0.011752206832170486,0.05764119699597359,-1.0132007598876953,0.7242416739463806,-0.4469294548034668,-0.17153321206569672,30.491426467895508,-9.626676559448242,40.5303840637207,0
367,3670189,0.04606204852461815,0.07636377215385437,-1.0293735265731812,-0.06624294817447662,0.14641828835010529,-0.09500133991241455,30.80409812927246,-10.960057258605957,41.050472259521484,0
368,3680271,0.0644853338599205,-0.009663952514529228,-1.0055241584777832,-0.7619041204452515,0.7268445491790771,-0.3762495219707489,30.695981979370117,-8.885040283203125,39.57223129272461,0
369,3690246,0.10685516148805618,0.05349435657262802,-0.9937839508056641,1.0435996055603027,-0.3565267324447632,0.11716628074645996,30.20030403137207,-12.455451965332031,39.59305191040039,0
370,3700171,-0.005189912393689156,-0.09074550122022629,-0.9917540550231934,-0.5628529787063599,0.7993059754371643,-0.6535236239433289,30.54726219177246,-8.83716106414795,40.85035705566406,0
371,3710038,0.03236875683069229,0.038834575563669205,-0.9935539364814758,0.4521160125732422,0.26189133524894714,0.23498941957950592,29.056541442871094,-9.867721557617188,40.782386779785156,0
372,3719922,0.028141360729932785,-0.000545254850294441,-0.9651939868927002,0.7970759868621826,0.2443099319934845,0.010841866955161095,30.55321502685547,-10.401832580566406,39.40498733520508,0
373,3729960,0.044480886310338974,-0.007677375338971615,-1.0404645204544067,-0.09197165071964264,0.4591693580150604,-0.8489055037498474,32.1044921875,-11.045051574707031,40.795135498046875,0
374,3739771,0.007434978615492582,0.04128474369645119,-1.0070223808288574,0.47643527388572693,-0.6252194046974182,-0.1308290660381317,31.722055435180664,-9.328498840332031,39.83700942993164,0
375,3749891,0.03297114744782448,-0.0627257451415062,-1.0204641819000244,-0.4363023042678833,-0.17609383165836334,-0.26918208599090576,29.90901756286621,-8.416167259216309,40.552330017089844,0
376,3759903,-0.012220540083944798,-0.02995235286653042,-0.9914734959602356,-0.2511700391769409,0.19281107187271118,0.6203633546829224,29.38763999938965,-10.412469863891602,39.733577728271484,0
377,3770144,-0.07863336056470871,0.022718004882335663,-1.027531385421753,-0.25739023089408875,0.23342789709568024,0.2553086578845978,31.289505004882812,-10.603525161743164,40.32829666137695,0
378,3780304,-0.019478678703308105,-0.032466400414705276,-0.9900211691856384,0.09088924527168274,0.04028411582112312,0.3246065378189087,31.021516799926758,-8.077463150024414,39.73604965209961,0
379,3789803,0.041558895260095596,-0.05809556320309639,-0.9854157567024231,0.1335352659225464,0.6434418559074402,-0.08531595766544342,29.73781394958496,-10.540122032165527,41.304351806640625,0
380,3800137,-0.04488426446914673,0.020515985786914825,-0.9882834553718567,-0.15289802849292755,0.055019523948431015,0.546856164932251,30.49243927001953,-10.617696762084961,39.55326461791992,0
381,3810254,-0.007056023925542831,0.0015632787253707647,-1.0227957963943481,0.1992362141609192,-0.49209901690483093,-0.7391704320907593,29.01386070251465,-9.867048263549805,40.41944885253906,0
382,3819959,-0.0522625632584095,-0.06193362921476364,-1.007768154144287,-0.05093161761760712,0.8870651721954346,-0.7126696705818176,30.448532104492188,-10.801316261291504,39.9360237121582,0
383,3830011,-0.03206581622362137,0.02817751280963421,-0.9729270339012146,0.4110175669193268,-0.2785934805870056,0.4261411130428314,30.65631675720215,-10.963149070739746,39.803070068359375,0
384,3839924,-0.10305140912532806,0.011648178100585938,-0.9966373443603516,-0.17420221865177155,-0.020550746470689774,0.1008082926273346,28.223878860473633,-10.119120597839355,40.24229431152344,0
385,3850078,0.01586809940636158,-0.035853251814842224,-0.985177755355835,1.2392531633377075,0.30634811520576477,-0.30980005860328674,30.947847366333008,-8.78651237487793,40.38289260864258,0
386,3859981,0.030828382819890976,0.03926052898168564,-1.0228846073150635,-0.48459839820861816,-0.08616230636835098,-0.33507996797561646,31.644855499267578,-10.090332984924316,38.286930084228516,0
387,3870153,0.043763041496276855,0.044522956013679504,-0.9991204142570496,0.0008594313403591514,-0.27121156454086304,0.6285475492477417,31.079313278198242,-9.522647857666016,39.747947692871094,0
388,3880027,0.023831456899642944,0.022867973893880844,-0.9937958717346191,-0.23165294528007507,0.690495491027832,0.01900707744061947,32.2908935546875,-9.806408882141113,39.720237731933594,0
389,3889901,-0.049625884741544724,0.009449788369238377,-1.0590648651123047,0.16149567067623138,-0.3339574337005615,-0.08615680783987045,28.80978775024414,-10.760419845581055,41.115074157714844,0
390,3899802,-0.08665451407432556,-0.013328444212675095,-1.0236777067184448,0.20728212594985962,0.652611255645752,0.785341203212738,29.954843521118164,-12.110077857971191,40.87675094604492,0
391,3910057,-0.07069388777017593,-0.010127969086170197,-0.9847521781921387,0.34293675422668457,-0.9616521000862122,0.77663254737854,29.425312042236328,-10.006546974182129,40.86801528930664,0
392,3920107,-0.04344862326979637,-0.00553919468075037,-0.9914748072624207,-0.5047333836555481,0.17955301702022552,-0.22709886729717255,30.302234649658203,-8.955768585205078,40.89414596557617,0
393,3930171,-0.062430694699287415,-0.046092186123132706,-1.0402629375457764,-0.5377729535102844,0.09447941929101944,-0.27789929509162903,30.2738094329834,-9.959452629089355,38.973758697509766,0
394,3939875,-0.03269791975617409,-0.03942207992076874,-1.017592191696167,-0.2989659905433655,-0.6477477550506592,-0.7085471153259277,31.69688606262207,-10.526982307434082,40.82023239135742,0
395,3950186,-0.0843878909945488,0.005962376482784748,-0.9782751202583313,0.15723145008087158,0.5748133063316345,-0.10214993357658386,28.475370407104492,-8.628057479858398,39.62038040161133,0
396,3959835,-0.0711795836687088,0.043450530618429184,-0.9945696592330933,0.2672482430934906,0.4682208299636841,-0.10077809542417526,31.482357025146484,-10.716569900512695,39.82020950317383,0
397,3970196,0.12729045748710632,0.00927185919135809,-1.0206750631332397,0.1987750232219696,0.583782970905304,0.3835172951221466,30.424373626708984,-9.078195571899414,40.707679748535156,0
398,3979686,0.07087226957082748,-0.01826087012887001,-0.9797951579093933,0.22900642454624176,-0.36806419491767883,0.9186224341392517,29.50438690185547,-10.493167877197266,38.76018524169922,0
399,3989954,-0.048194874078035355,-0.13311061263084412,-1.0006725788116455,0.37303563952445984,-0.1730479896068573,0.2768673598766327,30.522123336791992,-12.14806079864502,39.55076217651367,0
400,4000093,-0.0802767351269722,-0.0032807698007673025,-0.959324300289154,0.5159943699836731,0.41067248582839966,0.30840036273002625,29.43121910095215,-8.713228225708008,40.392520904541016,0
401,4009963,-0.02074987068772316,-0.10858433693647385,-1.008355975151062,-0.23360022902488708,-0.013406922109425068,-0.4506697356700897,31.128610610961914,-9.53661823272705,39.914981842041016,0
402,4020000,0.02701079286634922,0.0951203852891922,-1.0353648662567139,0.32257527112960815,0.11176248639822006,0.5714879035949707,28.996370315551758,-9.823616981506348,40.19081115722656,0
403,4029962,0.04783111810684204,-0.03397628292441368,-1.036474585533142,0.6145256757736206,-0.8524443507194519,-0.26536425948143005,29.395267486572266,-8.929817199707031,39.55160903930664,0
404,4039931,0.0030425069853663445,0.004925167188048363,-0.9998704791069031,-0.591803789138794,-0.018752647563815117,0.32291245460510254,30.59706687927246,-10.467530250549316,39.968711853027344,0
405,4049943,-0.034235499799251556,-0.02465072274208069,-1.0026682615280151,-0.16956955194473267,0.4240596294403076,0.5127930641174316,30.954355239868164,-12.010388374328613,39.00185775756836,0
406,4060285,0.02420126460492611,-0.07743151485919952,-1.019518256187439,-0.35451740026474,-0.12626102566719055,0.029405802488327026,30.918087005615234,-10.685762405395508,41.6968994140625,0
407,4070240,-0.012201868928968906,0.0017236729618161917,-0.9922402501106262,0.053633689880371094,0.10560636967420578,0.5872909426689148,30.672271728515625,-9.234198570251465,39.75204086303711,0
408,4080033,0.051039040088653564,0.027889616787433624,-1.0147053003311157,-0.05041470006108284,0.7135952711105347,0.6380330920219421,28.931848526000977,-8.27403450012207,39.41748046875,0
409,4089966,0.020230840891599655,0.04633390158414841,-1.004409670829773,-0.22824500501155853,-0.8684785962104797,-0.7727785110473633,30.243328094482422,-9.587569236755371,39.71393966674805,0
410,4099828,0.026328176259994507,-0.04866109415888786,-1.0141608715057373,-0.8236468434333801,0.23712408542633057,0.2809640169143677,30.399028778076172,-10.18221664428711,39.8884162902832,0
411,4109979,0.004265862517058849,0.05719408392906189,-0.9637088179588318,-0.03136325255036354,0.487627238035202,-0.21912823617458344,30.43470573425293,-8.645280838012695,39.815940856933594,0
412,4120099,-0.0308607779443264,-0.0031520030461251736,-0.985799252986908,0.23952946066856384,0.07344429939985275,-0.2225288301706314,29.639816284179688,-9.723288536071777,39.37554931640625,0
413,4129778,-0.01588139496743679,0.01432807371020317,-0.9974323511123657,-0.6555492281913757,-0.8175013065338135,0.026644080877304077,29.517887115478516,-8.7507905960083,40.256195068359375,0
414,4140020,0.044762786477804184,0.05625171959400177,-1.0083025693893433,0.1531028151512146,0.46542948484420776,0.36072787642478943,31.058462142944336,-9.983209609985352,38.6707649230957,0
415,4149938,0.0017630995716899633,0.04752423241734505,-0.9862080216407776,-0.3172054886817932,0.1818598508834839,-0.5559532642364502,30.618362426757812,-9.924090385437012,38.614505767822266,0
416,4160327,0.01731072925031185,0.01954474300146103,-1.0074169635772705,-0.22155287861824036,-0.8387590050697327,-0.6480469107627869,28.53997039794922,-10.995278358459473,40.41904067993164,0
417,4169918,-0.024837013334035873,0.012456654570996761,-1.0142048597335815,0.5577951073646545,-0.9154738783836365,1.0122402906417847,28.98979949951172,-11.118481636047363,40.70464324951172,0
418,4180151,-0.040252476930618286,-0.008657455444335938,-1.0040737390518188,-0.3608771860599518,0.5291429758071899,-0.18530909717082977,28.9312801361084,-9.840872764587402,39.31928634643555,0
419,4189684,-0.00045548382331617177,-0.046398960053920746,-1.0154958963394165,0.4810183346271515,-0.13885049521923065,-0.10314077883958817,31.29821014404297,-9.403594970703125,40.51032638549805,0
420,4199985,-0.004293746780604124,-0.0069845737889409065,-0.995908796787262,0.5927712321281433,-0.4030175507068634,-0.1716993749141693,29.586572647094727,-10.199864387512207,41.732486724853516,0
421,4210124,0.030278300866484642,-0.00970916822552681,-0.9894968867301941,-0.007022587116807699,-0.8350589871406555,-0.4597224295139313,29.46323013305664,-9.22046947479248,39.58303451538086,0
422,4219924,-0.025148814544081688,0.0035041722003370523,-0.9848097562789917,-0.29991498589515686,1.2285470962524414,-0.3278849124908447,28.874866485595703,-8.909191131591797,41.67251205444336,0
423,4230106,0.09452132135629654,-0.01926172897219658,-1.0023137331008911,-0.2213117778301239,0.4394756257534027,-0.047428518533706665,30.258180618286133,-10.203938484191895,39.1033935546875,0
424,4240072,-0.06851343810558319,0.025199228897690773,-1.010361671447754,0.014557652175426483,0.3058958947658539,0.13528336584568024,30.235525131225586,-10.983884811401367,40.605953216552734,0
425,4250193,0.04577500373125076,-0.025061411783099174,-1.017103910446167,-0.636361300945282,-0.7260552644729614,-0.5687161087989807,30.417461395263672,-8.26253890991211,39.226539611816406,0
426,4260142,0.04369330406188965,0.00950806587934494,-0.9610971212387085,1.0941264629364014,0.0010045700473710895,0.24871878325939178,29.91984748840332,-12.182778358459473,39.016971588134766,0
427,4270027,-0.12453360855579376,0.02058182843029499,-1.0286823511123657,0.494749516248703,0.5178090929985046,-0.2849884629249573,28.95201873779297,-11.44150447845459,41.99760818481445,0
428,4280051,0.002278404776006937,-0.040044430643320084,-1.0174022912979126,-0.8163316249847412,0.4389593005180359,-0.5656975507736206,29.853519439697266,-10.946858406066895,40.079132080078125,0
429,4290023,0.004207791294902563,-0.06396418064832687,-0.985037088394165,0.6210203766822815,0.5497866868972778,0.17933136224746704,30.872007369995117,-10.320493698120117,40.32776641845703,0
430,4299989,0.06866880506277084,0.00100329564884305,-0.9976914525032043,-0.029652200639247894,0.45079827308654785,-0.14142628014087677,29.631723403930664,-9.432884216308594,40.4036865234375,0
431,4309929,0.09181497991085052,-0.015533075667917728,-0.9957395792007446,1.3500244617462158,-0.6497575044631958,0.22001762688159943,29.333402633666992,-11.787272453308105,41.12992858886719,0
432,4320071,-0.005194158758968115,-0.008695803582668304,-0.9953420162200928,-0.17371352016925812,0.060178790241479874,0.5991886258125305,31.048084259033203,-9.718507766723633,40.606529235839844,0
433,4329844,0.027853209525346756,0.03691257908940315,-1.014949917793274,-0.09378260374069214,0.3795398771762848,-0.5682395100593567,29.730440139770508,-11.132747650146484,39.79280090332031,0
434,4339995,0.020092295482754707,-0.004069013055413961,-1.0146934986114502,-0.035678260028362274,-0.8360598087310791,0.10493554919958115,29.1613826751709,-9.833474159240723,41.1706657409668,0
435,4350065,0.06881464272737503,0.020539768040180206,-1.0148574113845825,-0.06806417554616928,-0.26694968342781067,0.375326007604599,30.262325286865234,-11.246477127075195,40.027339935302734,0
436,4359789,0.019573312252759933,-0.01175081916153431,-1.0094552040100098,-0.28926005959510803,-0.04399549216032028,0.4866224527359009,29.9246768951416,-9.34732723236084,39.662940979003906,0
437,4370013,0.013393525965511799,-0.03836708515882492,-0.9713035821914673,-0.3617013990879059,0.4332287013530731,0.2810116708278656,30.085613250732422,-11.464483261108398,40.36159896850586,0
438,4380242,-0.024256041273474693,0.033355869352817535,-0.9662052989006042,0.7245054244995117,0.03599125146865845,0.6096728444099426,30.168460845947266,-11.241247177124023,40.590877532958984,0
439,4389935,0.037303417921066284,-0.1085689514875412,-1.0155261754989624,0.24551916122436523,-0.24279776215553284,-1.098222255706787,29.903308868408203,-8.408891677856445,42.26066207885742,0
440,4400270,0.047892533242702484,-0.11045851558446884,-1.0354491472244263,-0.573072075843811,-0.5434563755989075,0.8006728291511536,28.977306365966797,-9.201563835144043,40.45639419555664,0
441,4409846,-0.010086046531796455,-0.1011071726679802,-1.024727702140808,0.11777058988809586,-0.9408743977546692,-0.02770169824361801,30.500654220581055,-9.312437057495117,42.938194274902344,0
442,4419909,-0.0640215203166008,-0.03763217478990555,-1.019155502319336,-0.04105222970247269,-0.620536744594574,0.7363263368606567,30.197595596313477,-10.339529991149902,37.775909423828125,0
443,4430130,-0.1219954714179039,0.04857941344380379,-1.0126522779464722,-0.7639901638031006,0.7483435869216919,0.007220698054879904,30.778017044067383,-9.17122745513916,40.69207763671875,0
444,4439829,0.03349824249744415,-0.008323593065142632,-0.9928588271141052,0.3686082661151886,-1.2620381116867065,0.07846628874540329,30.214963912963867,-9.864265441894531,41.003353118896484,0
445,4450107,0.05320464447140694,0.04091552272439003,-1.0113630294799805,0.4352389872074127,-0.10556415468454361,-0.2275913506746292,29.631986618041992,-10.944289207458496,38.18247604370117,0
446,4459807,0.01010007131844759,-0.011284949257969856,-0.9934772849082947,0.4982028901576996,-0.24400785565376282,-0.5540447235107422,30.398054122924805,-9.449689865112305,40.03956604003906,0
447,4469836,-0.07504287362098694,-0.10933266580104828,-1.0280414819717407,0.3660351634025574,0.17145514488220215,-0.38639599084854126,29.772510528564453,-9.94571590423584,38.952903747558594,0
448,4480059,0.004722431302070618,0.03174564614892006,-0.9686939120292664,-0.10346358269453049,-0.4886559247970581,0.5926721096038818,28.142454147338867,-11.43093204498291,40.947959899902344,0
449,4490186,-0.068169504404068,0.06090614199638367,-1.0255860090255737,0.14524538815021515,-0.03831087425351143,0.37906843423843384,30.86839485168457,-10.25367259979248,39.64543151855469,0
450,4500118,-0.0803176611661911,-0.01942247338593006,-0.9859943389892578,-0.928417444229126,0.183297261595726,0.36143893003463745,27.4013729095459,-9.808585166931152,38.46226501464844,0
451,4510214,0.05211562290787697,-0.007714554201811552,-0.9963138699531555,0.8054290413856506,0.3183533847332001,-0.010873707942664623,29.33255386352539,-10.925458908081055,37.277793884277344,0
452,4519765,0.037628695368766785,0.051054082810878754,-0.9780840873718262,-0.519382119178772,-0.3417792022228241,-0.7396634221076965,30.1731014251709,-8.69174575805664,39.63941955566406,0
453,4529954,-0.011740773916244507,-0.035914644598960876,-0.9773002862930298,0.8085666298866272,0.02290421724319458,-1.0404865741729736,29.254880905151367,-9.732098579406738,40.68121337890625,0
454,4540252,-0.010576439090073109,0.02454429119825363,-0.9700071215629578,-0.11070346087217331,-0.6175705790519714,0.13142380118370056,29.47722816467285,-10.288542747497559,38.99794387817383,0
455,4549771,0.07213903963565826,0.032366205006837845,-0.9861698746681213,0.04538998380303383,1.2886408567428589,-0.531670331954956,29.091928482055664,-9.102511405944824,37.995243072509766,0
456,4559858,0.03756972402334213,-0.014637122862040997,-1.0073466300964355,-0.05349962040781975,0.1633424460887909,-0.1967158317565918,31.053260803222656,-10.307554244995117,39.01245880126953,0
457,4569929,0.02930125966668129,-0.004753189627081156,-0.9971294403076172,-0.44228097796440125,-0.4040977358818054,-0.9408854246139526,30.939125061035156,-9.6180419921875,39.99229049682617,0
458,4580003,-0.05852111056447029,-0.005175738595426083,-1.0116006135940552,0.22831253707408905,-0.42382222414016724,-0.119992695748806,29.69744110107422,-10.71743106842041,40.958736419677734,0
459,4590208,0.05564146861433983,-0.004483114928007126,-1.0104968547821045,-0.172313392162323,-0.2839232385158539,-0.40623971819877625,28.778886795043945,-10.242765426635742,38.51185989379883,0
460,4600017,-0.026149488985538483,-0.050748519599437714,-0.9829141497612,-0.21990467607975006,-0.2537783682346344,0.53437739610672,30.54990005493164,-10.874343872070312,38.14984130859375,0
461,4610110,-0.035185374319553375,0.008226031437516212,-1.050564169883728,0.17942051589488983,0.5382697582244873,0.6072255373001099,30.285987854003906,-8.971607208251953,39.50605392456055,0
462,4620130,-0.057912878692150116,-0.040857791900634766,-0.9836582541465759,-0.07789343595504761,0.34084802865982056,-0.04235072061419487,31.03459358215332,-13.162883758544922,41.555606842041016,0
463,4629997,-0.02962837927043438,0.021921414881944656,-0.9854660034179688,-0.16047373414039612,-0.6422096490859985,0.6452773213386536,30.001583099365234,-11.318917274475098,38.98490905761719,0
464,4640285,-0.065302774310112,-0.08949489891529083,-0.9927619099617004,0.6642534136772156,-0.5482805371284485,-0.6907356977462769,30.187633514404297,-10.178839683532715,41.61468505859375,0
465,4650131,-0.0939135029911995,0.009580918587744236,-1.0158605575561523,0.1362311840057373,0.5283139944076538,0.13918796181678772,29.924575805664062,-9.376541137695312,40.30417251586914,0
466,4660142,-0.04434559494256973,-0.038651131093502045,-1.0209150314331055,0.14955976605415344,-0.850532054901123,0.6217333078384399,29.467336654663086,-9.981196403503418,40.86198806762695,0
467,4670132,0.04445277526974678,0.006849400233477354,-0.9646305441856384,0.6381009817123413,-0.21120019257068634,0.08305486291646957,29.01093292236328,-10.38241195678711,42.166717529296875,0
468,4680199,-0.05087140575051308,0.07463196665048599,-0.9708712697029114,-0.08269508928060532,0.3463146388530731,-0.3119758069515228,28.78680992126465,-8.962600708007812,40.05022048950195,0
469,4689666,-0.03697469085454941,-0.02952468954026699,-1.012587308883667,0.11320723593235016,-0.6224903464317322,0.1552082747220993,30.419471740722656,-10.289485931396484,39.37653732299805,0
470,4699848,0.005318206734955311,0.02906409651041031,-0.9905590415000916,-0.6952246427536011,-0.27065250277519226,0.46845030784606934,29.974384307861328,-9.591360092163086,39.486637115478516,0
471,4710014,0.049055226147174835,0.01518786046653986,-0.975209653377533,-0.4647909104824066,-0.4070643484592438,0.2415573000907898,30.825910568237305,-9.773395538330078,39.96437072753906,0
472,4719980,-0.08127741515636444,-0.05037497729063034,-1.017382025718689,-0.4743761122226715,-0.4498221278190613,-0.5191805362701416,30.263944625854492,-10.183241844177246,38.902652740478516,0
473,4729730,0.00286215846426785,-0.03202023357152939,-0.9669560194015503,-0.016492396593093872,-0.036981772631406784,-0.5499675273895264,29.76406478881836,-10.429217338562012,40.87865447998047,0
474,4740009,-0.028596147894859314,-0.04332377761602402,-0.9930744171142578,0.6021134257316589,-0.34162524342536926,-0.16369786858558655,29.571706771850586,-8.956156730651855,38.89786911010742,0
475,4750062,-0.015935471281409264,0.039515767246484756,-0.9702061414718628,0.49488869309425354,0.07462850958108902,0.005316947586834431,30.6004695892334,-9.131314277648926,41.02072525024414,0
476,4760082,0.03514024615287781,0.10007850080728531,-1.029266357421875,0.4421082139015198,-0.03583567962050438,-0.4419826865196228,30.837709426879883,-12.321855545043945,40.652183532714844,0
477,4769856,-0.03944385051727295,0.05221579596400261,-1.0139350891113281,0.12348674237728119,0.11613737046718597,0.3388703465461731,28.245044708251953,-8.368338584899902,40.10439682006836,0
478,4779961,-0.01133990939706564,-0.0665033608675003,-1.0224881172180176,-1.095658540725708,-0.39648163318634033,0.4671136140823364,28.53789710998535,-10.282610893249512,40.12664031982422,0
479,4790192,-0.04134831577539444,-0.03483058512210846,-0.997136116027832,0.23498821258544922,-0.6856929063796997,-0.7925039529800415,29.640249252319336,-10.447184562683105,41.228118896484375,0
480,4799967,-0.06531770527362823,-0.048089977353811264,-0.9903483390808105,-0.829663097858429,-0.385135293006897,-0.4625232517719269,32.051551818847656,-8.289815902709961,40.55177688598633,0
481,4809764,-0.0692138746380806,-0.012724502012133598,-1.0238673686981201,-0.34455350041389465,-0.26730549335479736,0.7049915194511414,28.859416961669922,-9.234711647033691,40.11724090576172,0
482,4820218,-0.02639208920300007,0.0590890571475029,-0.9833597540855408,0.6668702363967896,-0.48863375186920166,0.5541436672210693,30.64719581604004,-9.930171012878418,41.098392486572266,0
483,4829972,-0.06993966549634933,0.05276275798678398,-1.0060490369796753,-0.014193315990269184,-0.36039355397224426,0.2866904139518738,30.581830978393555,-10.193711280822754,40.800132751464844,0
484,4839973,0.05537381023168564,0.0007034937734715641,-1.0039905309677124,0.014620020054280758,-0.3262946307659149,-0.6051663756370544,31.753013610839844,-8.905749320983887,41.97297668457031,0
485,4849775,-0.07887526601552963,-0.018295174464583397,-0.9614625573158264,-0.21868035197257996,-0.9047369956970215,-0.01809011958539486,31.172441482543945,-9.015817642211914,40.245689392089844,0
486,4860115,0.00820300355553627,-0.04256565868854523,-0.999884843826294,0.2270248979330063,-0.4547669589519501,0.1969219595193863,29.78465461730957,-10.260611534118652,40.2731819152832,0
487,4870261,-0.0112559013068676,0.03741839528083801,-0.9848419427871704,0.849761426448822,0.5544513463973999,0.597698986530304,30.876602172851562,-8.963174819946289,39.877254486083984,0
488,4880007,0.0681319385766983,-0.0038823101203888655,-1.005392074584961,-0.894348680973053,-0.11307774484157562,0.04870222136378288,30.8855037689209,-9.949226379394531,38.75306701660156,0
489,4890103,0.019471842795610428,-0.025099661201238632,-0.9886083602905273,-0.4732283651828766,-0.21956080198287964,-0.29036620259284973,28.367778778076172,-10.04538345336914,40.64797592163086,0
490,4900131,-0.03442979231476784,0.0703117623925209,-0.990035891532898,0.6816287040710449,0.47279348969459534,0.2991979420185089,29.99077606201172,-12.135191917419434,40.82351303100586,0
491,4909835,0.048193637281656265,-0.08667241781949997,-1.0178678035736084,0.5970903038978577,-0.4294734597206116,-0.09792329370975494,28.114213943481445,-10.92872142791748,38.77509307861328,0
492,4920259,-0.007581139914691448,0.015749776735901833,-1.0072970390319824,0.675474226474762,-0.4887124300003052,0.4242449700832367,29.693279266357422,-10.437471389770508,38.82231140136719,0
493,4929905,0.05134028196334839,0.025133246555924416,-0.9799341559410095,-0.3157748878002167,-0.05292259901762009,0.8594731688499451,29.020727157592773,-8.314151763916016,40.22282028198242,0
494,4940136,-0.002517509274184704,-0.04941849410533905,-1.0050272941589355,0.42673107981681824,-0.6175081729888916,-0.5779695510864258,29.13426971435547,-10.173474311828613,39.21147155761719,0
495,4950060,0.03785711154341698,-0.01712346263229847,-0.9989091157913208,0.9343215823173523,0.9143260717391968,0.11570093035697937,28.665176391601562,-9.479040145874023,42.415626525878906,0
496,4960257,-0.1039843037724495,0.015771199017763138,-1.0004875659942627,0.6701165437698364,-1.1863678693771362,-0.11286132782697678,31.048551559448242,-10.02745246887207,39.73667907714844,0
497,4970006,0.03413607180118561,-0.019947193562984467,-1.0261064767837524,1.1851762533187866,0.4771157205104828,-0.4718082845211029,28.29009246826172,-11.001344680786133,38.194427490234375,0
498,4980125,0.051961734890937805,0.06526916474103928,-1.0100361108779907,0.22103938460350037,0.3800588548183441,0.6951227188110352,29.714879989624023,-10.140278816223145,39.722835540771484,0
499,4990078,-0.010654390789568424,0.0037819701246917248,-1.0053112506866455,-0.6225908994674683,-0.9277804493904114,0.058300841599702835,30.30730438232422,-10.564986228942871,41.49412536621094,0
500,5000178,-0.0795556977391243,0.03711872547864914,-0.9956634044647217,0.048807431012392044,0.11823524534702301,0.5275132060050964,29.80353546142578,-10.706894874572754,38.52587127685547,0
501,5010085,0.06307798624038696,-0.0009640728239901364,-1.0029362440109253,0.5673851370811462,-0.5744099020957947,-0.8553211688995361,29.80536460876465,-9.450273513793945,40.18979263305664,0
502,5019967,0.04501426964998245,0.04183006286621094,-0.9971243739128113,0.6280916333198547,0.12374524027109146,0.4601309299468994,29.49516487121582,-10.170716285705566,40.99214172363281,0
503,5030130,0.03128993883728981,0.04425552859902382,-1.0032631158828735,-0.19158820807933807,-0.1736193299293518,0.005909007973968983,27.99672508239746,-9.499874114990234,39.703453063964844,0
504,5039755,0.06824823468923569,0.026282191276550293,-1.008194088935852,-0.9143490195274353,-0.9408512115478516,0.4526634216308594,28.87464714050293,-11.696239471435547,39.40990447998047,0
505,5049911,0.07735206186771393,-0.0808069035410881,-0.9887735843658447,0.36725884675979614,-0.4572010636329651,1.2070032358169556,29.550756454467773,-8.669964790344238,39.581905364990234,0
506,5060087,-0.027874812483787537,-0.03777291253209114,-1.0132484436035156,0.7632054686546326,0.35399293899536133,0.2406388223171234,28.388864517211914,-9.765393257141113,40.33979797363281,0
507,5070150,-0.033692263066768646,0.08110875636339188,-1.0014744997024536,-0.4499426782131195,0.22538889944553375,-0.17908033728599548,31.08559226989746,-11.257513046264648,38.83973693847656,0
508,5080077,-0.022267770022153854,-0.1043555960059166,-1.0469633340835571,-0.14323210716247559,0.18140457570552826,0.1713600605726242,31.115697860717773,-12.000115394592285,39.4747200012207,0
509,5090057,0.011094876565039158,0.039612364023923874,-0.9757713675498962,0.5023617744445801,-0.6884655952453613,-0.37225762009620667,29.236204147338867,-8.471431732177734,40.32598114013672,0
510,5100266,-0.12133315205574036,-0.00473804771900177,-0.9603868722915649,-0.13504868745803833,0.550189197063446,0.5812985301017761,29.805395126342773,-9.68551254272461,39.001094818115234,0
511,5110310,-0.046761125326156616,0.014819901436567307,-0.9853953123092651,0.5865775942802429,0.11400652676820755,0.8878937363624573,30.529855728149414,-10.210145950317383,39.844120025634766,0
512,5119939,-0.0020998544059693813,0.06884662061929703,-1.0086110830307007,-0.5730242133140564,-0.476166307926178,0.6014450788497925,30.16552734375,-10.902466773986816,39.463897705078125,0
513,5130074,-0.027861569076776505,-0.019059035927057266,-0.9841265082359314,-0.10699120163917542,-0.2354661226272583,0.23403239250183105,29.459217071533203,-9.489508628845215,40.32597732543945,0
514,5139687,0.011660306714475155,0.03479201719164848,-0.9971238970756531,0.7870848774909973,-0.16938644647598267,0.35365045070648193,30.209156036376953,-10.31396770477295,40.14453887939453,0
515,5150113,-0.04907763749361038,0.03844762593507767,-1.0140718221664429,0.02410416677594185,-0.19784288108348846,-0.5284665822982788,31.09227180480957,-9.839031219482422,39.78959274291992,0
516,5159847,-0.1062299907207489,0.08520031720399857,-1.0178114175796509,0.3965500295162201,0.5452396869659424,-0.5367891192436218,31.22477149963379,-12.249584197998047,41.016204833984375,0
517,5170154,0.05665140599012375,0.013736456632614136,-0.9839744567871094,-1.47235107421875,0.04752551019191742,0.01376181747764349,28.954931259155273,-11.592754364013672,39.92223358154297,0
518,5180245,0.034545984119176865,0.0063577149994671345,-0.9771627187728882,0.5726441740989685,-0.9615566730499268,0.5251826643943787,29.863216400146484,-10.35926628112793,39.88215255737305,0
519,5190164,-0.01765396073460579,-0.02279796078801155,-1.005934476852417,-0.07463891059160233,-1.0607471466064453,0.28921815752983093,29.86726951599121,-10.248371124267578,40.118141174316406,0
520,5200080,0.09359558671712875,0.026490675285458565,-0.9990623593330383,0.2941749095916748,0.05873626098036766,-0.48975932598114014,30.30327796936035,-8.914917945861816,40.364864349365234,0
521,5210235,-0.004441041965037584,0.0008920839172787964,-1.029433012008667,-1.4531641006469727,0.350654274225235,-0.05497460439801216,29.82802963256836,-10.742844581604004,38.93512725830078,0
522,5219989,0.0020561758428812027,0.04730434715747833,-1.020134687423706,0.06160480156540871,-0.3261161148548126,-0.6820141673088074,29.088205337524414,-9.22973918914795,40.522216796875,0
523,5230150,-0.0649992823600769,-0.05037589743733406,-0.9848271012306213,0.17053654789924622,0.07202639430761337,0.11543472111225128,29.960773468017578,-9.799980163574219,41.30290603637695,0
524,5240257,0.04523210972547531,-0.09561850875616074,-0.9973316192626953,-0.5822644233703613,-0.28217971324920654,0.8463633060455322,29.183456420898438,-11.209578514099121,40.13883590698242,0
525,5250227,-0.02592490054666996,0.031139347702264786,-0.993010401725769,0.7881146669387817,0.3882979452610016,0.5780922174453735,29.6195125579834,-10.56875991821289,39.095672607421875,0
526,5259865,0.0018547350773587823,0.05600845068693161,-1.0031524896621704,-0.5066558122634888,-0.09750021249055862,0.18921281397342682,31.501949310302734,-10.252737998962402,40.46244430541992,0
527,5269762,0.04056962579488754,-0.011041493155062199,-1.0145517587661743,-0.09093430638313293,-0.03886580094695091,-0.16796840727329254,31.968021392822266,-9.891631126403809,41.6171760559082,0
528,5279731,0.014181850478053093,0.02404811978340149,-1.0026392936706543,0.5629839301109314,-0.006671851500868797,0.16270728409290314,29.18722915649414,-11.334492683410645,40.15571975708008,0
529,5290377,0.010675804689526558,-0.0050647021271288395,-1.038979411125183,-0.10895445942878723,-0.25436538457870483,-0.15088887512683868,29.53447914123535,-8.067543029785156,40.70359802246094,0
530,5299806,-0.06314946711063385,-0.026488183066248894,-0.9975243210792542,-0.12298639863729477,-0.4383573830127716,-0.242354616522789,29.90375518798828,-12.858023643493652,42.216835021972656,0
531,5309690,0.07160177826881409,-0.09741877764463425,-1.0100308656692505,-0.09185314178466797,-0.9048266410827637,0.40253886580467224,28.01049041748047,-10.09583568572998,40.102970123291016,0
532,5319881,-0.0793660581111908,0.01451875176280737,-0.9910421967506409,-0.8259402513504028,0.6203769445419312,-0.46289294958114624,28.936355590820312,-9.669474601745605,39.86723709106445,0
533,5329966,0.04747387021780014,0.021243473514914513,-0.9772604703903198,-0.056911222636699677,-0.32708606123924255,0.9096107482910156,30.463510513305664,-12.226402282714844,39.70941162109375,0
534,5339976,-0.008972037583589554,0.0033577298745512962,-1.0172874927520752,0.01793147809803486,-0.8695462346076965,0.4723079204559326,30.865964889526367,-8.10832691192627,38.67803955078125,0
535,5349912,-0.012073023244738579,0.05069129914045334,-1.0059374570846558,0.5637568235397339,0.49183937907218933,0.8705373406410217,30.817832946777344,-11.076252937316895,38.963260650634766,0
536,5359964,-0.0095036206766963,0.030476590618491173,-1.0306391716003418,-0.18991298973560333,0.007156998384743929,0.17289206385612488,29.839380264282227,-9.585963249206543,38.150108337402344,0
537,5369827,0.04245927929878235,0.03911329805850983,-0.9830611944198608,0.25459134578704834,0.86748868227005,0.28116512298583984,29.179752349853516,-10.683347702026367,39.6355094909668,0
538,5380016,0.017998192459344864,0.021064098924398422,-0.9961999654769897,-0.08385730534791946,0.05545128881931305,-0.4528074860572815,29.64589500427246,-8.578782081604004,38.902164459228516,0
539,5390174,0.06019006669521332,-0.06390887498855591,-0.9939877390861511,0.19716747105121613,-0.4381658732891083,0.09586832672357559,31.002878189086914,-10.857434272766113,40.496246337890625,0
540,5400016,0.012956636026501656,0.05306535214185715,-0.9956031441688538,0.4272477626800537,0.35796648263931274,-0.22915972769260406,29.645557403564453,-12.072857856750488,39.59976577758789,0
541,5410110,-0.10197089612483978,-0.03210100159049034,-0.9953620433807373,-0.05086527764797211,-0.166559636592865,0.524081289768219,31.659072875976562,-10.83282470703125,38.6733512878418,0
542,5420047,-0.06731537729501724,0.039994414895772934,-0.9658862948417664,0.014825561083853245,-0.15417717397212982,0.3665253221988678,29.163841247558594,-9.725640296936035,39.04692077636719,0
543,5429930,-0.05558545142412186,-0.056466881185770035,-1.0175701379776,0.37462788820266724,-0.2977107763290405,0.5169543027877808,29.351659774780273,-12.589550018310547,40.22072982788086,0
544,5439779,0.02562161348760128,-0.08478879928588867,-0.9643168449401855,0.9394432306289673,0.44055086374282837,0.3639005124568939,29.578847885131836,-11.177003860473633,39.178253173828125,0
545,5450058,0.003973466344177723,0.025578411296010017,-0.9866124391555786,0.36024805903434753,-0.5108966827392578,0.06421692669391632,30.256120681762695,-11.661796569824219,40.71336364746094,0
546,5459857,0.0023177843540906906,0.015522823669016361,-1.0166665315628052,0.004314863122999668,0.5238881707191467,0.42828622460365295,31.076047897338867,-11.290184020996094,39.58259963989258,0
547,5470112,-0.05800656974315643,-0.06844599545001984,-0.972780704498291,0.07781752198934555,0.20601880550384521,0.7657485008239746,30.296106338500977,-11.090023040771484,41.12089157104492,0
548,5480007,0.05558370053768158,-0.05990896746516228,-0.9956403374671936,-0.05799395591020584,0.44837498664855957,1.1940407752990723,31.158472061157227,-10.759177207946777,40.39278030395508,0
549,5490000,0.09489087015390396,-0.002010516356676817,-1.0202665328979492,-0.13019205629825592,0.17427290976047516,0.07793578505516052,31.22145652770996,-10.168728828430176,39.74779510498047,0
550,5500004,-0.011803203262388706,0.025502117350697517,-0.994584858417511,-0.6440008282661438,-0.8686179518699646,-0.25924602150917053,30.04570770263672,-9.655183792114258,38.37099838256836,0
551,5509946,0.029538368806242943,0.01493809837847948,-1.010820746421814,-0.30872857570648193,-0.24758613109588623,0.13304096460342407,29.2493896484375,-10.05158519744873,41.23124694824219,0
552,5520205,0.013378920964896679,0.029569486156105995,-1.0055617094039917,0.1504635512828827,0.13475053012371063,0.404988557100296,30.660125732421875,-9.175305366516113,40.17728805541992,0
553,5530115,-0.022097576409578323,0.016785230487585068,-1.014695405960083,0.26616761088371277,-0.5535057187080383,0.5873843431472778,30.454376220703125,-9.831599235534668,41.44426345825195,0
554,5540021,-0.0742335096001625,-0.027496863156557083,-0.9789814352989197,0.5196836590766907,-0.246480792760849,-0.39123716950416565,29.846149444580078,-11.466288566589355,38.28879165649414,0
555,5550048,-0.04220547154545784,-0.027543848380446434,-0.9773555994033813,0.09470878541469574,0.15863829851150513,-0.07211019843816757,30.71941566467285,-10.868708610534668,40.303714752197266,0
556,5560319,-0.0510830394923687,0.03823567554354668,-0.9773963093757629,0.33928340673446655,0.10367775708436966,0.4204074442386627,30.86882781982422,-9.739533424377441,40.877742767333984,0
557,5569617,-0.00802863109856844,0.002585433190688491,-1.0243098735809326,-0.8158323168754578,0.17420406639575958,-0.33379247784614563,30.250642776489258,-9.394314765930176,39.46910858154297,0
558,5579966,-0.022840967401862144,-0.06939414888620377,-0.9885315895080566,-0.03265984356403351,-0.7778188586235046,0.08691360801458359,31.584503173828125,-10.854564666748047,39.3644905090332,0
559,5590105,0.05044816806912422,0.020054711028933525,-1.0057032108306885,0.9017277956008911,0.18130949139595032,0.2935827374458313,28.21988296508789,-9.99833869934082,40.125701904296875,0
560,5600093,-0.026682378724217415,0.018197719007730484,-1.0051347017288208,0.16399827599525452,0.5523381233215332,-0.028405552729964256,29.45281410217285,-11.582717895507812,41.43397521972656,0
561,5609876,0.015780460089445114,-0.029855143278837204,-1.0488735437393188,0.044306643307209015,-0.9525268077850342,-0.9769589304924011,30.550535202026367,-9.415419578552246,39.380828857421875,0
562,5620047,-0.025398485362529755,-0.030346207320690155,-0.9773464202880859,-0.20929232239723206,-0.1667403131723404,-0.8118528723716736,30.390522003173828,-10.829475402832031,40.200767517089844,0
563,5629949,-0.05241989716887474,0.04335825890302658,-1.058066725730896,-0.1483585089445114,-0.027328284457325935,-0.5179944634437561,31.232576370239258,-10.715567588806152,40.38054275512695,0
564,5640315,-0.012212460860610008,0.054020918905735016,-1.0192707777023315,0.7980291843414307,-0.5187937617301941,0.7269428372383118,32.38797378540039,-9.432125091552734,40.6213264465332,0
565,5650027,0.008839603513479233,-0.03597204387187958,-1.029331922531128,0.17170140147209167,0.7221535444259644,0.04447101801633835,29.90134620666504,-9.644668579101562,41.1749153137207,0
566,5660071,-0.06983598321676254,0.03361790254712105,-0.9980006814002991,0.08198342472314835,-0.16425231099128723,0.25526753067970276,30.518495559692383,-8.094183921813965,39.331504821777344,0
567,5669798,-0.06845082342624664,-0.03930726647377014,-1.0037634372711182,0.2823202908039093,-0.02940155379474163,-0.09339021891355515,29.612701416015625,-9.376931190490723,40.001861572265625,0
568,5679935,-0.06935615837574005,0.008921569213271141,-1.0255953073501587,0.19655238091945648,0.3686896562576294,0.009646794758737087,29.980361938476562,-8.896378517150879,42.29458236694336,0
569,5689975,-0.04789762198925018,0.05204669386148453,-0.9846282005310059,0.30701449513435364,-0.12947191298007965,-0.858551025390625,29.213090896606445,-8.83022689819336,39.374202728271484,0
570,5700058,0.0025331974029541016,-0.02030070498585701,-1.0025690793991089,-0.056533582508563995,-0.2337796688079834,0.0972604900598526,28.57611846923828,-10.599721908569336,39.49291229248047,0
571,5710046,0.02638503536581993,0.020972829312086105,-0.996504545211792,0.45075473189353943,-0.3407081067562103,0.012027516961097717,28.26801109313965,-8.392868995666504,39.42362976074219,0
572,5719913,-0.024410562589764595,-0.026582760736346245,-1.0217589139938354,0.6686182618141174,0.6120491623878479,-0.08025045692920685,30.8492488861084,-9.539200782775879,37.561676025390625,0
573,5730189,-0.03852621838450432,-0.005955202970653772,-0.9740057587623596,0.051240116357803345,-0.39631277322769165,0.2567307949066162,29.07597541809082,-10.168951034545898,40.11832046508789,0
574,5739804,0.02462640218436718,0.030092284083366394,-0.9701684713363647,-0.1655861884355545,0.4052259027957916,-0.9144889116287231,30.637027740478516,-9.722938537597656,40.276790618896484,0
575,5750243,0.08818242698907852,0.024516470730304718,-1.031577706336975,-0.39425450563430786,0.22759661078453064,-0.0773669108748436,28.59711456298828,-8.674108505249023,42.08237075805664,0
576,5760093,-0.014583139680325985,-0.008158313110470772,-0.9780884385108948,-0.9315980076789856,-0.3565715253353119,-0.12963175773620605,28.576309204101562,-9.727810859680176,37.712974548339844,0
577,5770121,-0.0025689853355288506,0.016629980877041817,-0.9846803545951843,0.8115822672843933,0.23655648529529572,-0.1645490527153015,29.925336837768555,-10.553879737854004,40.14856719970703,0
578,5779965,0.057278651744127274,-0.012689250521361828,-0.9828468561172485,0.3243107199668884,0.15973490476608276,-0.7505635023117065,30.97369384765625,-10.250791549682617,41.46133041381836,0
579,5789814,0.040902141481637955,0.06265845894813538,-1.0041877031326294,0.017660832032561302,-0.027423687279224396,-0.5383694767951965,31.491283416748047,-9.597535133361816,40.18257522583008,0
580,5800177,-0.006269690115004778,0.050236232578754425,-0.9980143308639526,-0.2761978209018707,0.45366671681404114,-0.061519064009189606,30.157411575317383,-9.858222961425781,41.01090621948242,0
581,5809802,0.05497106909751892,-0.07513228803873062,-1.0198113918304443,0.2855461537837982,-0.24924080073833466,0.8738387227058411,28.972047805786133,-9.653515815734863,41.986263275146484,0
582,5820019,-0.08072109520435333,0.00884223636239767,-1.010157585144043,0.7129822969436646,-0.12119025737047195,-0.14279122650623322,30.374801635742188,-10.142641067504883,41.96803665161133,0
583,5829797,0.01167185790836811,0.009765176102519035,-0.942075788974762,-0.5712344646453857,-0.2621874511241913,-0.6595309972763062,30.306957244873047,-9.216845512390137,40.215457916259766,0
584,5839849,0.02091577835381031,-0.0454789474606514,-1.0221235752105713,0.5825358629226685,0.7644006609916687,0.6887485384941101,29.337024688720703,-12.686808586120605,39.70720291137695,0
585,5849922,-0.0025975785683840513,-0.042353417724370956,-0.98826003074646,0.1395185887813568,-0.2760869264602661,0.814823567867279,29.745323181152344,-10.319499015808105,38.771446228027344,0
586,5860147,-0.07369784265756607,-0.007789137307554483,-1.0038599967956543,0.1302320957183838,-0.038902122527360916,0.020146798342466354,29.72951316833496,-9.734265327453613,42.518882751464844,0
587,5869940,0.01006150059401989,0.025518283247947693,-0.9986214637756348,0.20838813483715057,-0.7431257963180542,0.5668962597846985,30.038127899169922,-10.579998970031738,39.576229095458984,0
588,5880112,-0.022399581968784332,0.020268522202968597,-1.0239256620407104,0.9294632077217102,-0.7498674392700195,-0.6554456949234009,29.298433303833008,-8.54006576538086,38.537384033203125,0
589,5889995,0.07083594053983688,-0.09560894966125488,-1.0322290658950806,-0.4241359531879425,-0.8301099538803101,0.35724201798439026,31.315095901489258,-9.636427879333496,40.63494110107422,0
590,5899755,-0.05726190283894539,-0.060080643743276596,-1.0075833797454834,0.1173785850405693,0.6808956265449524,0.8695129752159119,27.687496185302734,-8.203518867492676,38.94810485839844,0
591,5910117,-0.028100477531552315,-0.002534794621169567,-0.9916626214981079,-0.4625668227672577,-0.41334211826324463,-0.25030386447906494,29.922788619995117,-10.39989948272705,41.35637283325195,0
592,5920415,0.01818142645061016,0.10414671897888184,-0.9949891567230225,0.42658156156539917,-0.40736275911331177,-0.3552657961845398,29.271202087402344,-8.6751708984375,40.920921325683594,0
593,5930187,0.05871231481432915,-0.006686394568532705,-0.9898629784584045,-0.30130434036254883,-0.7193514108657837,0.589181125164032,29.39666175842285,-10.070882797241211,39.48411560058594,0
594,5940085,0.05525771528482437,-0.05337633937597275,-1.0129146575927734,-0.5376745462417603,0.2990013659000397,-0.0708165094256401,29.946138381958008,-11.039693832397461,38.70527648925781,0
595,5950006,-0.03206230327486992,0.01773682050406933,-1.0179994106292725,-0.11110763251781464,0.26308438181877136,0.2715682089328766,31.744121551513672,-10.455398559570312,38.53467559814453,0
596,5960096,0.02529533952474594,0.037079062312841415,-0.9669088125228882,-0.7736657857894897,-0.34131571650505066,1.3858098983764648,31.397748947143555,-8.915427207946777,40.472328186035156,0
597,5969722,0.025797387585043907,-0.011319376528263092,-1.0170927047729492,0.039933547377586365,0.45801830291748047,0.5091037750244141,28.884532928466797,-10.297804832458496,38.59312438964844,0
598,5980270,0.07564710080623627,-0.026953021064400673,-1.006786584854126,-1.0974358320236206,-0.17251242697238922,-0.35196736454963684,30.089401245117188,-11.776115417480469,42.090484619140625,0
599,5989898,-0.009315473027527332,0.10905656218528748,-0.9973567128181458,-0.002443159930408001,-0.00631997874006629,-0.26109471917152405,28.369504928588867,-10.367899894714355,40.14452362060547,0
600,6000050,-0.06494808197021484,0.009525179862976074,-0.9473363161087036,-0.39598968625068665,-1.0518747568130493,-0.26715463399887085,29.774919509887695,-9.72977066040039,39.9125862121582,0
601,6009855,-0.03041711449623108,-0.037174079567193985,-1.0057003498077393,-0.34652256965637207,-0.47722604870796204,-0.7100319266319275,30.895753860473633,-10.82474422454834,40.19076156616211,0
602,6019858,0.025400351732969284,-0.0309128537774086,-0.9854984879493713,-0.5879720449447632,0.41984012722969055,0.8562483191490173,31.758216857910156,-8.987308502197266,39.44837188720703,0
603,6030187,-0.04871261492371559,-0.08864712715148926,-1.0114370584487915,0.5169454216957092,-1.200069785118103,-0.18807090818881989,31.41680908203125,-11.606090545654297,40.297733306884766,0
604,6039907,0.002225719392299652,0.04187905043363571,-0.9892435669898987,-0.9580536484718323,-0.5316656231880188,0.3533521890640259,30.220972061157227,-9.959983825683594,39.99433898925781,0
605,6049909,0.020929135382175446,0.006639859639108181,-1.0046695470809937,-0.5969358682632446,0.677828311920166,0.4689798355102539,30.062089920043945,-8.654484748840332,40.22788619995117,0
606,6060125,-0.0417824313044548,-0.03499807417392731,-0.9853317141532898,-0.8058587908744812,0.16992783546447754,0.09748496115207672,31.595170974731445,-10.989604949951172,38.306915283203125,0
607,6070215,0.025731921195983887,-0.06472744792699814,-1.0201112031936646,-0.12346798181533813,0.42750099301338196,-1.201960802078247,31.412403106689453,-10.174650192260742,39.87430191040039,0
608,6080374,-0.023825928568840027,0.03294749930500984,-1.0141302347183228,0.10768533498048782,-0.01647040620446205,0.2598733603954315,30.938220977783203,-9.297696113586426,39.92768859863281,0
609,6090070,0.04100342094898224,0.013201373629271984,-1.0264952182769775,0.35246339440345764,0.20668523013591766,0.11662259697914124,29.40442657470703,-9.787397384643555,40.34248733520508,0
610,6099708,0.02912691980600357,-0.05433002859354019,-1.0336145162582397,-0.08783866465091705,0.6200796961784363,0.13272999227046967,30.32603645324707,-10.256844520568848,39.78836441040039,0
611,6110121,-0.0005954552907496691,0.027103101834654808,-1.030548334121704,-0.013908655382692814,-0.8794729709625244,-0.43869826197624207,29.181800842285156,-9.611943244934082,41.434242248535156,0
612,6119969,0.019962728023529053,0.02335638925433159,-0.9859212040901184,0.052094828337430954,0.5822410583496094,0.5253335237503052,29.64814567565918,-12.028260231018066,38.384498596191406,0
613,6129654,-0.08220428228378296,0.06731478124856949,-0.9964678287506104,1.1314424276351929,0.06880993396043777,-0.6118062138557434,29.985836029052734,-10.318848609924316,40.531253814697266,0
614,6140042,-0.017539430409669876,0.037068191915750504,-1.0337895154953003,-0.5039044618606567,0.2595234811306,-0.19270938634872437,31.789703369140625,-9.843661308288574,39.574623107910156,0
615,6149667,0.09741855412721634,-0.018562881276011467,-0.9525085687637329,-0.6228926181793213,0.1012105718255043,-0.4049517810344696,27.727069854736328,-10.309287071228027,40.62871170043945,0
616,6160127,0.0010043075308203697,0.028259195387363434,-1.009881854057312,0.07629518955945969,-0.3205309212207794,-0.5521370768547058,29.892183303833008,-9.763904571533203,38.48896408081055,0
617,6169972,-0.0799155980348587,-0.06012359634041786,-1.0307577848434448,-0.8274475932121277,0.5584940910339355,0.6540908813476562,30.873069763183594,-10.700887680053711,39.5803337097168,0
618,6179792,-0.02146892435848713,0.06204851344227791,-0.9730674624443054,-0.624911904335022,-0.24782423675060272,0.18909761309623718,31.858959197998047,-9.959253311157227,39.653297424316406,0
619,6190310,-0.0017991757486015558,-0.04070998355746269,-0.9968855977058411,0.7174460291862488,0.2149156630039215,0.07344119995832443,30.53618049621582,-9.421164512634277,40.28095626831055,0
620,6200083,-0.041377052664756775,0.10841057449579239,-1.0205998420715332,0.34408265352249146,-0.2828095853328705,0.18191514909267426,27.917367935180664,-10.564742088317871,40.03342819213867,0
621,6210227,-0.07259947061538696,0.01624620333313942,-1.0267759561538696,-0.5671171545982361,-0.33551010489463806,0.3216018080711365,30.088911056518555,-9.310587882995605,39.88100051879883,0
622,6220097,0.03038390539586544,0.07340352237224579,-1.0282913446426392,0.8268588781356812,-0.4325283467769623,0.3013787269592285,30.317325592041016,-10.227409362792969,37.56742477416992,0
623,6229908,0.01528137642890215,0.03525393828749657,-1.0172346830368042,0.3136063516139984,0.23578394949436188,0.3642003834247589,30.59811019897461,-9.846534729003906,41.6843147277832,0
624,6239921,-0.04650608077645302,0.013641487807035446,-1.0012266635894775,0.36455902457237244,0.08848612010478973,-0.5360096096992493,30.918731689453125,-12.02397632598877,39.878814697265625,0
625,6250119,0.03031286410987377,-0.07014628499746323,-0.9963899850845337,-0.41528069972991943,-0.1823485791683197,-0.503044068813324,30.222925186157227,-12.05612850189209,40.25385665893555,0
626,6260190,-0.08573123067617416,-0.0014898157678544521,-0.9994786381721497,-0.3646852374076843,0.2523878216743469,-0.34872403740882874,31.002784729003906,-10.701322555541992,40.749881744384766,0
