seq,time_us,ax,ay,az,gx,gy,gz,mx,my,mz,roll_gyro,pitch_gyro,yaw_gyro,roll_cf,pitch_cf,yaw_cf,roll_ekf,pitch_ekf,yaw_ekf,roll_madgwick,pitch_madgwick,yaw_madgwick,roll_mahony,pitch_mahony,yaw_mahony,drop_flag
0,0,0.06801974773406982,0.042852167040109634,-1.0099635124206543,-0.6387242078781128,0.8965638875961304,0.065048448741436,30.692916870117188,-9.104472160339355,40.268856048583984,1.2845757007598877,0.2989253103733063,-0.7351588606834412,0.7845386862754822,0.39496520161628723,0.18393614888191223,-0.4189010560512543,0.7011814117431641,-0.598197877407074,0.26158085465431213,-1.1323028802871704,-1.1653873920440674,-0.28655368089675903,0.028701744973659515,0.8046504259109497,0
1,9731,-0.04006894677877426,-0.017439866438508034,-1.0126980543136597,0.38208550214767456,0.7574479579925537,-0.18788841366767883,30.04110336303711,-10.673327445983887,41.05320739746094,-0.6252145767211914,1.0168473720550537,0.5264809131622314,-1.111156702041626,2.3054540157318115,-1.041877269744873,-1.1609728336334229,0.17961236834526062,-2.3609862327575684,0.3918410539627075,0.2633133828639984,-0.6704406142234802,-0.8724820613861084,0.5493220686912537,-0.593212902545929,0
2,20107,-0.06738067418336868,0.06518116593360901,-1.009405255317688,-0.026958851143717766,0.6591890454292297,0.15444700419902802,30.08153533935547,-11.527844429016113,40.992164611816406,-2.061129093170166,0.3135366439819336,-0.8378158807754517,-1.4080826044082642,-0.5877982378005981,0.8752362728118896,-0.7689612507820129,-0.2512662708759308,0.05013160780072212,-0.5396395325660706,0.28413957357406616,1.0868666172027588,1.3272919654846191,-0.36955195665359497,-1.5972232818603516,0
3,29906,0.056415289640426636,-0.06960365176200867,-1.0014256238937378,-0.1395459771156311,-0.1473204791545868,0.8479953408241272,30.08307456970215,-10.94961929321289,39.110008239746094,-0.31270474195480347,-0.3459833860397339,-0.37509533762931824,-1.0074468851089478,1.6038403511047363,0.5231916308403015,0.6334317922592163,0.019174158573150635,-0.8480386734008789,0.5704773664474487,-0.255292147397995,-1.0352423191070557,-0.07397276163101196,-0.31157344579696655,-1.4003139734268188,0
4,40207,0.04640083760023117,-0.13836124539375305,-0.9881662726402283,-0.7072497010231018,0.054709821939468384,-0.3461214005947113,28.13301658630371,-9.80450439453125,41.131935119628906,-0.36098718643188477,0.27005210518836975,0.4550613760948181,-0.06269052624702454,0.6992877721786499,-0.861682116985321,0.0611700676381588,0.009085358120501041,0.5792706608772278,0.43628445267677307,0.5756451487541199,1.5878477096557617,-0.4482203423976898,0.33248257637023926,1.648376703262329,0
5,49868,-0.008592606522142887,0.028424005955457687,-0.9879246950149536,-0.3741912245750427,-0.20473089814186096,-0.8028618097305298,29.597301483154297,-10.619050979614258,41.079898834228516,-0.021044805645942688,-0.001549930195324123,-0.6287809014320374,-0.47569483518600464,0.752465546131134,-1.2241629362106323,-0.0017387339612469077,1.5169378519058228,0.05691481754183769,0.4809165894985199,-2.1769721508026123,0.47476857900619507,-1.8803423643112183,-1.3947019577026367,0.5387427806854248,0
6,60141,-0.010366047732532024,0.0032809360418468714,-0.9957836270332336,0.3329804837703705,-0.8566082119941711,-0.5792853832244873,29.557600021362305,-9.309735298156738,39.1337776184082,0.6839779019355774,1.9999686479568481,0.3050672113895416,-0.10334843397140503,-0.4462305009365082,-2.5293588638305664,1.7986996173858643,2.300710678100586,0.6157976388931274,0.563347578048706,0.5705689191818237,-0.35798680782318115,-0.5908438563346863,-0.2708818018436432,0.32095590233802795,0
7,70131,-0.0007708737393841147,0.015891078859567642,-0.9913119673728943,-0.25152063369750977,0.9100452661514282,-0.07894878834486008,29.848060607910156,-9.054906845092773,42.69038391113281,-0.7585985064506531,0.4296796917915344,1.185238242149353,0.607305645942688,-1.5058292150497437,-1.1662973165512085,0.03725413605570793,2.6566836833953857,1.6636079549789429,-1.7651495933532715,1.428454875946045,-0.36154869198799133,0.7236674427986145,2.7597248554229736,-1.4779375791549683,0
8,79796,-0.07914161682128906,-0.011318673379719257,-1.006062626838684,0.7199739813804626,-0.3950611650943756,0.47863492369651794,31.20632553100586,-8.713193893432617,41.05772018432617,-0.03966193273663521,1.5759623050689697,0.2035234123468399,-2.6180646419525146,-0.4784877598285675,-0.20253552496433258,1.8744313716888428,1.510430932044983,0.015180418267846107,0.8143087029457092,-0.6820720434188843,0.042399026453495026,-0.004412373062223196,0.021326467394828796,-0.30168816447257996,0
9,89767,-0.05754774063825607,0.012438922189176083,-0.9873529672622681,-0.2773136496543884,-0.1516951322555542,-0.1975504606962204,29.898963928222656,-10.143349647521973,39.0072135925293,-0.28738003969192505,0.9469895362854004,-1.6662193536758423,1.4738162755966187,-1.0127907991409302,-0.09135302156209946,0.476342111825943,1.0713443756103516,-0.4019385874271393,0.5180836915969849,-1.8038005828857422,-0.31519195437431335,-1.2000489234924316,0.33924639225006104,-1.336575984954834,0
10,100014,-0.15342898666858673,-0.03534504398703575,-1.0026708841323853,-0.26648396253585815,-0.21406343579292297,0.3111850619316101,31.073583602905273,-7.683663845062256,40.885948181152344,-1.7357532978057861,0.7580717206001282,1.2327507734298706,-0.08719556033611298,-2.177062511444092,-1.8847562074661255,1.5535399913787842,-0.3478637635707855,2.1368887424468994,-1.5314651727676392,0.6632199883460999,0.51948082447052,-0.8731245398521423,0.6315175294876099,0.7492401003837585,0
11,109852,0.01879437454044819,-0.041931185871362686,-0.9706293344497681,0.4598223865032196,0.3403072655200958,0.2872757911682129,30.150802612304688,-9.150306701660156,41.20479965209961,0.20769204199314117,-0.8798966407775879,-0.6497181057929993,-1.350247859954834,-0.7730209827423096,2.259786367416382,-1.0520108938217163,1.4497371912002563,0.50294029712677,0.4612088203430176,-0.17831118404865265,3.4068195819854736,1.5854731798171997,1.2259310483932495,-0.5543977618217468,0
12,119991,0.0944313034415245,-0.03909575566649437,-0.984921395778656,-0.0760410949587822,0.6746775507926941,-0.5627821683883667,29.403697967529297,-10.014930725097656,40.16725158691406,0.11269015073776245,-0.07659051567316055,0.19211718440055847,-0.5503804683685303,-0.43271133303642273,-2.9317331314086914,-0.4766491949558258,0.346095472574234,-0.7951750159263611,-0.45676735043525696,-0.1169222742319107,0.07736741751432419,0.009006451815366745,0.1300913691520691,-0.5061228275299072,0
13,130051,0.05335061997175217,0.008236811496317387,-1.0198191404342651,0.8901543021202087,0.05999745428562164,0.18162469565868378,30.29990005493164,-10.361969947814941,39.48522186279297,-0.4542052745819092,-0.225791335105896,0.04836035519838333,-1.3414188623428345,-0.24581490457057953,-1.1983654499053955,-0.9758944511413574,1.3331668376922607,-0.9355269074440002,-0.5336481332778931,-0.4064010679721832,0.5188464522361755,-2.2062642574310303,-0.9989411234855652,-0.02200174704194069,0
14,139962,0.005844471976161003,0.02466181293129921,-1.0109505653381348,0.39782100915908813,0.20905660092830658,0.4287071228027344,28.875652313232422,-9.381778717041016,38.8494873046875,-0.08893390744924545,-0.047401659190654755,1.4909120798110962,0.4922942519187927,0.4048270285129547,0.4108154773712158,-0.6088221669197083,1.902929425239563,-0.9792667031288147,1.3984452486038208,-0.7196516990661621,0.7289657592773438,-1.9978433847427368,0.1808493286371231,0.855044960975647,0
15,149831,-0.06381691247224808,0.01844649575650692,-1.0101838111877441,-0.11664069443941116,0.11918878555297852,0.3654514253139496,30.970788955688477,-9.053664207458496,42.95608139038086,-0.12243865430355072,1.4430557489395142,0.33458659052848816,-0.10234983265399933,-0.5764424204826355,1.3739781379699707,2.533306360244751,-0.8593016266822815,-2.060197114944458,0.8517749905586243,-1.015204668045044,-0.5371893048286438,0.09885691106319427,-0.183816060423851,-0.1571623980998993,0
16,159804,0.015588564798235893,-0.04856577515602112,-1.0277833938598633,-0.10196778178215027,-0.18140915036201477,-0.5865066051483154,30.67698097229004,-9.715097427368164,39.5308952331543,-0.7677540183067322,0.7124247550964355,-0.19847746193408966,-1.539726734161377,1.5635818243026733,0.8195822238922119,-0.1663092076778412,-1.7284867763519287,0.9495836496353149,0.0908254012465477,-1.6130948066711426,1.934985876083374,-1.377565622329712,-0.37600934505462646,-1.3406472206115723,0
17,169872,0.021287968382239342,0.08019312471151352,-1.0177708864212036,-0.36643365025520325,0.10046252608299255,-0.25313517451286316,30.08954429626465,-10.261103630065918,39.64723587036133,0.1072615385055542,0.43846604228019714,1.4733726978302002,-0.18488487601280212,-0.6701244711875916,0.5668390393257141,-0.4669840633869171,-0.5856439471244812,-0.18958121538162231,-0.5595085620880127,0.41499653458595276,0.3905503451824188,-0.24745787680149078,0.9830500483512878,-0.9920743703842163,0
18,180111,-0.008471733890473843,0.08213107287883759,-0.9512636065483093,-0.20703792572021484,-0.4719913899898529,0.20413430035114288,30.627466201782227,-7.7941060066223145,40.55780792236328,0.1233905553817749,-0.9032562375068665,-2.7429847717285156,0.15219558775424957,0.31028690934181213,0.4635883569717407,0.6539111733436584,-0.4280319809913635,-0.3176024854183197,0.15604987740516663,1.1631441116333008,-1.6607410907745361,-1.463110327720642,-0.813567578792572,0.3719263970851898,0
19,190128,0.021230701357126236,-0.05929818004369736,-1.018259048461914,0.7624672651290894,0.3891555070877075,-0.4649702310562134,30.544921875,-8.898690223693848,41.30586242675781,-0.736781895160675,-0.7777889966964722,2.419748067855835,-1.1653130054473877,0.2413640022277832,0.2667810320854187,-1.4500863552093506,-1.814060926437378,1.6259859800338745,-0.49402397871017456,-1.5148853063583374,1.6245999336242676,-0.27779388427734375,-0.4857290983200073,2.495587110519409,0
20,199854,-0.024125777184963226,-0.04225480183959007,-1.0257954597473145,0.1369531750679016,-0.552190899848938,0.8655539751052856,30.232545852661133,-8.732620239257812,41.326263427734375,-0.04801272973418236,1.187988042831421,0.019777439534664154,-0.7087299227714539,-0.9567404985427856,-1.2277252674102783,2.6406912803649902,0.12842093408107758,-1.043611764907837,1.0561153888702393,1.5251494646072388,-0.23947744071483612,-2.0016024112701416,-0.3289041519165039,-2.10628080368042,0
21,210018,-0.050077371299266815,-0.02677180804312229,-0.9648195505142212,-0.007705560885369778,-0.06377734243869781,0.08064192533493042,27.963354110717773,-7.665486812591553,38.512413024902344,-1.1780072450637817,-0.7673956751823425,-0.9233299493789673,1.5720702409744263,-0.4782019555568695,1.1337823867797852,-0.7133603096008301,0.38949528336524963,-0.33862611651420593,0.22520029544830322,-0.5619391798973083,-0.758313775062561,-1.693717360496521,-0.5299366116523743,-1.4842133522033691,0
22,219809,0.0502379946410656,-0.09745239466428757,-0.9395188093185425,-0.8644058108329773,0.18710923194885254,-0.12263277918100357,29.416725158691406,-10.105047225952148,39.5120964050293,0.5337649583816528,-1.99346923828125,0.13124869763851166,1.508900761604309,-0.5120755434036255,-0.8256787657737732,0.8126475811004639,1.0102019309997559,-0.12391305714845657,0.10560662299394608,0.8299475908279419,0.2702620029449463,-1.8208643198013306,-1.5401502847671509,0.9570262432098389,0
23,230317,-0.07869217544794083,0.004386886954307556,-0.9852040410041809,-0.8207039833068848,-0.12260640412569046,0.06322785466909409,30.579675674438477,-8.415541648864746,41.848167419433594,0.3956887722015381,0.0526830218732357,-1.457863688468933,-1.200737714767456,0.7717885971069336,0.3145886957645416,-1.0893899202346802,-2.444709300994873,0.25050604343414307,-0.6879552006721497,0.5766301155090332,-0.13003142178058624,-1.003178596496582,-0.2103988379240036,0.5302708745002747,0
24,239869,-0.0015840771375223994,-0.01597074419260025,-0.9831699132919312,0.5465093851089478,-0.5052662491798401,-0.5999739766120911,30.194753646850586,-9.267820358276367,39.885746002197266,-0.22277678549289703,0.8618568778038025,-0.10872329026460648,2.5102686882019043,-1.8176538944244385,-0.31266775727272034,-0.705154299736023,0.2200276106595993,0.37571778893470764,2.699826240539551,-0.715086817741394,-0.6561989188194275,1.2355973720550537,-0.48264750838279724,0.38292092084884644,0
25,250389,0.0387752391397953,0.06339342892169952,-0.9849808216094971,-0.23491215705871582,0.8907126188278198,-0.8995265960693359,31.704622268676758,-9.89551067352295,40.081905364990234,0.41413646936416626,2.05353045463562,0.952285647392273,0.6079549193382263,-0.6510319113731384,0.6173896789550781,0.4536307156085968,0.6677216291427612,0.187105193734169,0.29395636916160583,-0.6262032389640808,0.11068271100521088,2.7419188022613525,-0.5455868244171143,0.3483383059501648,0
26,259774,0.013394283130764961,0.02861705981194973,-1.00241219997406,0.31897029280662537,-1.2628352642059326,0.7013067603111267,27.030054092407227,-9.978350639343262,42.159908294677734,2.10597562789917,0.7782945036888123,-0.7756258845329285,-0.16404986381530762,-0.40015295147895813,-0.3736834228038788,-0.08812523633241653,-0.07166018337011337,0.8877159357070923,1.0543498992919922,0.4705115854740143,-2.009626865386963,1.2994321584701538,-0.3451191782951355,-1.5972484350204468,0
27,269859,-0.015072396956384182,-0.019198065623641014,-1.024519681930542,-0.18108828365802765,0.5774597525596619,0.48214325308799744,30.14406394958496,-11.277246475219727,41.706050872802734,-0.7257086634635925,0.8405777215957642,0.8039182424545288,-0.9690597057342529,-0.5958857536315918,-1.4535143375396729,-0.9744690656661987,1.4010541439056396,0.07165209203958511,0.29476335644721985,1.1380870342254639,1.7303073406219482,-0.6694115996360779,0.6212351322174072,0.35522153973579407,0
28,279895,-0.0010471773566678166,0.022173045203089714,-1.002321481704712,-0.11451470851898193,0.7879841327667236,-0.28802430629730225,30.258275985717773,-7.439697265625,39.201141357421875,0.24501705169677734,0.12368369102478027,-1.2980964183807373,1.2767846584320068,0.7940043807029724,2.0699875354766846,1.193701982498169,-0.6390863060951233,0.21437208354473114,-0.0354592502117157,-1.38680899143219,-0.2872164845466614,0.886433482170105,-0.25840479135513306,0.28671324253082275,0
29,290033,-0.03827044740319252,0.012009217403829098,-1.0059574842453003,-1.3590892553329468,-0.0584091953933239,0.12027821689844131,29.013517379760742,-8.986041069030762,39.55617141723633,0.32332462072372437,0.05507231503725052,-0.35324206948280334,1.5687016248703003,-0.3721511662006378,2.087658166885376,-1.0178786516189575,0.4370376169681549,0.48772528767585754,-1.12885582447052,-0.33768293261528015,1.630346417427063,0.8813689351081848,0.029855875298380852,0.6833980679512024,0
30,299927,-0.046425092965364456,0.11012625694274902,-1.0104950666427612,-0.45395252108573914,-0.23033401370048523,-0.029639003798365593,30.771005630493164,-10.470370292663574,39.637577056884766,0.4969222843647003,-2.328808307647705,-2.055028200149536,-0.5554981827735901,-0.04381710663437843,-0.6299517154693604,0.29465773701667786,0.48667120933532715,-0.6281858086585999,0.30445167422294617,-0.3892013430595398,0.5275447964668274,0.3148357570171356,1.3741315603256226,1.4053504467010498,0
31,310163,-0.021463366225361824,0.018356667831540108,-0.9953770637512207,-0.01569219119846821,-0.2670430839061737,-0.5057459473609924,30.00353240966797,-9.583127975463867,40.72835922241211,-0.9792664647102356,-1.3933526277542114,-0.4648289382457733,0.40415576100349426,-0.7246993780136108,-0.2706894874572754,2.690714120864868,-1.1099392175674438,0.5042697787284851,-1.1452126502990723,-1.1784415245056152,-0.22071003913879395,0.5396955609321594,-0.042781244963407516,2.1386797428131104,0
32,320116,-0.08971703797578812,-0.02347586676478386,-0.9790476560592651,-0.4506290853023529,0.07651223987340927,-0.33096012473106384,27.64303207397461,-8.790756225585938,39.72102737426758,0.23521718382835388,0.24039028584957123,-0.7639861702919006,0.25707417726516724,1.6764073371887207,1.0306847095489502,0.23538488149642944,0.31019434332847595,1.1276642084121704,-1.5329543352127075,-0.7774074673652649,0.5877120494842529,-0.042872000485658646,0.7927514314651489,-1.3799735307693481,0
33,330156,-0.013115777634084225,-0.0362328439950943,-0.9735699892044067,0.5541690587997437,0.12431551516056061,-0.5076577663421631,31.73355484008789,-9.62768268585205,42.27699279785156,-1.4563491344451904,-0.5282818078994751,-0.7335729598999023,0.5220279693603516,-0.14060555398464203,-1.5163815021514893,1.512110710144043,-1.4245197772979736,0.6387848258018494,0.27152061462402344,-0.2355034351348877,-0.6983640789985657,0.1644335240125656,-0.5345722436904907,-0.12741217017173767,0
34,339921,0.03541618585586548,0.09336961805820465,-1.0119906663894653,-0.300392210483551,0.23021794855594635,0.22924697399139404,30.131776809692383,-9.138887405395508,39.2297477722168,-0.5107265114784241,0.9291977286338806,-0.0661918967962265,0.9015511274337769,1.7172836065292358,0.3364277184009552,-1.1187248229980469,-0.070288747549057,0.8939586281776428,0.34223517775535583,0.3024854362010956,1.6090115308761597,-0.18359869718551636,0.5672861337661743,-0.13733738660812378,0
35,350084,0.010413186624646187,0.07039149850606918,-1.0350111722946167,-1.3796896934509277,0.17787067592144012,-0.8393298387527466,29.049606323242188,-9.08721923828125,38.7006721496582,1.2111790180206299,-0.2549307942390442,-0.8910263180732727,-1.882934331893921,2.0575430393218994,1.1594774723052979,0.44383350014686584,0.6550870537757874,0.20341172814369202,-0.8191956877708435,-0.12196150422096252,-0.6755737662315369,-1.1845626831054688,1.927775263786316,-0.5790252089500427,0
36,359951,-0.042024001479148865,-0.07744760811328888,-0.9930137395858765,-0.5221768021583557,-0.950092077255249,-0.6696563363075256,31.09260368347168,-10.224349975585938,38.4298210144043,-0.387105256319046,1.5919499397277832,0.6463122367858887,-0.1549869328737259,0.6385786533355713,0.5179535150527954,1.131026268005371,-1.799292802810669,0.687062680721283,0.052166666835546494,-1.0337660312652588,-0.7974604964256287,0.018598709255456924,0.03495878726243973,0.30334800481796265,0
37,370106,-0.05789301171898842,0.0359082967042923,-1.0210587978363037,-0.8784340023994446,0.892407238483429,0.2184760570526123,31.979291915893555,-10.716928482055664,39.64147186279297,1.0718754529953003,0.023403622210025787,0.2130587100982666,-0.7467644810676575,0.46551135182380676,-0.21642063558101654,0.882672131061554,0.9774225950241089,-1.370836853981018,-0.289342999458313,-0.37487658858299255,0.672088086605072,1.1296073198318481,-1.2434477806091309,-0.5152163505554199,0
38,379967,-0.001356202643364668,-0.03861965239048004,-0.9814724326133728,0.25875869393348694,-0.028906935825943947,-0.14678862690925598,31.215312957763672,-11.198677062988281,39.9464225769043,-2.2348480224609375,0.34800973534584045,0.36713433265686035,2.431823253631592,-0.3708645701408386,-0.8064033389091492,-0.5962554812431335,0.08082262426614761,0.10763554275035858,-0.1222638264298439,-1.104279637336731,-1.1238012313842773,0.5446502566337585,0.21036773920059204,-0.10214363783597946,0
39,389931,-0.03856537863612175,0.004987063817679882,-1.009721040725708,-0.3998280167579651,0.1820695549249649,0.4238736629486084,28.307832717895508,-11.559467315673828,40.84004211425781,-0.8129220008850098,-0.8539103269577026,-1.9087183475494385,0.42723140120506287,1.1496025323867798,1.5768800973892212,-0.10600364953279495,0.9250909686088562,-0.7092373967170715,0.1663532257080078,-0.5034392476081848,-0.4412735402584076,0.13713833689689636,0.7279382944107056,0.10701730102300644,0
40,400009,-0.02392597123980522,-0.021020686253905296,-1.0100821256637573,1.012094259262085,-0.2902955114841461,0.08579767495393753,30.497257232666016,-9.809743881225586,42.057281494140625,0.066621333360672,-0.9858570098876953,0.16803613305091858,-0.7125957012176514,0.5846849679946899,-0.1319374293088913,0.4882553815841675,0.038095101714134216,0.5948695540428162,0.06691453605890274,-0.7319964170455933,0.6259133815765381,0.525539755821228,-0.11040214449167252,-1.1345583200454712,0
41,409902,0.030968206003308296,0.007746335119009018,-1.0145907402038574,-0.7931962013244629,0.20184923708438873,-0.15877407789230347,29.734237670898438,-9.114795684814453,40.67140197753906,-0.30594974756240845,1.2381007671356201,0.42230910062789917,-0.3622168302536011,-0.22970570623874664,-0.46276378631591797,0.6628992557525635,-1.362065076828003,-1.1641385555267334,-1.1446505784988403,-0.022621823474764824,0.5002431869506836,0.12074057757854462,0.32503870129585266,1.170819878578186,0
42,420023,-0.046185124665498734,-0.12557145953178406,-1.045569896697998,-0.0578937903046608,-0.0948915109038353,0.27213799953460693,28.600482940673828,-8.22009563446045,39.82192611694336,-0.7603163719177246,-1.3168420791625977,0.7215418815612793,-0.3912511169910431,1.0897868871688843,0.4429430067539215,0.5706881284713745,2.5346133708953857,-1.0105829238891602,-1.0921984910964966,-0.3182537853717804,1.7714747190475464,-0.12282168120145798,1.2340126037597656,0.09932076930999756,0
43,430075,0.07718813419342041,0.017177512869238853,-0.9780676364898682,-0.4454253315925598,0.05108628422021866,0.345312237739563,28.73986053466797,-10.302909851074219,39.972808837890625,1.0291004180908203,0.840502142906189,0.31782421469688416,0.009137180633842945,0.7809706926345825,-1.2177379131317139,-2.018004894256592,0.0936012864112854,0.342084139585495,-0.13972654938697815,-1.8881500959396362,-1.1370879411697388,-0.7888322472572327,0.9081475138664246,0.7354038953781128,0
44,439687,0.03165263310074806,-0.0012186443200334907,-1.006247878074646,-0.577653706073761,-0.42812564969062805,-0.5313866138458252,29.77396583557129,-10.317496299743652,39.02165985107422,-1.208009958267212,-1.2269130945205688,-0.7956351637840271,0.8037933111190796,0.10540647059679031,0.3134916424751282,-0.10244223475456238,-0.4435945153236389,0.10017083585262299,-1.1437911987304688,-0.476596474647522,-1.5310930013656616,-0.8641272783279419,-0.22333137691020966,-0.6661931276321411,0
45,449911,-0.03822079673409462,-0.012807173654437065,-0.9949884414672852,-0.6232565641403198,0.14653337001800537,-0.29744410514831543,29.514293670654297,-11.509941101074219,40.10010528564453,-1.5293774604797363,1.3092851638793945,0.15941421687602997,-1.215702772140503,-0.5234435200691223,0.7137112617492676,0.34029263257980347,-1.1207371950149536,-0.5385870337486267,-0.7133949398994446,-0.22033721208572388,0.3157554566860199,-0.7205381393432617,0.882042407989502,-0.7979687452316284,0
46,459948,0.02128075435757637,-0.008738008327782154,-0.9777054786682129,0.3791649639606476,-0.5840616822242737,0.13246777653694153,29.63036346435547,-10.67212200164795,40.98011779785156,0.8090371489524841,0.6904506087303162,0.7049417495727539,-1.4486522674560547,1.6568204164505005,-0.35264870524406433,-0.2569972276687622,1.6194437742233276,0.0709603875875473,-1.600077748298645,0.9833333492279053,0.16980738937854767,0.9377838373184204,0.49486708641052246,-0.2249716967344284,0
47,469875,-0.1083398088812828,0.05979394540190697,-0.9971903562545776,0.012966964393854141,-0.37525027990341187,0.7188758850097656,30.4168758392334,-10.395249366760254,40.383270263671875,1.3342646360397339,-0.547106146812439,-1.7851680517196655,1.337514042854309,-0.824866533279419,0.14504028856754303,-0.8627600073814392,-0.06931770592927933,1.3577728271484375,-2.352600574493408,-0.18791954219341278,-1.9146021604537964,0.9806889891624451,1.0086102485656738,0.41477715969085693,0
48,480248,0.03974306210875511,0.0319877564907074,-0.9939801096916199,-0.0970664918422699,0.012324403040111065,-0.2676829695701599,30.045305252075195,-8.92718505859375,40.93510055541992,0.989375650882721,0.38984745740890503,0.8877613544464111,0.923945963382721,-0.6697814464569092,0.4737551808357239,-0.44838210940361023,0.832075834274292,0.07421944290399551,0.9775378704071045,-1.0699563026428223,-0.4660053551197052,1.741520643234253,-0.14507059752941132,0.2390916645526886,0
49,490029,0.07115422189235687,0.1307811439037323,-0.9903128743171692,0.19377022981643677,0.29560786485671997,0.4050457179546356,30.855438232421875,-9.520856857299805,38.75182342529297,2.686936616897583,0.13501831889152527,-0.6898289918899536,0.9621277451515198,-0.33315789699554443,-0.6845564842224121,0.4467424750328064,-3.053727865219116,-1.1480307579040527,-1.5002565383911133,0.5938140153884888,0.7264379858970642,-1.006490707397461,0.8717011213302612,-1.420109510421753,0
50,500071,0.07767794281244278,0.02806541696190834,-0.9930139780044556,-0.3263111710548401,-0.49258846044540405,-0.24995164573192596,30.226884841918945,-9.565422058105469,41.23314666748047,-0.6281461715698242,0.8797404766082764,0.3331703245639801,0.7803664207458496,2.025282621383667,-1.090277910232544,-0.7333362102508545,-0.8509730100631714,-1.5174331665039062,-0.4887118935585022,-0.0904180184006691,-0.03394069895148277,0.1975501924753189,1.6047728061676025,0.742590069770813,0
51,510065,0.04788153991103172,0.032287340611219406,-1.029186487197876,0.07234819233417511,-0.09049911797046661,-1.082268476486206,29.369468688964844,-9.754570007324219,41.26438522338867,1.026610016822815,-0.24980676174163818,-1.260631799697876,0.11889432370662689,-0.5708791613578796,-0.19160805642604828,0.5867295861244202,0.15539032220840454,0.5572108030319214,-0.340274840593338,1.2950830459594727,0.28321748971939087,-0.07493921369314194,-0.16497352719306946,-0.137527197599411,0
52,519991,0.07163049280643463,0.01229562796652317,-1.009130597114563,0.012447360903024673,0.5054847598075867,-0.17944326996803284,30.494741439819336,-9.045654296875,41.761844635009766,-0.7823156714439392,0.16709011793136597,-2.1436240673065186,0.663969874382019,-1.1969013214111328,-1.5660855770111084,-1.2571324110031128,-1.0394965410232544,-0.9635422229766846,1.3331224918365479,-1.1220929622650146,-0.028366973623633385,-0.8434661626815796,2.037177562713623,-1.2946661710739136,0
53,530069,0.027479082345962524,-0.025429047644138336,-1.052625060081482,-0.053372930735349655,-0.7145429253578186,0.616083562374115,31.79985237121582,-9.257545471191406,40.78388595581055,-0.17314735054969788,0.4895046055316925,-1.0865168571472168,0.4548375606536865,0.18293417990207672,-1.5960721969604492,-0.631721019744873,0.7605293989181519,-0.8845947980880737,-0.5730613470077515,1.2518482208251953,-0.01181255653500557,0.3474155366420746,-0.16416670382022858,-1.8314894437789917,0
54,540030,0.07316623628139496,-0.03578541427850723,-0.9717473387718201,0.07657896727323532,0.36789393424987793,0.027214812114834785,30.295469284057617,-8.444816589355469,38.31961441040039,-1.4693464040756226,0.11163962632417679,0.16214725375175476,-0.02738959901034832,0.1758592426776886,-0.6770404577255249,-2.6837801933288574,-0.17738887667655945,-1.284543514251709,-0.6455747485160828,0.12577594816684723,1.4442574977874756,-1.1383723020553589,-1.146563172340393,-1.2720164060592651,0
55,549971,-0.042200967669487,-0.07632243633270264,-1.0166014432907104,-0.06540829688310623,0.07543821632862091,0.48823824524879456,30.764432907104492,-11.566028594970703,40.786441802978516,-1.2417442798614502,-0.40628525614738464,-0.2163895219564438,0.14711280167102814,-0.40567439794540405,-0.8310751914978027,1.0054649114608765,-0.4223443567752838,-0.07571295648813248,0.3442060947418213,1.478011131286621,0.22033154964447021,1.2038874626159668,1.7371217012405396,1.2699825763702393,0
56,560031,0.051119402050971985,-0.07025144249200821,-1.042828917503357,0.9984868764877319,0.2902882397174835,0.10354305803775787,27.398845672607422,-10.601204872131348,41.07738494873047,-0.2089807540178299,-1.5569748878479004,0.6156500577926636,0.01920309104025364,-0.09257229417562485,0.11242681741714478,0.0856938287615776,0.005793693941086531,0.8631128072738647,0.5782459378242493,-0.6897861361503601,3.316150426864624,0.04343776777386665,-0.4106331169605255,0.0987606942653656,0
57,570129,-0.045860014855861664,-0.016599120572209358,-1.0007388591766357,0.9588669538497925,-0.9186559915542603,1.0562303066253662,29.579505920410156,-9.647798538208008,41.25607681274414,-0.4914553761482239,0.9031983613967896,-0.6262995004653931,-1.245471715927124,-0.10232259333133698,-1.3090882301330566,-0.4539230465888977,0.8405219912528992,-0.3020492196083069,-0.5294981598854065,1.2957203388214111,-0.10992754250764847,0.7878425121307373,0.8121934533119202,-0.20623427629470825,0
58,580072,0.020975343883037567,-0.0015864544548094273,-0.9990951418876648,0.578874945640564,-0.5447070598602295,0.23201334476470947,31.005861282348633,-8.252119064331055,41.33846664428711,0.6818594932556152,-1.0230422019958496,-0.043508678674697876,0.19027218222618103,1.0868275165557861,-0.527029275894165,1.0203709602355957,-1.613188624382019,0.16265201568603516,0.9009491205215454,0.515597939491272,1.2152727842330933,0.9505111575126648,-0.5923935174942017,-0.04848357290029526,0
59,589938,0.05457374081015587,-0.013800899498164654,-1.012080430984497,-0.049153074622154236,0.484782874584198,0.7527652978897095,29.679370880126953,-9.612759590148926,39.96202087402344,0.5226362347602844,0.6120960712432861,0.22360719740390778,-0.8082297444343567,0.6226142048835754,2.0335898399353027,-0.6756671667098999,0.21524231135845184,-0.5054740309715271,1.2939633131027222,0.4776778817176819,-1.1947239637374878,-0.03745606169104576,1.3470942974090576,-0.5371938943862915,0
60,599941,-0.06457234174013138,-0.06202379986643791,-1.0232034921646118,-1.0354515314102173,-0.616654098033905,0.32843559980392456,30.503774642944336,-9.294205665588379,41.24549865722656,0.43950319290161133,-0.949670672416687,0.7067859768867493,0.415211021900177,-0.07336188107728958,-1.1632333993911743,1.1506913900375366,0.2976546883583069,-0.42670121788978577,-0.44712311029434204,0.12414935976266861,-0.44115662574768066,-0.3694348931312561,-1.341010332107544,0.861582338809967,0
61,610036,-0.0027571762911975384,0.07346915453672409,-0.9717085361480713,0.3547215461730957,0.3380817174911499,-0.13768215477466583,28.58790397644043,-9.990666389465332,39.63130569458008,-1.0593734979629517,-1.0542585849761963,-1.1393861770629883,0.7446029186248779,0.26477786898612976,-1.4845398664474487,-0.5787912011146545,-0.399882048368454,-1.4812613725662231,0.67887943983078,1.4236249923706055,-0.6834480166435242,-0.09936439245939255,-0.3730964660644531,-0.35666143894195557,0
62,619954,0.07552284747362137,0.015038409270346165,-1.013439416885376,-0.5303453207015991,-0.49828657507896423,0.5779019594192505,29.16131591796875,-7.049829959869385,40.553443908691406,-0.3721559941768646,-0.3826047480106354,-0.5699183940887451,1.3929363489151,1.1186331510543823,0.9577497839927673,-0.7189770340919495,0.38252541422843933,0.3291507661342621,1.8636274337768555,-1.2717132568359375,0.29599353671073914,0.13070961833000183,0.3410508334636688,-0.3491607904434204,0
63,630102,-0.02728596329689026,-0.035940006375312805,-1.0277663469314575,-0.7379559874534607,0.48628056049346924,-0.07765701413154602,31.331253051757812,-9.641581535339355,39.06895446777344,-0.282392293214798,0.8393451571464539,-1.0702580213546753,-0.9676856994628906,0.15530507266521454,-1.9262280464172363,-2.307698965072632,-1.663600206375122,0.18101245164871216,1.6096725463867188,1.5455893278121948,-0.26606622338294983,1.2291799783706665,-0.3583715260028839,0.9624660015106201,0
64,639855,-0.0332658514380455,0.0015975082060322165,-0.9801970720291138,0.4381308853626251,-0.09264366328716278,0.2858034372329712,29.248294830322266,-11.19766902923584,38.520111083984375,-1.3028738498687744,-0.7792233228683472,-0.36964255571365356,-1.252651333808899,0.7200746536254883,-0.014949392527341843,0.2718082368373871,1.0415030717849731,-1.120870590209961,-0.27809110283851624,1.13706636428833,-2.326709032058716,-0.719951331615448,-0.9863395094871521,-0.7085323929786682,0
65,650269,0.07316102832555771,0.04385596886277199,-1.0153266191482544,0.2607925534248352,-0.27563390135765076,0.1318194568157196,30.400678634643555,-9.923145294189453,40.869449615478516,0.22205370664596558,0.053642697632312775,-0.403312623500824,0.64098060131073,1.1122902631759644,-0.7975382208824158,0.8487027883529663,-0.1834273636341095,0.8823830485343933,0.9145350456237793,0.7952773571014404,0.7803776860237122,-1.123810887336731,-0.7784645557403564,1.32645845413208,0
66,659968,0.023564212024211884,-0.02393079735338688,-1.0032663345336914,-0.5965492129325867,-0.5040613412857056,0.4480292797088623,29.515121459960938,-8.08139419555664,38.748783111572266,-1.466828465461731,0.3944266140460968,-1.7007009983062744,-0.33017560839653015,1.3981143236160278,0.42566999793052673,-1.032533049583435,0.0863870307803154,0.8170425891876221,0.28139379620552063,0.2178383320569992,0.38303717970848083,-0.954277515411377,-1.5508419275283813,0.9927515983581543,0
67,669934,-0.026098109781742096,0.045257966965436935,-1.0265134572982788,0.4183848202228546,-0.4221646785736084,0.5131145119667053,29.49106216430664,-10.616450309753418,38.92642593383789,-1.5808775424957275,-0.38452163338661194,-1.1151154041290283,1.1233739852905273,-0.281954288482666,0.5281030535697937,0.20844444632530212,0.5215601921081543,2.3236026763916016,1.5432775020599365,0.4587043523788452,-1.5510693788528442,-1.3881299495697021,0.08156486600637436,0.26679131388664246,0
68,680094,0.08337868750095367,-0.015465851873159409,-1.0070511102676392,-0.22040578722953796,0.060746412724256516,-0.14504298567771912,30.869487762451172,-10.024473190307617,39.365089416503906,1.3348236083984375,0.21397529542446136,0.014662160538136959,-0.45145002007484436,0.5483905076980591,-1.086944341659546,-0.40422552824020386,1.0663598775863647,0.6002839803695679,-0.2011374682188034,-0.2161157876253128,-0.29878976941108704,-3.7157750129699707,0.26064440608024597,-0.12920771539211273,0
69,690115,0.053574271500110626,0.027803009375929832,-0.9947522282600403,-0.7997627258300781,0.794395387172699,-0.32998543977737427,32.93270492553711,-9.815481185913086,39.565574645996094,0.4527546763420105,0.31781092286109924,0.21652807295322418,-1.5275840759277344,1.2482048273086548,-0.10789889097213745,-1.1330690383911133,-0.42121031880378723,-0.5704230070114136,-0.7811915874481201,1.8144954442977905,0.013762838207185268,-0.5644016861915588,0.09421206265687943,-1.1845301389694214,0
70,699777,-0.03675176203250885,-0.010019475594162941,-0.9811501502990723,0.6850663423538208,-0.12551668286323547,-0.501917839050293,30.854196548461914,-10.740004539489746,37.94935607910156,0.5168085694313049,-0.16295480728149414,0.08815626800060272,-0.656989574432373,-2.169113874435425,-0.6787254214286804,1.4358099699020386,-0.3340768814086914,0.317562073469162,0.2832068204879761,0.8063170909881592,-2.2301037311553955,-0.7027512788772583,-1.0525224208831787,1.0001472234725952,0
71,710185,0.01056517381221056,0.03824335336685181,-0.9970486164093018,-0.0739777535200119,-0.32990366220474243,-0.807340145111084,29.73369598388672,-11.394266128540039,37.523643493652344,-0.6405155062675476,0.880338728427887,-0.31450265645980835,0.8739771842956543,1.2789536714553833,2.4679436683654785,0.713438093662262,-1.1750054359436035,-0.7321475744247437,-1.4825303554534912,-1.230241298675537,0.6310203075408936,-0.441859632730484,0.30023854970932007,0.1522001177072525,0
72,720116,-0.011954533867537975,-0.009882907383143902,-1.003707766532898,-0.41258957982063293,-0.592103898525238,-0.14631684124469757,28.45478057861328,-10.179137229919434,39.62746047973633,-0.37900403141975403,0.0022135989274829626,1.4610673189163208,-0.42523935437202454,-0.9037227034568787,-1.5816550254821777,-0.9521012306213379,-0.22918659448623657,0.07038341462612152,0.2622309923171997,-2.284109354019165,-0.8830873966217041,1.9630625247955322,-1.1960786581039429,-0.7701976895332336,0
73,730123,-0.017681429162621498,-0.07074449211359024,-1.003221035003662,-0.17569603025913239,-0.5117717385292053,-0.4531538188457489,32.3503303527832,-10.065853118896484,39.41801071166992,0.022931864485144615,-1.0879571437835693,-0.9745787978172302,-1.0619934797286987,-0.2562773823738098,-1.5980168581008911,2.1306631565093994,0.4487728476524353,-0.26657748222351074,0.2796527147293091,-2.557689666748047,0.4332500994205475,-1.9111707210540771,0.606166422367096,1.0902084112167358,0
74,739717,0.00028359179850667715,0.02746630273759365,-1.0206657648086548,0.6184607744216919,-1.341487169265747,-0.5313034057617188,29.21215057373047,-11.401515007019043,39.370426177978516,0.6658158302307129,0.4026004374027252,-0.08348870277404785,-0.928688645362854,2.0369632244110107,1.4349989891052246,-1.0016382932662964,1.4998987913131714,1.7539701461791992,0.7628974914550781,-0.3801892101764679,-0.22773638367652893,0.8579418659210205,-0.4861700236797333,-0.5618192553520203,0
75,749992,0.13402226567268372,0.13814739882946014,-1.0157195329666138,0.4971592128276825,-0.31267476081848145,0.12617316842079163,30.542192459106445,-11.356759071350098,41.488887786865234,-1.0081182718276978,0.596827507019043,1.4891436100006104,-1.286100149154663,-1.2205158472061157,-0.4286510646343231,-0.9069833755493164,-0.0805000364780426,2.7841646671295166,1.4048959016799927,1.8757750988006592,0.568867564201355,0.15680693089962006,-0.009015526622533798,1.4086318016052246,0
76,759711,-0.0014471343019977212,0.02944384142756462,-0.9996741414070129,0.15366093814373016,-0.7231869697570801,-0.2306060642004013,30.23093605041504,-10.035715103149414,40.305030822753906,0.45787888765335083,-0.42263785004615784,-0.8667001128196716,-0.2697887420654297,-0.6636369824409485,1.5454506874084473,-0.44650185108184814,1.5563117265701294,-0.5866387486457825,1.4257475137710571,1.9623552560806274,0.5054312944412231,1.9253063201904297,0.8913026452064514,1.2901341915130615,0
77,769717,-0.035134367644786835,0.037410687655210495,-0.9768028259277344,-0.15724655985832214,-0.368317186832428,-0.17309382557868958,29.120555877685547,-10.612054824829102,37.22353744506836,0.39498186111450195,-0.10498443990945816,0.37609362602233887,-0.1430705040693283,-1.0510281324386597,-0.568913459777832,-1.2859580516815186,-0.8390588760375977,-1.6635090112686157,-0.824731707572937,-0.9334415793418884,-0.6470556259155273,-0.4450092911720276,0.530306875705719,1.6322314739227295,0
78,779798,0.08075068145990372,0.09565321356058121,-0.9811794757843018,0.5431619882583618,0.5401255488395691,1.508205771446228,30.408109664916992,-10.23746109008789,40.151241302490234,1.6677217483520508,-2.590895414352417,0.48973745107650757,-0.3745851218700409,-0.816236138343811,0.3550342321395874,-0.5780821442604065,-0.42538315057754517,0.28320398926734924,1.253607153892517,0.7176780700683594,1.8766653537750244,-1.1746858358383179,-0.2797519862651825,0.47426795959472656,0
79,790076,0.011784806847572327,0.040926940739154816,-0.9655898213386536,-0.7728935480117798,-0.8473272323608398,-0.6433411836624146,30.301681518554688,-9.108077049255371,39.8836555480957,1.0169004201889038,1.2791727781295776,1.6010253429412842,1.201305866241455,-1.3880791664123535,-1.3493201732635498,1.6341520547866821,0.035822268575429916,0.28975972533226013,-0.543148398399353,1.1953730583190918,0.18672707676887512,0.5812658667564392,0.1366773396730423,-0.417298287153244,0
80,799873,-0.06793589890003204,0.07249294221401215,-0.9748720526695251,0.4822879731655121,-0.6176391243934631,0.46602803468704224,29.462778091430664,-10.034588813781738,38.850284576416016,0.5482086539268494,0.8872460126876831,1.6225287914276123,-0.17116804420948029,1.7464693784713745,0.4649467170238495,-1.3659764528274536,-0.3949579894542694,1.978989601135254,-2.05146861076355,0.08735717087984085,-0.13514511287212372,0.9592701196670532,1.2702018022537231,1.2074806690216064,0
81,809713,-0.03267122060060501,-0.039507314562797546,-1.0404634475708008,0.4498680830001831,-0.2847273647785187,-0.03574337437748909,28.68561363220215,-10.001786231994629,39.3741569519043,1.0325814485549927,0.024393677711486816,0.5669627785682678,0.0002775418688543141,0.05346668139100075,0.7889627814292908,0.6717349290847778,-1.490767002105713,0.5308322906494141,1.022124171257019,-1.0996631383895874,0.501444399356842,1.1909334659576416,-0.563832700252533,-1.3713006973266602,0
82,820045,0.0025185663253068924,-0.05357019975781441,-0.9885716438293457,-0.3480989933013916,-0.8184378147125244,-0.5898975133895874,30.44691276550293,-9.529106140136719,38.91404724121094,1.234086513519287,-0.5916224718093872,1.1342467069625854,-0.38036468625068665,0.2177986353635788,1.5274978876113892,-0.9751949310302734,-0.23756596446037292,-0.8172774910926819,0.9921000599861145,1.37890625,0.3109278082847595,-1.486526608467102,1.6528432369232178,0.17843835055828094,0
83,829972,-0.004493679851293564,0.0022366459015756845,-1.0225549936294556,-0.2954772710800171,0.1640777289867401,-0.7462078928947449,29.98560905456543,-10.787586212158203,39.32279586791992,1.01742684841156,-1.950731873512268,-0.5620851516723633,-1.0380562543869019,1.6885420083999634,0.21245935559272766,-0.6232166886329651,-0.08947610855102539,1.2642486095428467,0.24004106223583221,-0.008542918600142002,-0.34494781494140625,0.8618646860122681,1.03882896900177,0.21474380791187286,0
84,840166,-0.02102840505540371,-0.042068276554346085,-0.9865325689315796,-0.06260152906179428,0.1751929372549057,-0.42652595043182373,30.979164123535156,-8.792182922363281,39.82077407836914,0.5634007453918457,-0.6618888974189758,0.154296413064003,-0.3981707990169525,1.2207900285720825,-2.184702157974243,-0.8681738376617432,-0.7372961044311523,-0.16896666586399078,1.3503601551055908,-0.15944190323352814,-0.44709402322769165,1.0968419313430786,-0.5044568777084351,0.09193644672632217,0
85,850228,-0.05042513087391853,0.0036955762188881636,-0.9948835372924805,-0.5123696327209473,-0.26863187551498413,-0.03310776129364967,30.152061462402344,-10.864908218383789,39.777687072753906,-1.9920639991760254,-0.6972450613975525,-0.031510744243860245,1.0924766063690186,2.237072229385376,0.8424543738365173,-1.157239317893982,-0.09804504364728928,-1.3467731475830078,-1.5648915767669678,2.372202157974243,0.7049228549003601,-0.7805275321006775,-0.9588947892189026,1.4882619380950928,0
86,859900,0.02498481422662735,0.07901016622781754,-0.996634840965271,-0.9204338192939758,-0.5051427483558655,-0.4760078191757202,29.942628860473633,-11.569392204284668,40.14048385620117,-0.8227726817131042,0.5590382814407349,-0.8410298824310303,0.15721608698368073,0.11064781993627548,-0.40397152304649353,-0.3126688301563263,0.6205095648765564,0.9574742317199707,-1.5885740518569946,-1.4650856256484985,0.585553765296936,0.49398618936538696,-0.19605867564678192,-0.1988079696893692,0
87,869953,-0.03732204809784889,-0.008516518399119377,-1.0180246829986572,0.3342205286026001,0.6803256273269653,0.5263819098472595,31.12819480895996,-8.9608736038208,40.26838302612305,-0.15577936172485352,0.3908754885196686,0.061610378324985504,1.0410202741622925,-0.5252876281738281,0.19486616551876068,0.6510611176490784,-2.1236391067504883,-0.5414242148399353,-0.5426181554794312,0.4595907926559448,0.5823991894721985,-0.14427834749221802,-0.740509569644928,1.2153302431106567,0
88,879878,0.016636263579130173,0.008855030871927738,-0.9978645443916321,0.24480508267879486,0.5045211315155029,-0.22820496559143066,29.80719757080078,-11.01832389831543,40.1795539855957,1.991258978843689,1.1089366674423218,0.5992873311042786,1.0545040369033813,-0.924899697303772,0.1854299008846283,0.710125744342804,0.08765827119350433,0.8871110081672668,-0.6539438962936401,-0.42877396941185,0.8928638696670532,-0.9547417759895325,0.15649515390396118,0.7000633478164673,0
89,889581,0.07611806690692902,0.033062078058719635,-0.9771786332130432,-0.5634213089942932,0.45374250411987305,-0.046939197927713394,30.07415771484375,-10.568397521972656,38.49112319946289,-0.0010373916011303663,-0.5922592878341675,-1.5326478481292725,1.050745964050293,0.3142548203468323,-0.35018792748451233,-0.38773804903030396,0.38914918899536133,-1.8117762804031372,0.8577196598052979,0.25641530752182007,-0.48902085423469543,0.824611485004425,-1.2867192029953003,0.6500852108001709,0
90,900034,0.003289028536528349,-0.020931970328092575,-0.9794011116027832,-0.6840617060661316,-0.2345152199268341,-0.3808547854423523,29.950002670288086,-9.294329643249512,40.01719665527344,-0.40722596645355225,0.17135509848594666,0.5003589391708374,-0.07155782729387283,0.43601396679878235,-0.6331160068511963,-0.7115691304206848,-0.3969430923461914,-0.2543714642524719,-0.4013863801956177,-1.266893982887268,-0.5299219489097595,-0.18119293451309204,-1.616240382194519,-0.8065122961997986,0
91,910049,0.04383815824985504,-0.034385524690151215,-0.9503210186958313,-0.36351674795150757,0.12818913161754608,-0.43040403723716736,28.999568939208984,-9.90992546081543,39.76306915283203,-0.4948314130306244,0.27915480732917786,0.14332623779773712,-1.735367774963379,0.38372093439102173,-0.801580011844635,-0.7538287043571472,0.800359308719635,2.4823949337005615,-1.658467411994934,-1.2432961463928223,-0.2675197422504425,0.9765600562095642,0.7994430661201477,-0.3024757206439972,0
92,920082,-0.008704455569386482,0.03741608187556267,-1.0190293788909912,0.042855702340602875,-0.44700345396995544,-0.23166772723197937,30.98971176147461,-11.125579833984375,40.2193717956543,0.7480875849723816,0.35464683175086975,-1.3792674541473389,1.0815809965133667,0.9839159250259399,1.0234953165054321,-0.45098963379859924,-1.1434276103973389,1.4584426879882812,-0.7781211137771606,-1.1053080558776855,-2.538390636444092,0.8689966201782227,1.6081172227859497,1.9957985877990723,0
93,930195,0.049325961619615555,-0.11809981614351273,-1.0055131912231445,-0.2256968468427658,-0.3030213415622711,0.10290497541427612,28.576528549194336,-8.218958854675293,39.38870620727539,0.7828266620635986,-0.8197304606437683,2.296396255493164,0.20961236953735352,-1.0090222358703613,-0.31322693824768066,0.7369672060012817,-1.969772458076477,0.28661346435546875,-1.3278651237487793,0.36919528245925903,1.9091906547546387,-2.144315004348755,0.5632379055023193,-0.023761942982673645,0
94,940180,-0.031174311414361,0.0004652960633393377,-0.9604355692863464,-0.277071475982666,-0.2111896276473999,0.3136904537677765,29.983346939086914,-10.576446533203125,40.10673904418945,-0.3267700672149658,0.9054064154624939,1.4035923480987549,0.11561301350593567,1.2593497037887573,0.30222636461257935,0.2913497984409332,-0.46551868319511414,-0.48231467604637146,3.20513916015625,-0.8397793173789978,0.7327152490615845,0.5278504490852356,-0.9857099652290344,0.05340305715799332,0
95,949917,-0.01597297564148903,-0.0012955518905073404,-0.9986878037452698,0.2611848711967468,0.18553213775157928,-0.48409566283226013,31.019506454467773,-9.114639282226562,40.9845085144043,-0.052511684596538544,-1.3514806032180786,-0.14426200091838837,-1.278520107269287,-1.6975626945495605,-0.8018237948417664,-1.8571046590805054,-1.4369181394577026,-0.16355761885643005,-0.1349780410528183,0.059111203998327255,-0.4286716878414154,0.5494412183761597,0.44958746433258057,0.5615262985229492,0
96,960247,0.007359864190220833,0.01864258386194706,-0.9749462008476257,-0.20914141833782196,0.9740034937858582,-0.5134505033493042,29.873289108276367,-9.007757186889648,41.34672164916992,-0.0004408846434671432,-1.0813202857971191,0.18511982262134552,-1.4220690727233887,-0.1324092447757721,1.006012201309204,1.24759840965271,0.34562692046165466,1.1743574142456055,-1.1731911897659302,-0.15718907117843628,-0.6184609532356262,-0.5734735727310181,-1.634638786315918,-0.671442985534668,0
97,970070,0.004433159250766039,0.04791447892785072,-1.0058903694152832,-0.4868708550930023,0.015112164430320263,0.3355249762535095,28.975072860717773,-9.112008094787598,42.13738250732422,1.0627120733261108,0.3601207435131073,-0.8799764513969421,-0.3970259726047516,-0.04520205408334732,0.6813016533851624,-0.9365699291229248,-0.2531338632106781,1.0935782194137573,-3.1969377994537354,-0.05487880855798721,2.1072704792022705,0.4562119245529175,0.16185389459133148,-0.4045671224594116,0
98,979862,0.00800128374248743,-0.011551025323569775,-0.999458372592926,0.7906346321105957,-0.1782325655221939,0.8672395944595337,29.147172927856445,-9.831033706665039,39.23055648803711,-0.10930630564689636,1.7001869678497314,-0.8982284665107727,-1.4792736768722534,0.4764645993709564,-0.24051916599273682,0.6199119091033936,1.4668458700180054,0.20356224477291107,0.8886555433273315,1.0087751150131226,-0.19565746188163757,1.2289788722991943,0.23772524297237396,1.4080452919006348,0
99,989998,0.020420517772436142,0.00790020078420639,-0.9422498941421509,-0.4749743640422821,-0.2559266984462738,0.49173182249069214,28.659215927124023,-11.2620210647583,39.338985443115234,-1.0054633617401123,0.2690923511981964,0.4679454565048218,-0.10587155073881149,0.9102569222450256,0.6892795562744141,0.26225948333740234,-1.3392317295074463,-0.7358412742614746,0.8196001648902893,0.6189773678779602,0.35555610060691833,-0.4751068949699402,-1.8017514944076538,0.35480883717536926,0
100,999778,-0.00555199570953846,0.04801703989505768,-0.984515368938446,-0.4979041516780853,-0.6333455443382263,-0.37412241101264954,33.10484313964844,-11.95989990234375,38.80357360839844,1.395239233970642,1.2142318487167358,0.16503530740737915,0.44910576939582825,0.8621183633804321,0.9645300507545471,-0.03694083169102669,-1.040846586227417,1.126947045326233,0.14847226440906525,1.5158212184906006,-0.7643052935600281,1.1313291788101196,-0.8986659049987793,-0.4920426607131958,0
101,1010075,0.12463011592626572,-0.12690654397010803,-1.014830231666565,-0.6196287274360657,0.0852636992931366,0.5665621161460876,29.384700775146484,-9.502948760986328,41.26058578491211,-1.8263920545578003,-0.8998725414276123,-1.1712450981140137,0.710382878780365,0.7179005146026611,0.9872153401374817,0.07285094261169434,1.23627769947052,1.411169409751892,0.7671079039573669,1.1168441772460938,1.1057003736495972,-0.7170921564102173,-1.5217094421386719,-0.38279831409454346,0
102,1019613,-0.018640151247382164,0.026903318241238594,-1.0029983520507812,0.7358836531639099,0.6153712868690491,-0.07589775323867798,30.080265045166016,-9.727375030517578,41.29279708862305,1.3206334114074707,1.4042662382125854,0.8496906757354736,1.768652319908142,-0.05029670149087906,-1.1014727354049683,-0.13191421329975128,1.3610436916351318,-0.7063881158828735,1.8949384689331055,0.30268391966819763,-0.1389973759651184,-0.3898955285549164,1.8716648817062378,-1.5134154558181763,0
103,1030165,-0.02370535209774971,-0.006058489438146353,-0.986237645149231,0.034204091876745224,-0.6283414363861084,0.20829029381275177,28.388469696044922,-10.940876007080078,38.56720733642578,0.36616256833076477,-0.9439544081687927,1.6027674674987793,0.19789807498455048,1.0158600807189941,-0.24631531536579132,-0.22809872031211853,0.12122847139835358,-1.2399017810821533,0.007482234854251146,-1.3208457231521606,-1.682654619216919,-0.5809942483901978,-1.135251522064209,-0.4197683036327362,0
104,1040057,0.011481115594506264,-0.01787162385880947,-1.0256179571151733,0.05365603044629097,-0.5362187623977661,1.6624417304992676,29.651769638061523,-10.879447937011719,39.03173065185547,0.42448025941848755,1.530927062034607,0.2179986983537674,-0.25309252738952637,-0.6895672082901001,-0.12760674953460693,1.8244564533233643,1.9356999397277832,-0.3401861786842346,1.0587784051895142,-0.28152763843536377,0.1997704803943634,-2.68998122215271,-1.751429796218872,-0.4442301392555237,0
105,1050057,-0.04263464733958244,-0.006479860749095678,-1.0066677331924438,-0.5627421736717224,0.12526537477970123,0.40719762444496155,31.478160858154297,-7.8221821784973145,39.175331115722656,-1.088921070098877,0.187970370054245,-0.45238786935806274,1.9320470094680786,1.7408257722854614,0.2549774944782257,0.4362143576145172,-1.6667206287384033,-0.6265689730644226,0.13105909526348114,1.5178145170211792,-1.3823223114013672,-1.6911770105361938,0.6169595718383789,0.8890044093132019,0
106,1060049,0.024876736104488373,0.011254766024649143,-0.996370792388916,0.23536217212677002,-0.7769235372543335,-0.4453109800815582,28.81897735595703,-10.029142379760742,39.798885345458984,-0.28752401471138,-0.3935481607913971,-0.3972669243812561,1.660522222518921,-1.5189104080200195,2.0160937309265137,0.15101659297943115,1.601718544960022,0.2698313593864441,0.3340325653553009,-0.1369231939315796,-0.11065613478422165,-1.546526551246643,0.4097324311733246,-1.1351360082626343,0
107,1070073,-0.03718942403793335,-0.058538325130939484,-1.0258350372314453,-0.039370227605104446,-0.3941323459148407,0.6960635185241699,28.695316314697266,-11.463966369628906,40.456199645996094,-0.2834017872810364,-0.9382978677749634,0.12543301284313202,0.09720298647880554,0.7008040547370911,0.4579172730445862,0.02701997384428978,-0.9011885523796082,-0.34580254554748535,-1.1326797008514404,-0.36600589752197266,0.07373886555433273,0.6865434646606445,-2.139909267425537,1.141366958618164,0
108,1080211,-0.04899841174483299,0.10461481660604477,-1.0340368747711182,-0.3339323401451111,0.7861164212226868,0.4680042862892151,30.77215003967285,-8.520293235778809,40.472145080566406,-0.6293812394142151,-2.4920198917388916,-1.007877230644226,0.48845359683036804,0.338220477104187,-0.4661098122596741,0.28778374195098877,0.14729911088943481,-0.5362667441368103,0.9108027219772339,0.27464136481285095,0.41666659712791443,0.6257582902908325,-1.4094048738479614,0.43712931871414185,0
109,1090040,0.03752335533499718,-0.03519618883728981,-1.021255612373352,-0.6718854904174805,0.3696572482585907,-0.018847204744815826,30.46365737915039,-10.42488956451416,40.758880615234375,-0.6861453056335449,-0.644920289516449,-0.49770092964172363,0.638650119304657,-0.6936153769493103,1.162523865699768,0.304270476102829,0.5665489435195923,1.1049988269805908,-0.7638329863548279,-1.3127131462097168,0.3109733760356903,1.172542691230774,0.16240447759628296,-0.11770542711019516,0
110,1099858,0.016295669600367546,0.03925325348973274,-0.9719957709312439,0.40906310081481934,-0.17103645205497742,-0.04547467455267906,30.50385093688965,-10.56104564666748,39.26496887207031,0.7132134437561035,1.1523265838623047,-1.5251033306121826,0.4414728879928589,-0.8663493394851685,-0.7623234391212463,-0.16815587878227234,-0.6329522132873535,2.2022504806518555,-0.8889221549034119,-0.2001745104789734,-1.2416343688964844,-0.8272315859794617,0.6595954895019531,-0.6720249056816101,0
111,1109893,0.026732873171567917,0.04262230172753334,-0.996813952922821,-0.6434370279312134,0.0052339774556458,-0.2543032169342041,30.270370483398438,-9.229242324829102,39.31614303588867,1.1082333326339722,1.3394935131072998,0.9989945888519287,1.6437586545944214,-1.0341346263885498,0.6957801580429077,0.9109249711036682,0.49133387207984924,-0.44867244362831116,-0.6888059377670288,0.5908593535423279,0.9427928924560547,-2.148535966873169,0.12725774943828583,0.5588825345039368,0
112,1120159,0.029274513944983482,-0.02766859158873558,-1.016244649887085,0.4132627546787262,0.35888049006462097,0.3215731680393219,31.295122146606445,-10.511703491210938,39.97627258300781,-0.6495198607444763,0.25749075412750244,0.8758487105369568,-1.1697733402252197,0.3880087435245514,0.2326469123363495,0.716367781162262,0.48156821727752686,-0.33425772190093994,0.8516237735748291,2.4446308612823486,-0.6736509203910828,-0.0937458723783493,-0.2124958634376526,0.47519969940185547,0
113,1129905,-0.013268309645354748,0.05954495817422867,-1.0037912130355835,-0.20524145662784576,1.1102544069290161,-0.7336209416389465,29.069135665893555,-10.769564628601074,38.866973876953125,0.592668354511261,0.43088284134864807,-0.4151221215724945,1.175049901008606,-0.11603798717260361,-1.5295921564102173,0.6266335248947144,0.16208530962467194,-0.19331194460391998,-0.25717398524284363,-0.41984620690345764,0.5018740296363831,-0.7916073203086853,-0.7965880036354065,0.6437657475471497,0
114,1140080,-0.11182379722595215,0.08905310183763504,-0.9606881737709045,-0.8019487857818604,-0.07100434601306915,-0.09473918378353119,31.278709411621094,-9.285921096801758,41.3952522277832,-0.27111297845840454,0.19051828980445862,1.1471534967422485,0.9386150240898132,-1.3954942226409912,0.3361176550388336,-0.575718343257904,0.9388607740402222,-1.5398253202438354,-0.9152782559394836,-0.43910807371139526,0.19246283173561096,-0.5674818754196167,-1.3211629390716553,0.3603575825691223,0
115,1150089,-0.03110606223344803,0.00415785564109683,-1.0073864459991455,0.020351773127913475,-0.1870928406715393,0.11016132682561874,28.752391815185547,-8.309612274169922,39.501556396484375,-0.42734575271606445,0.6633269786834717,0.47767874598503113,0.7144501209259033,0.07407037168741226,0.5167751312255859,-0.2997056841850281,0.6345629692077637,0.8570185899734497,-0.5595751404762268,-1.773108959197998,-0.31690746545791626,0.40752121806144714,1.1650166511535645,1.094115138053894,0
116,1160238,-0.04256924241781235,-0.016192520037293434,-0.9911122918128967,0.23022890090942383,-0.6432521343231201,0.15309856832027435,29.127304077148438,-9.612164497375488,40.45643615722656,0.5848386883735657,-1.1593327522277832,1.3006082773208618,-1.3533337116241455,-0.7344751954078674,1.6612539291381836,-0.2046508938074112,2.0574631690979004,0.327502965927124,1.4580076932907104,-1.022727131843567,-0.6205149292945862,-1.4224947690963745,-0.08697852492332458,-0.6829771995544434,0
117,1170186,-0.027764907106757164,0.03964292258024216,-1.0264368057250977,-0.15242211520671844,0.6613856554031372,0.14963915944099426,29.471521377563477,-11.261085510253906,40.12786102294922,-0.50625079870224,0.612179160118103,1.443097472190857,0.33236590027809143,0.8185682892799377,0.5633713603019714,0.5953888893127441,0.8516700863838196,-0.785574734210968,-2.1009292602539062,-0.6569491028785706,-1.8820608854293823,-1.042958378791809,0.7764222621917725,0.5994372367858887,0
118,1180036,0.040045734494924545,-0.02292715199291706,-0.994575560092926,-0.19889794290065765,-0.38944172859191895,0.11972738802433014,29.190135955810547,-9.002081871032715,38.79429626464844,0.5652327537536621,-0.2723351716995239,-0.06531759351491928,-0.8753542304039001,-2.503025531768799,0.044382721185684204,0.21364860236644745,0.39937952160835266,0.1849394589662552,-1.6041487455368042,0.16210909187793732,2.2347910404205322,0.8897743821144104,-1.2960102558135986,-1.4127626419067383,0
119,1190192,-0.014437978155910969,0.09002766013145447,-0.985895037651062,0.14015118777751923,0.22209541499614716,0.3752090632915497,30.028793334960938,-8.73201847076416,40.83174133300781,0.35663723945617676,-1.3881067037582397,-0.6022186279296875,-0.5038007497787476,-0.5932437181472778,1.3985693454742432,0.41682928800582886,-1.0014406442642212,-1.4034355878829956,-0.9420349597930908,-0.7401089072227478,-0.14487187564373016,-1.494469404220581,-1.6022166013717651,-3.663557529449463,0
120,1200321,-0.09242866933345795,0.02994261495769024,-1.0077656507492065,-0.22472719848155975,1.0854792594909668,-0.3321967124938965,30.4384822845459,-10.595715522766113,40.376949310302734,-0.159739688038826,0.24376505613327026,-0.7231258749961853,-0.4643474519252777,-0.1553219109773636,3.3088245391845703,0.5306519865989685,1.6587963104248047,0.9387575387954712,-1.263848066329956,-0.5179738402366638,-1.1465829610824585,-0.6334030032157898,-0.8590431213378906,0.6251531839370728,0
121,1210084,0.008161893114447594,0.0905066654086113,-1.0049418210983276,0.2919401526451111,-0.8777312636375427,0.41393372416496277,28.614208221435547,-9.99029541015625,40.51455307006836,-0.2934359014034271,-0.3866930305957794,0.29643020033836365,-0.8216598033905029,-1.6290664672851562,-1.7405778169631958,0.2899123728275299,0.09721294790506363,-1.6463369131088257,-0.3939453065395355,0.6443407535552979,-1.126868724822998,0.8937057852745056,-0.4444931745529175,0.21808277070522308,0
122,1219890,-0.047399137169122696,0.006018172949552536,-1.008158564567566,0.2974361479282379,-0.2666098177433014,-0.09099888801574707,30.43543243408203,-11.832232475280762,40.23060989379883,1.4206444025039673,0.04560929164290428,0.09595607221126556,0.008409151807427406,-1.3742903470993042,1.0275678634643555,-0.7771391868591309,0.8443518877029419,1.2315760850906372,1.5456043481826782,0.38449159264564514,-0.3813316524028778,-1.931801438331604,0.16332195699214935,-0.6684525012969971,0
123,1230188,-0.05485381931066513,-0.02355288341641426,-0.9898256659507751,-0.26443368196487427,0.5263951420783997,0.29788938164711,29.24911880493164,-9.703475952148438,39.17107391357422,-0.3375272750854492,-0.2843332886695862,-0.17920200526714325,-0.7649335861206055,-1.448001742362976,-0.43040409684181213,0.32474273443222046,0.2294677048921585,-1.385026216506958,-0.899133563041687,-1.7910510301589966,0.7119029760360718,-0.03914738446474075,0.6054028868675232,-1.8910632133483887,0
124,1240064,0.00223265471868217,-0.04913344606757164,-1.0168572664260864,0.04617205262184143,-0.41303136944770813,0.05315367504954338,29.658309936523438,-10.260642051696777,41.16816711425781,0.4360162615776062,0.6009764671325684,-1.2365585565567017,1.3431452512741089,0.7993347644805908,2.3447892665863037,0.06681142002344131,-0.7326351404190063,-0.21321699023246765,0.37972545623779297,-2.010279417037964,0.37096768617630005,-1.5494729280471802,0.37089186906814575,-0.6799581050872803,0
125,1250027,-0.021766422316432,0.018742995336651802,-1.031602144241333,-0.10206481069326401,-0.40861618518829346,-0.6283789873123169,30.818574905395508,-9.786835670471191,39.28723907470703,-0.15463262796401978,0.3954579830169678,-0.41706451773643494,0.3577119708061218,0.803514838218689,0.5316992402076721,-2.265137195587158,0.18051759898662567,0.029606202617287636,-0.2573425769805908,-0.40894055366516113,-1.6332122087478638,-0.5716930031776428,-1.2575092315673828,1.1868401765823364,0
126,1259623,-0.013074294663965702,-0.027807479724287987,-1.0086662769317627,0.08201047033071518,-1.741142988204956,-0.09920307248830795,31.20577621459961,-11.264887809753418,40.06086349487305,0.22547167539596558,-1.0119270086288452,1.9862383604049683,-0.7306039929389954,0.5389658808708191,1.1938999891281128,-0.8899004459381104,0.4888474941253662,-1.2036164999008179,1.8516749143600464,-3.1948578357696533,0.03660830110311508,0.7404559254646301,0.7979166507720947,-0.2253655195236206,0
127,1270015,-0.035159867256879807,-0.015285219065845013,-0.9954385161399841,0.04010172188282013,0.15445272624492645,0.5758591294288635,28.511581420898438,-9.268589973449707,41.452762603759766,-0.9791659116744995,-0.9684274196624756,0.1773180067539215,-0.6850501894950867,0.6536002159118652,-0.6302050352096558,-0.623601496219635,-0.09907450526952744,2.168114185333252,1.4942296743392944,1.7658478021621704,-0.8524029850959778,-0.6936554908752441,0.015409008599817753,0.7105304598808289,0
128,1280060,-0.034062460064888,0.01293589361011982,-0.9980738759040833,-0.008188271895051003,-0.7933745980262756,0.27276846766471863,30.90890884399414,-10.13293743133545,39.54513168334961,-0.5834553837776184,0.2942672669887543,0.4067288339138031,-0.6756357550621033,0.8046057224273682,-0.46841591596603394,0.998897135257721,1.7612305879592896,1.6157331466674805,-0.1372431516647339,0.9265410900115967,0.2482687383890152,1.4339085817337036,0.31006917357444763,-0.09402845054864883,0
129,1289875,-0.02846820093691349,0.015410794876515865,-1.0140326023101807,0.06486126780509949,-0.6255789399147034,0.5563766360282898,32.27185821533203,-11.245145797729492,40.79991912841797,0.5758126378059387,-0.49074074625968933,-1.444557547569275,0.4734458923339844,1.5452306270599365,-0.14937107264995575,0.33974409103393555,0.5426329970359802,0.10366406291723251,0.02337791956961155,0.18590381741523743,0.4319397807121277,0.710326611995697,0.3372634947299957,-0.6099472045898438,0
130,1299895,-0.07465942203998566,-0.05258186534047127,-1.0357171297073364,0.5867034196853638,0.8360998630523682,0.33444616198539734,30.499418258666992,-10.053064346313477,39.6035270690918,-0.5710955262184143,1.0876163244247437,-0.32201525568962097,-0.3270125687122345,-1.7718777656555176,-0.47974419593811035,-0.03126397728919983,0.1582810878753662,-0.5552745461463928,-0.43780991435050964,-0.8139570355415344,-0.05820539966225624,-1.0262521505355835,1.258444905281067,1.3526989221572876,0
131,1309891,0.013923268765211105,0.036972526460886,-0.99925297498703,-0.32383766770362854,-0.46085378527641296,-0.09519796818494797,30.193864822387695,-10.870227813720703,38.95711135864258,1.0557711124420166,-0.37190166115760803,0.43648138642311096,-0.2264118641614914,0.7964749932289124,1.7389711141586304,-2.1265008449554443,0.39432287216186523,-1.2750840187072754,1.641524076461792,-1.1776567697525024,-0.08854345977306366,-0.4801824390888214,-0.7196313142776489,1.7909294366836548,0
132,1320078,0.006621642969548702,0.002115911338478327,-1.0214879512786865,0.23342525959014893,0.13442814350128174,-0.14543922245502472,29.884519577026367,-10.59462833404541,41.65293502807617,0.2654438614845276,0.5286257266998291,1.5033578872680664,0.2101793736219406,-0.6937647461891174,1.5789151191711426,0.20864011347293854,-0.5341097712516785,-1.2408636808395386,-1.7078531980514526,0.6230776906013489,1.0365656614303589,-1.1657450199127197,0.5060272216796875,0.4942951500415802,0
133,1329957,-0.05690591782331467,0.08697834610939026,-0.9681038856506348,-0.03256921097636223,0.7250329852104187,0.18526732921600342,30.61546516418457,-8.667346954345703,38.894927978515625,0.7623603343963623,1.8826990127563477,0.9676563143730164,-0.7110596895217896,-0.9534363150596619,0.5093460083007812,0.7319542765617371,-0.45428377389907837,0.6506200432777405,1.9926261901855469,-1.907517910003662,-1.6297498941421509,-0.8816738128662109,-0.06892548501491547,-1.5229583978652954,0
134,1340263,-0.03232179209589958,0.12696653604507446,-0.9990641474723816,-0.3696184754371643,0.12831279635429382,0.7486187219619751,28.426776885986328,-12.062362670898438,40.50128936767578,-1.0748133659362793,-0.30648571252822876,-0.7288047075271606,-0.5455689430236816,1.6990200281143188,1.9397108554840088,-1.8791353702545166,-0.5387707352638245,-1.5259116888046265,-0.8711297512054443,-0.8572600483894348,-0.12361109256744385,-0.29816776514053345,0.12007404863834381,0.9724739789962769,0
135,1349916,0.031082559376955032,0.05638287216424942,-1.0173901319503784,0.14776106178760529,-0.2106640338897705,0.8218846321105957,29.641904830932617,-9.47497272491455,41.31780242919922,-0.40739819407463074,0.9697702527046204,-0.4453146159648895,0.05529332906007767,-0.5760566592216492,1.4500234127044678,-0.08548764139413834,0.08811991661787033,0.4644787609577179,1.5185195207595825,-1.1296898126602173,0.4900277853012085,-1.862191081047058,0.10534457862377167,-0.05626039206981659,0
136,1360041,0.030063143000006676,-0.04209691658616066,-1.0079143047332764,-0.35950401425361633,0.2993052303791046,-0.5025568008422852,28.835098266601562,-10.514365196228027,40.74140930175781,-0.515375554561615,-1.9508848190307617,0.2686406373977661,-1.2406681776046753,-0.49238863587379456,0.9631202220916748,-0.6923612952232361,0.21980594098567963,1.7207889556884766,-0.10439912229776382,0.1327657550573349,0.1319289207458496,-0.5561190843582153,0.29655489325523376,-2.031022310256958,0
137,1369854,0.0018854785012081265,-0.06033722683787346,-0.9852762222290039,-0.31529349088668823,-0.27794429659843445,0.40121734142303467,29.1832332611084,-10.382804870605469,39.43040466308594,-0.7955242395401001,1.9804818630218506,-0.778095006942749,1.5224567651748657,-1.99981689453125,0.4146094024181366,0.19002962112426758,0.21515434980392456,-0.74671471118927,0.005663004703819752,1.395850658416748,0.27970439195632935,2.1309688091278076,0.47973668575286865,0.07108987122774124,0
138,1379967,-0.04530609771609306,-0.03207205981016159,-1.0095964670181274,-0.3089185357093811,-0.19114992022514343,-0.4376499354839325,30.399860382080078,-10.668128967285156,39.23573303222656,-0.10194811969995499,-1.4793089628219604,1.1048545837402344,0.1767784208059311,1.4649237394332886,-1.398488163948059,0.13471044600009918,-0.405802845954895,0.9253623485565186,0.1822771579027176,-1.8224047422409058,-0.7241645455360413,1.8464106321334839,0.1712859869003296,1.5997053384780884,0
139,1389945,-0.018047379329800606,0.023574477061629295,-0.9900886416435242,-0.01850220374763012,1.5113904476165771,0.6905317306518555,28.442447662353516,-10.318790435791016,38.66536331176758,-0.1782526820898056,1.0493189096450806,1.0319935083389282,0.4807623624801636,0.040655139833688736,-0.11044856160879135,2.1310956478118896,1.769567608833313,-2.0793471336364746,1.5211241245269775,0.08590210229158401,0.9609746336936951,-0.012216879986226559,-0.1825764775276184,1.7118749618530273,0
140,1399864,-0.016510343179106712,-0.029420319944620132,-1.0192468166351318,-0.34400227665901184,-0.05884706601500511,-0.16403934359550476,29.903854370117188,-11.134367942810059,40.13263702392578,0.010209602303802967,-0.15370798110961914,0.5484695434570312,-0.34737199544906616,-1.965926170349121,0.5522160530090332,-0.682813286781311,-1.6417566537857056,-0.19088609516620636,0.644610583782196,1.9508945941925049,-0.4725371301174164,0.7373195290565491,-0.7239165902137756,-0.7962304949760437,0
141,1409959,0.07945767790079117,0.06182491406798363,-0.9740059971809387,0.22870180010795593,1.3294843435287476,0.2527841627597809,30.530712127685547,-10.447988510131836,38.93666458129883,0.45684197545051575,0.7578595876693726,-0.40985438227653503,0.5997952818870544,-0.2713812291622162,0.9422922730445862,-1.0122531652450562,1.0357496738433838,0.20628494024276733,-0.6422784924507141,-0.40144214034080505,-1.2209646701812744,-0.5616061687469482,0.9821220636367798,1.1636494398117065,0
142,1419698,0.004161938559263945,-0.028250832110643387,-0.9762840270996094,-0.36735090613365173,-1.0037400722503662,0.35117533802986145,29.88723373413086,-10.196784973144531,39.58326721191406,0.5699476599693298,1.269680380821228,-0.03949146345257759,-0.940120279788971,0.19927507638931274,1.3668791055679321,-0.021793853491544724,-0.8955410122871399,-1.0022324323654175,-0.4385834038257599,0.3598034381866455,-0.5127941370010376,-0.2575165629386902,-0.7135886549949646,-0.7149187326431274,0
143,1429973,-0.0028856077697128057,-0.018930865451693535,-0.9851973652839661,-0.5775235295295715,0.33773165941238403,0.20912285149097443,31.195650100708008,-10.457184791564941,40.018856048583984,0.9151900410652161,-0.8046465516090393,0.8543041944503784,-0.7245022058486938,0.2546885907649994,-0.747639000415802,-0.11766417324542999,1.4663668870925903,-1.7954676151275635,-0.2268083095550537,1.8453539609909058,-0.8527436852455139,-1.0572365522384644,-0.43689680099487305,-1.5510882139205933,0
144,1440044,0.010022352449595928,-0.04070655256509781,-1.0053354501724243,0.4969291090965271,0.40473270416259766,-0.1354600042104721,31.081830978393555,-10.644231796264648,39.79133605957031,0.16664943099021912,-0.04113612323999405,-0.17675958573818207,-0.605545163154602,-0.15430937707424164,-0.9214100241661072,1.28369140625,-0.4912530779838562,0.82686847448349,-0.6500374674797058,0.697978675365448,0.9822865128517151,0.4367292821407318,0.060172174125909805,2.2685985565185547,0
145,1449993,0.07872322201728821,-0.06360367685556412,-1.017837405204773,-0.38477832078933716,-0.058037202805280685,0.5423767566680908,29.11925506591797,-10.692543029785156,38.76362991333008,0.5044217705726624,-1.464935064315796,0.36368343234062195,0.23032298684120178,0.26035574078559875,-1.098096251487732,0.498608261346817,1.118725061416626,-1.4122028350830078,-0.3771604001522064,2.122375011444092,-0.6699742674827576,-0.28489115834236145,0.7257006764411926,0.6968263387680054,0
146,1460210,0.024805380031466484,-0.038874801248311996,-1.005229115486145,-0.03398492932319641,0.8153120279312134,0.2821151316165924,31.0869197845459,-10.41732120513916,40.92926025390625,-0.19781848788261414,1.0281728506088257,0.24389924108982086,0.08879414945840836,0.05013810843229294,1.2384930849075317,1.0309727191925049,-0.06706037372350693,2.7704930305480957,-1.6541380882263184,-0.9698450565338135,-0.6323273777961731,0.10048731416463852,0.2037227898836136,-0.8664121627807617,0
147,1469884,0.0806487575173378,0.01607929915189743,-0.9985169768333435,-0.2627285420894623,1.1229820251464844,0.017744237557053566,30.542383193969727,-9.655364036560059,39.63108444213867,-1.879683017730713,2.3776772022247314,2.341111183166504,0.32215631008148193,-0.9009963274002075,2.190591812133789,0.6334792375564575,-0.42006146907806396,0.1312243491411209,-0.23009037971496582,-0.9344725012779236,-0.45459556579589844,-0.5462579727172852,0.9902771711349487,-0.8049777150154114,0
148,1479820,0.06638959795236588,-0.06404165923595428,-0.9974861145019531,0.4185510575771332,0.24690572917461395,-0.04350287467241287,31.208412170410156,-10.118008613586426,39.911399841308594,3.0564420223236084,1.6513290405273438,-0.32021430134773254,-2.4178411960601807,-0.024277416989207268,2.224900245666504,-0.8953036665916443,1.5138826370239258,1.114766001701355,-1.226374864578247,-0.3229793310165405,0.31762638688087463,0.8802348971366882,2.3222274780273438,-0.1424444019794464,0
149,1489891,-0.00609330041334033,-0.006710768211632967,-1.0045595169067383,-0.1412731558084488,-0.14348413050174713,0.032469742000103,29.926986694335938,-10.269250869750977,39.85182571411133,0.07466819137334824,-0.497933566570282,0.6328679919242859,0.6945041418075562,-0.7144298553466797,-0.20578789710998535,0.2769912779331207,-1.428176760673523,0.3937353789806366,-2.1670658588409424,0.996640145778656,1.5053781270980835,-0.7341567873954773,-0.56606125831604,-0.6596052646636963,0
150,1500058,-0.0062820385210216045,-0.04204645752906799,-1.0073013305664062,0.4520018696784973,0.014181525446474552,-0.007896979339420795,29.969266891479492,-9.88652229309082,39.9057731628418,1.9087680578231812,-0.7211228013038635,0.2231488972902298,0.6030309200286865,-0.5756582021713257,-1.3748953342437744,0.6944742202758789,0.8576641082763672,0.7527080178260803,0.9364019632339478,0.766811192035675,0.7455766201019287,-0.3733297884464264,0.08014591038227081,0.589616060256958,0
151,1510290,-0.11398180574178696,0.09374403208494186,-1.0039690732955933,0.9004959464073181,0.8633493781089783,-0.7360564470291138,31.51369285583496,-11.059926986694336,39.583091735839844,0.13089412450790405,-0.6897183656692505,-1.2504758834838867,0.025407619774341583,-0.7159978747367859,0.35126355290412903,-0.04640888422727585,-0.20691391825675964,-0.6761074066162109,0.41082635521888733,-0.8588645458221436,-0.512904703617096,0.30436232686042786,0.0644453912973404,1.0849411487579346,0
152,1519951,-0.016364343464374542,-0.04512246698141098,-1.0017943382263184,0.12111105024814606,-0.20968379080295563,-0.6782163381576538,30.593982696533203,-9.054244995117188,39.24397277832031,0.4069273769855499,0.5610463619232178,-0.9874986410140991,0.38534772396087646,1.619490146636963,-1.1558421850204468,-0.8592192530632019,-1.765295147895813,-0.7898502349853516,-0.7504504323005676,-0.3300395607948303,0.30896395444869995,-0.5081568956375122,-1.122474193572998,-0.7173031568527222,0
153,1529830,0.01800120249390602,-0.026650499552488327,-0.9747065305709839,0.1302172988653183,-0.24712982773780823,0.1749255359172821,30.483211517333984,-11.023221969604492,41.39239501953125,-0.1436474770307541,-0.8066229820251465,-1.2497056722640991,0.51878821849823,-0.950627863407135,0.10811904072761536,1.2006675004959106,0.9581400752067566,1.3605436086654663,0.1135575994849205,-0.7934231162071228,1.7371824979782104,-1.1987147331237793,0.8566272854804993,-0.6538920998573303,0
154,1539841,0.03095511719584465,-0.027281319722533226,-1.046932339668274,0.16498687863349915,0.00924168061465025,0.5389539003372192,28.4947566986084,-10.78637409210205,39.210296630859375,0.5973860621452332,0.8771946430206299,0.24538592994213104,-0.3078466057777405,-0.970937967300415,1.2266755104064941,-2.7142107486724854,-2.0508947372436523,-0.286384254693985,0.10421403497457504,0.3855363428592682,0.21726353466510773,0.9007462859153748,-0.14688657224178314,1.224748134613037,0
155,1549780,0.034657981246709824,-0.021771520376205444,-1.0047328472137451,0.5745026469230652,0.13153617084026337,0.15894022583961487,30.170387268066406,-8.565953254699707,40.6198844909668,0.33956214785575867,0.8950583338737488,0.0531366728246212,-0.8368331789970398,0.5945335626602173,0.2526012361049652,-1.4822121858596802,0.8687127828598022,-0.40198129415512085,-1.345681071281433,-0.1285594254732132,0.10859540849924088,0.820577085018158,0.34957483410835266,-0.20582811534404755,0
156,1560128,0.07574720680713654,0.057077739387750626,-0.983951985836029,-0.26285669207572937,-0.0816723182797432,-0.17216144502162933,28.494998931884766,-9.394464492797852,39.5673942565918,0.0476972721517086,-0.5119379758834839,-1.1699689626693726,-0.25687819719314575,0.004399018362164497,2.8730974197387695,-1.0746763944625854,-0.8150424361228943,-0.9463490843772888,0.2922406792640686,1.1700356006622314,0.6210545897483826,-0.28054073452949524,-1.1482411623001099,-0.23994436860084534,0
157,1570193,0.023510564118623734,0.05273556709289551,-1.0227690935134888,-0.3016323447227478,0.17486336827278137,0.5777729153633118,28.9373779296875,-11.548341751098633,40.121829986572266,-1.037824034690857,-0.2798367440700531,0.09549891948699951,0.8974364995956421,0.4606175422668457,-0.1642225831747055,0.4814237654209137,-0.5730114579200745,1.5829505920410156,1.3555799722671509,0.4789403975009918,1.2055426836013794,-0.25191637873649597,0.5614030957221985,-0.9509103298187256,0
158,1580153,-0.012690001167356968,0.01760147698223591,-0.9888346791267395,0.19580060243606567,0.6238719820976257,0.1771223247051239,30.47799301147461,-9.75351333618164,38.82748031616211,-0.4232920706272125,-1.4286019802093506,-0.3074858784675598,0.14399869740009308,0.6967154741287231,0.5365707278251648,-1.9911247491836548,-0.8540284037590027,-0.01521223783493042,0.5934340953826904,0.6624270677566528,-0.8919098377227783,-0.4891694188117981,0.07266446948051453,0.11446680128574371,0
159,1590137,-0.04536541551351547,-0.12389624118804932,-0.9480085372924805,-0.19957032799720764,-0.5797702074050903,-0.25336331129074097,28.698627471923828,-11.394486427307129,39.39362335205078,1.455522060394287,0.44117942452430725,0.37749749422073364,-1.0327489376068115,1.1269755363464355,-1.813312292098999,-0.31435340642929077,-2.7200820446014404,0.11915522813796997,-0.16696907579898834,0.864342987537384,-0.3695531189441681,0.9730101823806763,-0.3941419720649719,0.08549190312623978,0
160,1599870,0.10906077921390533,-0.07300465553998947,-1.0341733694076538,0.630739152431488,0.863251805305481,-0.3390238285064697,29.29212188720703,-9.960489273071289,39.04579544067383,-3.059363603591919,-1.24422287940979,-1.4072142839431763,-0.5652393698692322,-0.3270260691642761,-0.8963060975074768,1.7142579555511475,0.9672189354896545,2.278055191040039,-0.6268624067306519,-0.271838515996933,-1.2868658304214478,-0.818953275680542,0.7579211592674255,-0.15505194664001465,0
161,1609984,-0.0007714313687756658,0.02683236263692379,-1.0372899770736694,0.2419353723526001,-0.45347166061401367,-0.29168519377708435,30.40207862854004,-9.734369277954102,40.25127029418945,-0.19959968328475952,-0.33183684945106506,1.0594018697738647,-0.6527429223060608,0.4236788749694824,0.5986473560333252,-1.4740121364593506,0.05549396201968193,-0.39220502972602844,1.100616693496704,0.09888852387666702,-1.7402067184448242,-1.0526883602142334,0.04211791604757309,-0.2681960463523865,0
162,1619764,0.027754776179790497,-0.026746336370706558,-1.0015504360198975,0.20545333623886108,-0.33135586977005005,0.5653995275497437,29.085376739501953,-10.067815780639648,40.0265998840332,0.5611410140991211,0.9416596293449402,1.1910523176193237,1.1683651208877563,0.9891700744628906,-0.08137200772762299,-0.814474880695343,-1.2980023622512817,0.9117282629013062,0.5639347434043884,-0.7255139350891113,2.09743070602417,0.31646448373794556,-0.6248735785484314,0.5587942600250244,0
163,1630202,-0.011027666740119457,0.012583158910274506,-0.9980160593986511,0.3362020254135132,0.07528022676706314,0.2398897409439087,29.906984329223633,-9.945967674255371,39.354923248291016,-0.6880360245704651,-1.3181127309799194,-0.34412696957588196,-0.582489550113678,1.5437545776367188,-0.76462721824646,-0.8628544211387634,-1.0550189018249512,-0.777676522731781,-0.15307582914829254,0.13194496929645538,-0.7994484305381775,0.07740361988544464,-1.7477362155914307,-1.426112413406372,0
164,1639824,0.0924697294831276,0.05697215721011162,-1.0027599334716797,-0.021802879869937897,-0.7890467047691345,0.67840176820755,30.71831512451172,-9.958585739135742,39.931610107421875,0.814098596572876,-0.6316079497337341,0.39809903502464294,-0.34669941663742065,0.7300567030906677,0.9487850069999695,0.03808358684182167,-0.22910258173942566,0.5082780122756958,-0.22699236869812012,0.03764968737959862,0.8631930947303772,1.1707266569137573,-1.4110251665115356,0.3508014976978302,0
165,1649885,-0.031331147998571396,0.02228807471692562,-0.9644685387611389,-0.48643583059310913,-0.5725358724594116,0.2992616295814514,29.946395874023438,-9.531907081604004,41.0437126159668,-1.6342822313308716,-0.0004729870124720037,1.180376648902893,-0.2069064974784851,0.9588618874549866,-0.8430687785148621,-1.2962137460708618,0.3508980870246887,-0.7567328810691833,-0.2687051594257355,2.851766586303711,-1.9664913415908813,0.4598749876022339,-0.20336170494556427,-0.10871933400630951,0
166,1660172,-0.05582717806100845,-0.001644486328586936,-0.9980575442314148,-0.6683435440063477,0.3561970591545105,0.46221214532852173,28.906085968017578,-8.402203559875488,40.51042556762695,0.8112561106681824,-0.0890703946352005,0.007041580509394407,0.8552619814872742,1.3187893629074097,-0.4257888197898865,0.04444867745041847,1.8057070970535278,0.33065956830978394,-0.4105280637741089,-1.125393271446228,1.3181126117706299,1.176293969154358,0.7093599438667297,0.4133068323135376,0
167,1669969,0.023157188668847084,-0.004569798242300749,-1.0068594217300415,-0.8207083940505981,-0.8052359223365784,0.5176747441291809,27.895137786865234,-11.35342788696289,40.98757553100586,0.7482326030731201,-0.6408920288085938,1.5599193572998047,-0.5570629239082336,-0.20190396904945374,1.016541838645935,2.8185460567474365,1.3208867311477661,-0.7918452620506287,1.0076706409454346,-0.7297030687332153,1.1229554414749146,-1.0560507774353027,1.1016665697097778,-2.822209119796753,0
168,1680053,0.01039666123688221,-0.0016394469421356916,-0.9682906866073608,-0.14341874420642853,-0.06395064294338226,-0.5620682835578918,31.684070587158203,-9.585631370544434,39.51068115234375,-0.38304874300956726,-0.15318122506141663,1.1898512840270996,0.9324689507484436,-1.1969010829925537,0.48177093267440796,-0.21392151713371277,-0.8005980849266052,-0.6039038300514221,0.46461185812950134,-1.5368708372116089,1.460903286933899,-1.3599027395248413,0.9627694487571716,-0.629374086856842,0
169,1690026,-0.06255808472633362,0.033660825341939926,-0.9846580624580383,0.17445732653141022,-0.18274176120758057,0.7143790125846863,29.556123733520508,-9.170799255371094,37.917625427246094,-0.20673371851444244,1.0477900505065918,0.7259130477905273,-1.2242642641067505,0.968430757522583,1.67600679397583,0.5827900767326355,-0.17150382697582245,1.1864523887634277,-1.0212844610214233,0.5721591114997864,-0.5250887870788574,0.5515822172164917,2.102816104888916,-1.0604705810546875,0
170,1699781,-0.022808006033301353,0.033260807394981384,-0.975153386592865,-0.30973726511001587,0.5012440085411072,-0.7187848687171936,30.0858154296875,-11.823127746582031,40.36063766479492,-0.4492272138595581,-2.426532506942749,-1.0409330129623413,-1.2878613471984863,2.3440940380096436,0.587094783782959,0.7014505863189697,-0.11789798736572266,0.45421960949897766,-1.2569465637207031,0.9069527387619019,-2.8690385818481445,0.6844757199287415,0.3267664611339569,-1.062156319618225,0
171,1710253,-0.10500219464302063,0.006020780187100172,-1.0007174015045166,-0.057915277779102325,0.18850177526474,0.7991795539855957,29.784191131591797,-9.98252010345459,41.069786071777344,1.0122110843658447,0.42394185066223145,0.28442004323005676,1.1218329668045044,-0.805797278881073,-0.1478235125541687,0.8977825045585632,1.067319393157959,0.9077730178833008,0.3935396075248718,1.1495050191879272,0.009967390447854996,0.719272792339325,1.2892733812332153,0.6883788704872131,0
172,1719755,-0.034007780253887177,-0.014513658359646797,-0.9910604953765869,0.5463310480117798,-0.038602735847234726,0.1534142643213272,30.759353637695312,-9.49717903137207,38.609840393066406,0.34532034397125244,0.19897787272930145,2.0222561359405518,0.06055232509970665,-0.5493764281272888,-0.5007581114768982,0.378225177526474,0.489810973405838,-1.4294005632400513,0.03310776874423027,-0.7458567023277283,-0.4811732769012451,-1.7983843088150024,0.28552961349487305,1.6113483905792236,0
173,1729921,0.014392385259270668,-0.035940371453762054,-1.0179575681686401,0.2797214984893799,0.5445833206176758,0.28436383605003357,31.712331771850586,-10.335116386413574,40.211856842041016,-1.579065203666687,-0.32567113637924194,-0.43092477321624756,1.2864909172058105,1.2122524976730347,1.3924885988235474,0.12134914845228195,0.11410360783338547,-1.2348018884658813,1.5045948028564453,0.33778995275497437,-1.5245261192321777,1.1718164682388306,1.0790435075759888,0.8181273341178894,0
174,1739884,-0.03233839571475983,-0.018144244328141212,-1.021468997001648,-0.5063472390174866,0.37438467144966125,0.5339364409446716,29.970327377319336,-10.864982604980469,39.8570556640625,-0.22554495930671692,-0.5741156339645386,0.5734525322914124,0.33836594223976135,1.3179097175598145,-1.0758172273635864,-0.5495474338531494,0.5050761103630066,0.47694477438926697,-0.9360961318016052,-0.3297841250896454,1.284625768661499,-1.64773690700531,-1.354997992515564,-0.3678888976573944,0
175,1750003,-0.02253720536828041,-0.014549759216606617,-1.0052467584609985,-0.19274498522281647,-0.23585709929466248,0.009107901714742184,29.117111206054688,-10.027688980102539,38.21866226196289,0.033460259437561035,0.4296150505542755,1.3984276056289673,-0.31302136182785034,0.9902890920639038,1.2385478019714355,-0.7799904346466064,-0.031363461166620255,0.45308664441108704,0.3286420702934265,-0.38441669940948486,-0.47913286089897156,0.7007148861885071,0.3403513729572296,0.6466266512870789,0
176,1759884,0.05239095538854599,-0.03863223269581795,-0.9740108847618103,0.6688443422317505,0.8393407464027405,0.9163537621498108,30.155851364135742,-7.869294166564941,40.99549865722656,-0.4451589286327362,-0.26380375027656555,-0.9977338910102844,-1.0511459112167358,1.1095272302627563,0.36740419268608093,-0.43631118535995483,-0.5042805671691895,0.7455881834030151,0.8188396692276001,-1.730762004852295,0.818001389503479,-1.0515151023864746,-0.48343992233276367,0.714632511138916,0
177,1770036,0.08914616703987122,0.024998335167765617,-1.0237325429916382,-0.47168463468551636,-0.023964397609233856,-0.24901604652404785,30.08578872680664,-8.55428695678711,40.42675018310547,-0.5506400465965271,0.1720467209815979,1.1923882961273193,-1.0113903284072876,-1.0313408374786377,-0.037996407598257065,-1.9137204885482788,0.9007942080497742,0.9109543561935425,-3.7188169956207275,0.2618115544319153,-0.4095180034637451,-1.3913123607635498,-0.8781401515007019,0.2260141372680664,0
178,1780044,0.01005648821592331,0.051362544298172,-1.004717469215393,0.314820796251297,0.13397300243377686,-0.33258163928985596,30.882312774658203,-10.79049301147461,39.42544937133789,-0.631861686706543,0.9098050594329834,-0.8457028269767761,0.3107665181159973,1.886170744895935,-0.02667572908103466,0.24160420894622803,0.052287012338638306,0.2674641013145447,-0.04312949627637863,0.24092546105384827,-0.4666111469268799,1.8579407930374146,-0.8853875994682312,-2.6246824264526367,0
179,1789975,0.0012068693758919835,-0.033873166888952255,-1.0471876859664917,0.35156911611557007,0.04671496897935867,0.35672202706336975,29.09351348876953,-8.910892486572266,40.24494552612305,-0.7659751772880554,-0.6158444881439209,0.9135614037513733,-1.1628328561782837,-0.4645650386810303,0.012816185131669044,0.08583589643239975,1.7091037034988403,-0.7545022964477539,-1.8492662906646729,-1.4042881727218628,-0.8258127570152283,0.47781845927238464,-0.47511813044548035,1.1135199069976807,0
180,1800016,-0.011714986525475979,-0.09749247133731842,-1.005567193031311,-0.5985077023506165,-0.3409039378166199,-0.15199097990989685,28.705183029174805,-7.98911714553833,39.78777313232422,1.7654434442520142,0.6316638588905334,-0.7730581164360046,1.102515459060669,0.08335050195455551,1.1707206964492798,-0.267456591129303,0.9071641564369202,2.7144899368286133,-1.1118073463439941,0.38202589750289917,0.7446426153182983,1.7775696516036987,-1.0233428478240967,0.24577213823795319,0
181,1810124,-0.013966798782348633,-0.022825978696346283,-1.004576563835144,0.342666894197464,-0.6643185615539551,-0.6061469912528992,30.24852180480957,-8.698246002197266,39.82926940917969,-0.585273802280426,-0.7291626334190369,-0.29489389061927795,-2.94401216506958,0.8383331298828125,1.6843074560165405,-0.5173723101615906,2.0193324089050293,-0.12412434816360474,0.20420312881469727,-0.7397388219833374,2.8273637294769287,-0.06428015977144241,-1.325688362121582,-0.30223163962364197,0
182,1820021,-0.021239478141069412,-0.029891062527894974,-1.0212531089782715,-0.3932904005050659,0.3646148145198822,-0.2709682881832123,27.476070404052734,-9.744776725769043,39.920509338378906,0.8764214515686035,-1.1647026538848877,0.006284818984568119,0.9980836510658264,1.3336081504821777,-0.40654292702674866,-0.7840260863304138,0.21631065011024475,-0.4067365825176239,-0.3063589930534363,1.2662616968154907,0.09828118234872818,0.9239524006843567,0.784550130367279,2.826489210128784,0
183,1829937,0.10705376416444778,0.06335702538490295,-1.027766227722168,0.1732446849346161,-0.04536985233426094,0.5040722489356995,29.5217342376709,-8.375429153442383,38.53355407714844,1.374230980873108,-0.4296109974384308,-0.8906692266464233,0.7964944839477539,-2.107511520385742,-1.6861556768417358,-2.0238702297210693,-0.2684567868709564,-0.7327020168304443,-1.7051787376403809,-0.9854903221130371,0.03742937371134758,-0.6700611710548401,-1.1692935228347778,-0.7258336544036865,0
184,1839963,0.053165704011917114,0.015950027853250504,-1.0351074934005737,1.042019248008728,0.2897985279560089,0.4061516523361206,30.609092712402344,-11.527673721313477,39.67547607421875,1.8603718280792236,-2.2020156383514404,-0.011651838198304176,-0.9487301111221313,-0.45564186573028564,-0.44157272577285767,-0.5747827291488647,-1.3303377628326416,-1.318703532218933,1.1979955434799194,1.3141496181488037,1.411529302597046,-0.5235881805419922,-1.1037306785583496,-0.47037211060523987,0
185,1850267,-0.028249040246009827,-0.017013974487781525,-1.0255166292190552,-0.5109342932701111,-0.13375408947467804,-0.2452263981103897,31.048826217651367,-10.078719139099121,39.00741958618164,-1.3337196111679077,-0.6117721796035767,0.5207660794258118,1.3037145137786865,0.9206996560096741,-0.0569024421274662,-3.0237016677856445,-0.8304464817047119,0.6209626793861389,0.7714956402778625,-0.20240221917629242,0.5573359131813049,-0.5240708589553833,-2.699636936187744,-1.5098628997802734,0
186,1859705,0.016039466485381126,0.0385771170258522,-1.0280957221984863,0.06745781004428864,0.4787164330482483,-0.2457699328660965,30.39337921142578,-10.806885719299316,41.91447067260742,1.004060983657837,-0.014380800537765026,-0.8434714078903198,-2.66916823387146,0.8611223101615906,-0.04337190464138985,2.1627230644226074,-0.3410256505012512,-0.30185601115226746,-0.11556604504585266,1.85602867603302,-0.06286433339118958,-0.9575443267822266,0.821032702922821,-0.019322119653224945,0
187,1870240,-0.021489517763257027,0.021021820604801178,-0.9906795024871826,0.05136481672525406,0.6537978649139404,0.11241623759269714,31.778837203979492,-9.894083023071289,42.20443344116211,-0.7402628660202026,-0.42852672934532166,-0.879310131072998,-0.43955233693122864,-0.5340803861618042,-0.8366944789886475,0.9045977592468262,0.5458157062530518,0.9786860942840576,1.4650415182113647,-0.9614698886871338,-0.20139098167419434,-0.8709473013877869,-0.1632089763879776,0.5268284678459167,0
188,1880194,0.03459886461496353,0.049038805067539215,-0.9837055206298828,0.08584055304527283,0.5294349193572998,0.07980232685804367,29.471216201782227,-8.616949081420898,38.65571594238281,0.4542247951030731,1.7563633918762207,-0.17949151992797852,1.4131335020065308,-0.2548718750476837,-0.3315189778804779,0.7677897214889526,1.4997798204421997,0.059651654213666916,1.3109475374221802,2.173171281814575,0.8683149218559265,-0.11716639250516891,-0.33364734053611755,1.5735223293304443,0
189,1889829,-0.0034597921185195446,0.007533831521868706,-0.9868888854980469,0.1764407902956009,0.42664989829063416,-0.010060269385576248,30.381271362304688,-9.400729179382324,39.93328857421875,0.32273221015930176,-0.4146970212459564,-0.34091198444366455,-1.1538642644882202,-0.03096047043800354,0.6682312488555908,0.8737563490867615,-1.5121740102767944,-1.8144181966781616,1.4284193515777588,-0.39328911900520325,0.38110876083374023,-0.4671002924442291,2.1681039333343506,-0.5731619596481323,0
190,1899920,0.07571220397949219,0.05979689583182335,-0.9984034299850464,0.3005061447620392,0.9098988175392151,0.43339720368385315,30.354467391967773,-8.732120513916016,39.74539566040039,0.7060783505439758,1.3137595653533936,1.3076245784759521,-0.4713289439678192,-2.340651750564575,-0.8358620405197144,0.49646076560020447,0.5667890310287476,0.7409681081771851,-0.5782449841499329,0.633843183517456,0.38402673602104187,0.8838840126991272,-0.07179924845695496,-0.7828656435012817,0
191,1909861,-0.003201594576239586,-0.053049419075250626,-1.0505321025848389,-0.4298224449157715,0.7524781823158264,0.27022895216941833,28.76225471496582,-10.329229354858398,39.4111442565918,0.24969051778316498,1.052195429801941,0.5260031819343567,-0.5775939226150513,-0.013215991668403149,-0.34620171785354614,-1.442102074623108,0.24831175804138184,-0.639491081237793,-1.5301616191864014,-1.9165480136871338,-1.966346263885498,-1.7305421829223633,-1.7387890815734863,1.2384953498840332,0
192,1920338,0.05760779231786728,-0.016948983073234558,-1.0013890266418457,-0.6281754970550537,0.38828742504119873,-0.34742164611816406,29.983196258544922,-12.281105041503906,41.625633239746094,1.9228683710098267,-0.577542245388031,-1.6854993104934692,-0.6651667952537537,-0.6273186802864075,-1.002758502960205,-0.002819341141730547,0.6264768242835999,-0.39221540093421936,-0.2806044816970825,1.0208611488342285,-0.49190670251846313,-0.21407532691955566,1.3400914669036865,-0.32346171140670776,0
193,1930334,-0.0008896828512661159,-0.0015835001831874251,-1.0189427137374878,-0.3138382136821747,-0.1456824392080307,0.5430842638015747,28.748863220214844,-10.255208969116211,40.015262603759766,1.3292630910873413,-0.996871292591095,-0.11871495097875595,2.1492040157318115,0.92340087890625,-1.3390090465545654,-0.035963647067546844,0.6095184683799744,0.4800061285495758,-1.2292118072509766,0.8607271313667297,1.5281907320022583,0.3698442280292511,-0.5738040208816528,1.3451647758483887,0
194,1940051,0.06522899866104126,-0.05159587413072586,-1.0248794555664062,-0.5042656660079956,-0.8983317613601685,-0.3377271890640259,30.215486526489258,-10.269561767578125,38.760440826416016,-0.20468395948410034,0.6864607334136963,0.2245817929506302,0.5385643243789673,0.8833001255989075,-0.7969111204147339,0.31076136231422424,0.053386591374874115,0.11407200247049332,-1.1986483335494995,0.580278754234314,-1.0923806428909302,0.7586789727210999,0.4616447389125824,-0.725705623626709,0
195,1950035,0.025277597829699516,-0.16134262084960938,-0.9893884062767029,0.2146093249320984,0.21431587636470795,-0.7009517550468445,28.627334594726562,-8.943760871887207,40.663124084472656,0.12848994135856628,-0.28041207790374756,-0.6940882205963135,-1.2525607347488403,0.18626970052719116,0.871713399887085,-1.4315547943115234,0.20529916882514954,-0.23958513140678406,1.4990590810775757,-0.1101059541106224,0.7690107226371765,-1.0785006284713745,-0.31686320900917053,1.100243330001831,0
196,1960141,0.06444099545478821,-0.05997404456138611,-1.026302456855774,-0.696074366569519,-0.43454188108444214,0.45949944853782654,28.697582244873047,-9.608641624450684,39.963565826416016,1.065951943397522,0.09127122163772583,0.1335313469171524,-1.0239092111587524,-0.32402095198631287,-0.12279634922742844,1.4210448265075684,-1.6017498970031738,-0.770847737789154,0.3808571994304657,0.4711381494998932,0.07795313745737076,0.03131241351366043,0.6971984505653381,0.7793752551078796,0
197,1970147,-0.012541642412543297,0.009335760027170181,-0.9794325828552246,-0.11060027033090591,-0.6786817312240601,0.3118974268436432,28.89654541015625,-9.976874351501465,40.02661895751953,-0.5846384167671204,-0.39318016171455383,-1.8286430835723877,0.5336101055145264,2.29671573638916,0.22290173172950745,-0.3883987367153168,1.2606948614120483,0.037324730306863785,-0.5520065426826477,-0.6085717678070068,0.57672119140625,-1.6957600116729736,0.7228342890739441,0.5603106021881104,0
198,1980003,0.004636552184820175,0.05191614478826523,-1.037345290184021,0.2945254147052765,-0.482909619808197,0.777040421962738,32.2075080871582,-10.329170227050781,41.021385192871094,-0.4802296757698059,-0.4582750201225281,-0.9384772181510925,-1.2320212125778198,-0.8388096690177917,2.4825587272644043,0.20951122045516968,0.06927178800106049,0.7423716187477112,-0.20705831050872803,-1.0324736833572388,-2.1930248737335205,-1.4526914358139038,0.4308513104915619,0.32335203886032104,0
199,1989986,0.03417046740651131,-0.02516699582338333,-1.009401798248291,-0.39286190271377563,0.4011889100074768,-0.01086058933287859,28.88935089111328,-9.381280899047852,41.141502380371094,0.06474378705024719,-0.6592921614646912,0.9836652278900146,-0.6873883008956909,1.2285218238830566,-0.29224324226379395,-0.21450765430927277,-0.14735117554664612,0.1796395629644394,0.3632037043571472,0.6280991435050964,2.047713041305542,1.475479006767273,-2.4878618717193604,0.1460435688495636,0
200,2000099,0.022514957934617996,0.022706590592861176,-0.9825718998908997,1.2510591745376587,0.1945875883102417,0.34973594546318054,30.428176879882812,-9.164676666259766,40.38701629638672,0.8100441694259644,0.8738042116165161,1.0496141910552979,0.05443962290883064,-0.37156206369400024,-1.027328372001648,-0.19808772206306458,0.08144330978393555,-2.041234254837036,-1.6889208555221558,0.9168722629547119,0.34062451124191284,-2.5490915775299072,0.5536227822303772,2.265184164047241,0
201,2010129,-0.046041086316108704,0.0021120833698660135,-1.0231916904449463,0.4263243079185486,0.4543897807598114,-0.11118097603321075,30.455366134643555,-11.2085542678833,40.90102005004883,-1.2067865133285522,0.17405866086483002,-0.7171374559402466,0.212900772690773,0.28044864535331726,-1.8844603300094604,-0.09887633472681046,0.9906402230262756,0.3129179775714874,-1.486655592918396,1.3639509677886963,-0.14987625181674957,-0.8072249293327332,1.4057655334472656,-0.38799211382865906,0
202,2020031,-0.046160679310560226,0.034650642424821854,-0.9959652423858643,-0.13088001310825348,0.2193782776594162,-0.30235955119132996,28.35613441467285,-9.501448631286621,41.00354766845703,1.1344122886657715,-1.9979242086410522,-0.012980085797607899,-1.7835414409637451,1.6056681871414185,0.560576319694519,-0.1582021564245224,-0.48843616247177124,1.2650030851364136,0.7084716558456421,-0.9369570016860962,1.808725118637085,1.3070882558822632,-1.385046362876892,1.174034595489502,0
203,2029924,0.03145170584321022,0.03472219407558441,-1.035404086112976,-0.4849291145801544,0.8239622712135315,-0.25766387581825256,29.532978057861328,-9.073027610778809,40.715599060058594,0.03317355737090111,-0.5369143486022949,-0.32048243284225464,-0.9105199575424194,-0.8908997178077698,1.2702158689498901,1.947762370109558,-0.09362730383872986,0.5531383156776428,-0.5477709174156189,-0.08178170770406723,-0.39696961641311646,1.630632758140564,-0.028448697179555893,0.8370246291160583,0
204,2039695,-0.051938507705926895,0.04540680721402168,-0.9919213056564331,-0.4900030195713043,0.27262571454048157,-0.34121406078338623,29.493703842163086,-9.076661109924316,38.777652740478516,-0.3689538538455963,-1.1543707847595215,-0.2762540876865387,-1.2394508123397827,-0.7382903695106506,-0.17140929400920868,0.6734628677368164,-0.4747888445854187,2.0901706218719482,0.7049000859260559,-1.257149577140808,0.8053075075149536,-0.15620176494121552,-1.4146991968154907,-0.3381634056568146,0
205,2050195,-0.013642629608511925,-0.01662593148648739,-1.0297746658325195,-0.4889333248138428,0.4748916029930115,-0.7438253164291382,29.8610782623291,-10.418733596801758,39.39396286010742,-2.2349135875701904,-1.5482313632965088,0.6815302968025208,0.46297577023506165,-1.3618236780166626,1.5038607120513916,0.3589884638786316,-1.289244294166565,0.7368816137313843,-0.12987229228019714,-0.08407305926084518,-3.140596866607666,0.03491159901022911,-0.36414146423339844,0.7211183905601501,0
206,2059983,0.025794558227062225,-0.049023788422346115,-1.0305821895599365,-0.220499649643898,-0.04946315661072731,-0.23419906198978424,31.357463836669922,-10.38288402557373,40.21162414550781,-0.5115734934806824,-0.026858124881982803,0.5972734093666077,-0.36368799209594727,0.9469982385635376,1.3063328266143799,-0.09334681928157806,-0.7242520451545715,-0.4990614056587219,0.9018350839614868,-0.6823469996452332,1.0881502628326416,0.8143601417541504,-0.9224593639373779,0.04078628495335579,0
207,2070181,-0.06059567257761955,0.014840608462691307,-0.9955348372459412,1.1116724014282227,0.6105319857597351,-0.28173261880874634,28.396692276000977,-9.935583114624023,40.22396469116211,1.5756118297576904,-0.9429163932800293,-1.1561245918273926,0.9308401942253113,0.5109080672264099,0.00498211570084095,-0.13976866006851196,-0.8109548091888428,0.13982565701007843,-0.9071515202522278,0.4892045557498932,0.6027679443359375,-1.5263121128082275,0.43379640579223633,1.7068942785263062,0
208,2080223,-0.11113118380308151,0.01704074814915657,-1.0286386013031006,-0.2483823299407959,0.21936675906181335,0.23345769941806793,31.29385757446289,-10.408613204956055,39.25382995605469,0.23240429162979126,-1.3518083095550537,0.4102778732776642,-1.1314480304718018,0.6878823041915894,0.48874837160110474,-1.2732325792312622,-0.6950312256813049,-0.5193328857421875,0.3870125412940979,-0.5570224523544312,-1.6066193580627441,0.000690848333761096,-1.300641417503357,1.2548587322235107,0
209,2089899,-0.002579937456175685,0.029954157769680023,-1.0144580602645874,0.05735861510038376,-0.5971882939338684,-0.6920146942138672,29.83719253540039,-9.812784194946289,41.49058151245117,-1.4026257991790771,0.9916958808898926,-0.9626834392547607,1.0514709949493408,0.22836174070835114,-0.22641703486442566,0.12200404703617096,0.7402006387710571,1.4005779027938843,-0.9622505307197571,-0.6849398016929626,-0.6537887454032898,0.2040182501077652,-0.7124038338661194,0.49923133850097656,0
210,2099898,-0.06540072709321976,0.056453149765729904,-0.9954760074615479,1.157347321510315,-0.3065659999847412,-0.2622157335281372,28.335262298583984,-10.86391830444336,40.89570236206055,1.1183874607086182,0.9543095231056213,0.5307319164276123,0.3189176619052887,1.0311229228973389,1.3582571744918823,-0.38412636518478394,0.6816078424453735,0.7805806398391724,1.8419523239135742,-0.4200304448604584,-1.6129357814788818,0.7096012234687805,-0.5879998207092285,0.46089333295822144,0
211,2109979,0.11542422324419022,-0.040729254484176636,-1.009748101234436,0.3174002468585968,0.3629840016365051,0.0605258010327816,28.803468704223633,-9.217663764953613,38.63543701171875,-0.9177435636520386,-0.44101178646087646,0.0957956537604332,1.6288954019546509,-0.20784902572631836,0.2962147295475006,-0.904931902885437,-0.7739631533622742,0.8429700136184692,-0.3543170094490051,0.981034517288208,-0.22255492210388184,0.7275024652481079,-0.7978848814964294,1.325911521911621,0
212,2119962,-0.04455622658133507,0.029611961916089058,-1.0052884817123413,0.32190361618995667,0.7494953274726868,-0.64832603931427,29.160768508911133,-10.541852951049805,39.87376022338867,-0.5477598905563354,-0.3936322331428528,-1.5999115705490112,-0.5065667033195496,0.39329230785369873,0.05395989120006561,-0.14460600912570953,1.230574607849121,-2.521212339401245,-0.45486074686050415,0.5555471181869507,1.5278363227844238,-0.9602569341659546,-2.0185868740081787,0.9199946522712708,0
213,2130111,0.08324576914310455,-0.0020606431644409895,-1.0043166875839233,-0.04223988950252533,0.186202272772789,-0.5089581608772278,29.014266967773438,-8.237072944641113,40.417938232421875,-0.609670877456665,-0.7189989686012268,-0.7213162183761597,1.3052582740783691,1.1882656812667847,0.2528129518032074,1.5991311073303223,-1.1747220754623413,-1.2957713603973389,3.2443723678588867,-0.32733333110809326,-1.5905662775039673,0.11719260364770889,-0.9155529737472534,-0.2883724272251129,0
214,2140104,-0.13941188156604767,0.039160702377557755,-0.9979604482650757,-0.44926080107688904,0.29734066128730774,0.21229006350040436,29.825593948364258,-8.665375709533691,40.0302619934082,0.5508565306663513,2.146458387374878,1.0716452598571777,-0.4340335428714752,0.7947852611541748,-1.5344096422195435,-0.4895462095737457,0.8721808791160583,-1.1488497257232666,-0.26285138726234436,0.0021957403514534235,-0.5688715577125549,1.229857325553894,0.9239656925201416,-1.8663723468780518,0
215,2150207,0.024369049817323685,0.013539462350308895,-1.000143051147461,-0.7763518691062927,-0.005366230849176645,0.34307196736335754,29.725736618041992,-10.663885116577148,41.27863693237305,-0.9716005325317383,0.25028297305107117,2.2571234703063965,0.9501004219055176,-1.2790827751159668,-0.243529811501503,-0.9470231533050537,1.0009373426437378,0.9747589230537415,0.19002795219421387,0.29743266105651855,0.9037120938301086,-0.5773951411247253,-0.08312742412090302,0.07415485382080078,0
216,2160177,0.03375590220093727,-0.008991556242108345,-1.0002142190933228,0.6993280053138733,0.09918196499347687,0.29484638571739197,30.096343994140625,-10.058281898498535,40.17637252807617,-0.3763754665851593,0.7833458781242371,0.2529458999633789,-0.7369176745414734,-0.020369909703731537,0.7447965145111084,0.7138749361038208,-0.7430539727210999,0.6465730667114258,0.9803605675697327,-1.0511329174041748,1.2060564756393433,-0.6493317484855652,1.481785535812378,-0.05358821526169777,0
217,2169976,-0.035189300775527954,0.024080423638224602,-0.9933725595474243,-0.7520763278007507,-0.38640037178993225,-0.45876604318618774,29.283666610717773,-8.650223731994629,39.39607238769531,-0.9269957542419434,-0.26637154817581177,0.4685804545879364,1.1556931734085083,-2.7988433837890625,1.9245963096618652,1.5141268968582153,1.3739559650421143,-0.301410049200058,-1.188551664352417,0.3079555332660675,0.356090784072876,-1.6200125217437744,0.40792566537857056,-1.3757942914962769,0
218,2179908,0.07799658179283142,-0.02975696697831154,-0.983675479888916,0.08702143281698227,-0.11214848607778549,-0.45048266649246216,29.797607421875,-9.409892082214355,39.815269470214844,-0.9783273339271545,-0.9391511678695679,0.876198947429657,0.9999884963035583,-1.5722121000289917,-1.1408601999282837,0.10408271104097366,-0.539127767086029,-0.8270023465156555,-0.2434578239917755,1.5275375843048096,0.4030967056751251,-2.446575403213501,-0.5915994048118591,0.3357020318508148,0
219,2190113,0.007289992179721594,0.08544763922691345,-1.049055814743042,0.29891732335090637,0.29977577924728394,-0.11270297318696976,30.239835739135742,-9.456762313842773,39.73185348510742,1.0563688278198242,-0.7033172249794006,-0.049130991101264954,0.24180211126804352,-0.5517194271087646,0.5333724021911621,-0.24949093163013458,-0.624741792678833,1.1048038005828857,1.7387479543685913,1.605953574180603,0.15001264214515686,-0.4472244679927826,-0.48734039068222046,-1.4498755931854248,0
220,2200140,-0.0012230389984324574,0.01271841861307621,-1.0324865579605103,-0.32016119360923767,-1.3734242916107178,-0.049390509724617004,28.816102981567383,-10.619657516479492,41.44783020019531,0.047331344336271286,-0.016549432650208473,-0.6706095933914185,-0.0035510906018316746,-0.8075593709945679,-0.04204948619008064,0.003454375546425581,0.6033095121383667,-0.6411622166633606,-1.20806884765625,-2.0377511978149414,1.6908049583435059,0.08170978724956512,-1.7312833070755005,0.015040774829685688,0
221,2210042,0.01571357622742653,-0.024207016453146935,-0.9862931370735168,-0.024789968505501747,-0.2892577350139618,-0.7361239194869995,30.572675704956055,-9.095964431762695,40.270355224609375,1.495393991470337,-1.175862431526184,1.8164092302322388,-0.7085379958152771,-0.05400759354233742,-0.4090944826602936,0.7568351626396179,-0.8816797137260437,0.25715842843055725,-0.6045202016830444,-1.8793586492538452,-0.39538446068763733,-0.17461156845092773,-0.18573901057243347,-2.0017757415771484,0
222,2220158,0.01757134310901165,-0.05437159538269043,-1.0126752853393555,0.10533854365348816,0.9031187891960144,0.7634672522544861,30.205162048339844,-11.193618774414062,39.99482727050781,-0.6071691513061523,0.33735543489456177,-0.006921634543687105,1.3695480823516846,0.5137528777122498,0.48948150873184204,-1.1156705617904663,-0.3721805810928345,-0.14581432938575745,0.8201615810394287,-0.13885802030563354,-1.0057698488235474,-1.267853856086731,0.055787499994039536,-1.2543648481369019,0
223,2229632,0.09539072215557098,0.0388144887983799,-1.0310099124908447,0.17929232120513916,0.4586845934391022,0.559224545955658,30.081501007080078,-9.027827262878418,40.660667419433594,2.2171859741210938,-0.6898791193962097,0.64848792552948,1.7014777660369873,0.8127286434173584,0.23174482583999634,0.7599086165428162,0.7781835198402405,0.1419157087802887,0.9745759963989258,-0.17763233184814453,0.25166818499565125,-0.433118999004364,-1.701907753944397,1.362154483795166,0
224,2240034,-0.05506214499473572,0.02974654547870159,-1.0027408599853516,-0.5528956651687622,0.24461379647254944,-0.1788681149482727,29.59109115600586,-9.280028343200684,39.60048294067383,-1.2393975257873535,-0.8760896325111389,1.32636296749115,-1.25650155544281,-0.49950018525123596,-1.2536656856536865,-0.5694975256919861,0.2539786994457245,0.3755907118320465,-1.0990934371948242,-0.35028013586997986,0.2614120841026306,-0.630840539932251,1.1719053983688354,-2.267110586166382,0
225,2249860,0.11299949139356613,-0.05704561248421669,-1.0300310850143433,-0.6961015462875366,-0.0508013553917408,0.2388043999671936,31.045682907104492,-10.651113510131836,39.24211502075195,-1.3531712293624878,-0.3540625274181366,0.48615217208862305,1.2157338857650757,1.5244940519332886,0.8290595412254333,-1.2169829607009888,-0.704301655292511,-1.2318888902664185,-0.2290470451116562,0.09877563267946243,-0.2678053081035614,2.2794809341430664,-0.742007315158844,-0.21456792950630188,0
226,2260044,-0.006523043382912874,-0.061316054314374924,-0.9957315325737,0.5598161816596985,-0.3206089735031128,0.7270762920379639,30.18263816833496,-11.123619079589844,40.39704895019531,-0.39433494210243225,1.5193817615509033,-1.7729758024215698,-0.18623782694339752,1.0282483100891113,1.6945469379425049,-1.2894256114959717,-0.6265828013420105,0.5573817491531372,1.3663232326507568,-0.32676854729652405,-1.1186217069625854,-0.3926786482334137,-1.1736207008361816,0.4596206843852997,0
227,2270110,0.028687722980976105,0.015478817746043205,-0.9962666630744934,0.8201112151145935,-0.4035610258579254,0.3788423240184784,28.579547882080078,-10.935324668884277,37.9321174621582,-1.0724948644638062,-0.08056873828172684,0.6886338591575623,-0.7877958416938782,-1.0657345056533813,0.08028967678546906,0.8259589076042175,1.234285593032837,-0.09082184731960297,1.3203336000442505,0.7748422026634216,-2.2034010887145996,-0.2542845606803894,0.17381234467029572,0.5816065073013306,0
228,2280158,0.0010728189954534173,0.03586684912443161,-0.9630172252655029,-0.07170545309782028,-0.1451999843120575,0.7208821177482605,29.996387481689453,-10.838812828063965,38.40208435058594,0.21298088133335114,-1.0088355541229248,-0.37978309392929077,0.43853071331977844,-2.0646393299102783,-0.2723337411880493,-0.629946231842041,0.36072221398353577,1.2553526163101196,0.6305873394012451,-1.3079568147659302,0.13058604300022125,1.7731209993362427,0.27358439564704895,1.4547090530395508,0
229,2290331,-0.11485999822616577,0.01879594847559929,-1.040670394897461,-0.517680287361145,-0.23386406898498535,-1.1406211853027344,31.27355194091797,-11.253362655639648,40.72640609741211,-0.6843604445457458,0.22207079827785492,-0.6113661527633667,1.975561499595642,-1.4418827295303345,-0.7935159802436829,-0.07856620103120804,-1.0141736268997192,-0.5987212061882019,-0.15875640511512756,-0.3777850568294525,0.19603599607944489,0.2221985012292862,0.5856521725654602,-0.3865864872932434,0
230,2300059,0.15318663418293,-0.012860522605478764,-1.0274040699005127,0.6299555897712708,1.0930893421173096,0.45923498272895813,29.274015426635742,-10.37238597869873,39.716915130615234,-1.2155449390411377,0.5350702404975891,1.2909656763076782,-0.4532671570777893,0.1972934603691101,-0.3852677643299103,0.8006975650787354,0.28145667910575867,1.089276671409607,0.7485432028770447,0.2705284357070923,0.28041213750839233,-0.13567407429218292,0.1254817098379135,0.09546086192131042,0
231,2310044,-0.09533272683620453,-0.04996371641755104,-0.9954828023910522,0.4341636300086975,-0.6742236018180847,0.644270122051239,30.29855728149414,-12.156436920166016,38.30984115600586,-1.921866774559021,0.44515350461006165,0.18413391709327698,-0.1995125263929367,-1.3068066835403442,0.7155858278274536,-0.19701211154460907,-1.2652398347854614,1.4915367364883423,-0.32210418581962585,-1.3024616241455078,1.5774205923080444,0.7562114000320435,-0.029721729457378387,-1.107005000114441,0
232,2320143,-0.05083707347512245,-0.0290499459952116,-1.0049962997436523,0.3855162560939789,0.21257978677749634,-1.1268236637115479,30.87528419494629,-8.078374862670898,41.16066360473633,0.25874999165534973,0.4157963693141937,-0.4926793575286865,0.10853016376495361,-0.5390275120735168,0.9559653997421265,-0.8276050090789795,0.1528640240430832,1.9475831985473633,0.40073683857917786,1.8211684226989746,-0.7362989783287048,0.34286752343177795,0.622663140296936,-0.7284039855003357,0
233,2330155,0.006680645048618317,0.0385638028383255,-0.9857743382453918,0.4318851828575134,-0.7447080612182617,0.06773974001407623,29.779163360595703,-9.116806983947754,39.652793884277344,-0.44598135352134705,-0.8467317223548889,0.031548503786325455,-1.7342413663864136,0.8081694841384888,-0.15537212789058685,0.2993541955947876,0.9719191789627075,0.0597572885453701,-1.442340612411499,0.3974611163139343,1.0775924921035767,-0.6512629389762878,-0.8336727619171143,-0.7175007462501526,0
234,2339971,-0.040159109979867935,0.03799156844615936,-1.0007290840148926,-0.1439816653728485,-0.7227762341499329,0.33003103733062744,29.51451301574707,-12.075533866882324,40.29037857055664,-0.549895167350769,0.5291798114776611,-0.6405806541442871,-1.0031801462173462,-0.6819685697555542,-2.1576719284057617,0.07620880007743835,-0.5456551909446716,1.7861310243606567,0.08757650852203369,-0.32403236627578735,-0.3739733099937439,1.163089632987976,-1.1514418125152588,0.21538682281970978,0
235,2349934,-0.0037154527381062508,0.04893514886498451,-0.9812444448471069,-0.5506504774093628,-0.010571218095719814,-0.7142663598060608,28.996131896972656,-10.53300952911377,39.471126556396484,0.8940166234970093,-0.17166852951049805,-1.3946644067764282,-0.04635750874876976,-1.7696707248687744,0.16493280231952667,0.4860938489437103,-0.4965382516384125,1.4359664916992188,-0.442922979593277,-0.7647275924682617,-0.24768862128257751,-2.0455150604248047,-0.6126697659492493,0.15807688236236572,0
236,2360020,-0.006796559318900108,-0.02933501824736595,-0.9700119495391846,-0.6677478551864624,-0.4499240219593048,-1.4599238634109497,29.76104736328125,-9.944640159606934,40.41912078857422,0.4985256493091583,-1.1166267395019531,-0.4126265048980713,0.21758288145065308,-1.2198574542999268,-1.0550096035003662,-0.05268000066280365,0.08783223479986191,-0.5803475975990295,-0.7340652942657471,-0.41100364923477173,-0.1336905062198639,-3.477778434753418,-0.1109829843044281,2.3859052658081055,0
237,2369936,0.10755173116922379,0.014917820692062378,-1.023091197013855,0.09421303868293762,0.2185606062412262,0.08844205737113953,30.677406311035156,-9.252742767333984,40.33806228637695,0.6312604546546936,2.5658581256866455,0.07566860318183899,2.5797603130340576,0.4039027988910675,1.7516462802886963,0.2709003984928131,-0.456266850233078,-1.3876831531524658,-2.643800735473633,-0.45284518599510193,1.3593844175338745,0.16885213553905487,1.1482293605804443,1.5566332340240479,0
238,2380038,0.0034325900487601757,-0.028060536831617355,-1.0270991325378418,0.014561689458787441,0.28342005610466003,0.2940457761287689,29.776636123657227,-10.19509220123291,40.10258483886719,0.31372159719467163,-0.6842025518417358,0.27256831526756287,2.6642444133758545,-0.13158662617206573,-0.37785056233406067,-1.3463428020477295,0.34443387389183044,-0.34851744771003723,0.33783459663391113,0.8885843753814697,-0.4563981890678406,-0.6427212357521057,0.2061602771282196,1.9221795797348022,0
239,2389966,-0.04114307463169098,-0.08588407188653946,-1.0293941497802734,0.12054920196533203,-0.4698108434677124,0.4673807919025421,29.84754180908203,-8.295414924621582,39.544960021972656,0.36433660984039307,0.8492562174797058,-0.806617259979248,-1.1326394081115723,0.2282232940196991,0.2259090691804886,0.08190777897834778,0.33227789402008057,-0.6255335807800293,0.9539042115211487,0.256516695022583,1.4088103771209717,-1.483697533607483,-1.628947377204895,0.1473660171031952,0
240,2400064,0.06807821244001389,0.027701951563358307,-0.9895368218421936,-0.1706215739250183,-0.4291194677352905,-0.18589411675930023,29.023900985717773,-8.49124526977539,38.87261962890625,-0.26295652985572815,-0.6030518412590027,1.2785353660583496,-0.4042854607105255,-1.1793252229690552,-0.2757611870765686,0.04026458039879799,-2.4092941284179688,0.6171737313270569,-1.408412218093872,0.3527769446372986,-1.7177037000656128,-0.23742946982383728,0.08386103063821793,0.7739677429199219,0
241,2409937,0.008280671201646328,-0.0343591533601284,-0.9707531332969666,-0.4728701412677765,0.19574284553527832,0.07120148837566376,28.61705207824707,-10.503255844116211,39.99911117553711,-0.47995975613594055,0.03489086776971817,-1.1478173732757568,0.34769758582115173,0.5106212496757507,1.1241024732589722,1.5854730606079102,1.1666499376296997,-0.7157498002052307,1.072196364402771,0.973871648311615,0.9057077765464783,0.2172006070613861,0.00044927431736141443,-2.8366947174072266,0
242,2420144,0.08074288815259933,-0.047092072665691376,-0.9939058423042297,0.707318902015686,-0.4018477201461792,-0.25051358342170715,29.305496215820312,-12.245186805725098,40.775291442871094,1.2934935092926025,-1.3854995965957642,0.6756058931350708,-1.7823044061660767,-2.0418763160705566,-1.3508522510528564,0.1485295593738556,0.13096193969249725,-0.13144560158252716,0.26332783699035645,-1.1305570602416992,-0.35849037766456604,0.01636555977165699,0.4275570511817932,-0.37047284841537476,0
243,2430027,-0.047350820153951645,0.03001663088798523,-0.9780561327934265,-0.2158278524875641,0.6100942492485046,0.8172215223312378,29.108299255371094,-10.451766014099121,41.37944030761719,-1.4141781330108643,-0.9237323999404907,0.44207751750946045,0.11279710382223129,1.3368216753005981,0.933108925819397,0.6844114065170288,0.13240432739257812,0.8856192231178284,1.1131020784378052,-0.6938365697860718,-0.6581405997276306,0.147079199552536,-1.2531970739364624,1.1617084741592407,0
244,2440016,-0.029954416677355766,-0.009149009361863136,-1.048155665397644,-0.06329973042011261,0.6591010093688965,-0.780911386013031,29.829700469970703,-9.46296501159668,41.55282974243164,2.9659719467163086,-1.4752774238586426,0.029324771836400032,-0.3207349181175232,-0.460994154214859,-0.574055552482605,0.5040373802185059,-0.26024430990219116,-0.6808586716651917,-0.07311615347862244,-0.5860239863395691,-0.5183001160621643,1.6869580745697021,-0.025209493935108185,0.3041004240512848,0
245,2449952,-0.029794001951813698,0.04088497534394264,-0.990073025226593,-0.6716710329055786,-0.9325804114341736,0.5793436765670776,30.640079498291016,-10.169502258300781,40.90565872192383,-0.934410810470581,1.538446068763733,-0.3378070890903473,-2.0920722484588623,0.3185172975063324,1.4692857265472412,1.1832993030548096,0.052366629242897034,-1.715895175933838,0.99228435754776,0.21870681643486023,-0.8136025667190552,-0.612447202205658,0.5206615328788757,0.062103744596242905,0
