seq,time_us,ax,ay,az,gx,gy,gz,mx,my,mz,drop_flag
0,110,0.011967691592872143,-0.015738651156425476,-1.0128902196884155,-0.3227784037590027,-0.04888685792684555,0.7134549617767334,28.769372940063477,-10.480302810668945,39.76459884643555,0
1,9928,0.014318550005555153,-0.03371715173125267,-1.0055837631225586,-0.10747961699962616,0.034598927944898605,0.4087010622024536,30.721885681152344,-10.89448356628418,39.49908447265625,0
2,19945,-0.0037232665345072746,-0.017831142991781235,-0.9854631423950195,0.35624510049819946,0.6449605822563171,-0.5761368274688721,28.46320915222168,-11.208269119262695,39.17724609375,0
3,29674,-0.022107955068349838,-0.03677711263298988,-0.9794467091560364,0.33541813492774963,0.7206512689590454,0.4992218315601349,27.465612411499023,-10.813342094421387,38.827796936035156,0
4,39756,0.03402692452073097,0.05221123620867729,-1.027660608291626,0.1997496783733368,0.46983256936073303,0.4963698387145996,29.229074478149414,-10.951131820678711,39.47341537475586,0
5,49800,0.04440688714385033,0.04681552201509476,-0.987389087677002,0.2577059268951416,-0.49875128269195557,-0.011632774956524372,28.62027931213379,-10.216693878173828,38.685874938964844,0
6,59816,0.03691553696990013,-0.06065461412072182,-1.032331943511963,0.1908036172389984,-0.15498198568820953,0.21283280849456787,29.980987548828125,-9.196293830871582,39.66790771484375,0
7,70033,-0.008676363155245781,0.04343150928616524,-0.9912676215171814,-0.23472218215465546,-0.35457196831703186,0.5632120966911316,30.875694274902344,-9.880340576171875,38.94683074951172,0
8,79962,-0.0975634828209877,-0.046907149255275726,-1.0137059688568115,-0.6223331093788147,0.7748202085494995,-0.5491479635238647,28.563623428344727,-11.205475807189941,41.73868179321289,0
9,90154,-0.01208453718572855,0.033544812351465225,-1.00001060962677,-0.2648342251777649,0.6696388125419617,-0.3211570382118225,30.140438079833984,-10.356207847595215,38.780242919921875,0
10,99890,0.08337530493736267,7.555322372354567e-05,-0.9835326671600342,-0.8234388828277588,0.3601994514465332,-0.3806774318218231,32.140838623046875,-7.546323299407959,41.05078887939453,0
11,109924,-0.04210717976093292,0.03181122988462448,-0.973175585269928,1.0693223476409912,-0.049449268728494644,-0.35974445939064026,30.429908752441406,-9.914278030395508,40.39419937133789,0
12,120018,0.0818152129650116,0.027865666896104813,-1.0141804218292236,-0.3862302005290985,-0.05856999009847641,0.25151678919792175,29.295042037963867,-8.266695976257324,40.063758850097656,0
13,130323,0.07832411676645279,-0.01733052358031273,-1.0055949687957764,0.7255485653877258,0.20261482894420624,0.1748039424419403,29.284067153930664,-10.449949264526367,40.3256721496582,0
14,140089,-0.08228429406881332,0.0075548249296844006,-1.058368444442749,0.0933467447757721,-0.06250840425491333,0.5894078016281128,30.882535934448242,-8.099897384643555,41.14070510864258,0
15,149904,0.024609984830021858,0.010182206518948078,-0.9967024326324463,0.31807616353034973,-0.14489130675792694,-0.5614959001541138,30.798158645629883,-8.932218551635742,41.5307731628418,0
16,159985,-0.05546708032488823,0.040974877774715424,-1.0373181104660034,0.34302476048469543,0.5981058478355408,0.9101563096046448,29.924301147460938,-10.850210189819336,38.83958053588867,0
17,170237,0.0043742461130023,-0.050298575311899185,-0.9920608401298523,-0.13536344468593597,-0.1316506415605545,0.5249513983726501,29.62047004699707,-10.256842613220215,37.67985916137695,0
18,179730,-0.03646983951330185,0.02763701230287552,-1.0022062063217163,-0.22969062626361847,0.06872087717056274,0.5226135849952698,30.455158233642578,-10.830414772033691,38.380435943603516,0
19,189886,-0.033321961760520935,0.014072732999920845,-1.018377423286438,-0.23602546751499176,-0.6344299912452698,-0.48094597458839417,29.461143493652344,-9.927526473999023,39.4158821105957,0
20,200321,0.10063865035772324,0.08458293974399567,-0.9793732762336731,0.1987704187631607,-0.1484348177909851,-0.09324609488248825,30.503355026245117,-10.637903213500977,40.33552169799805,0
21,210200,-0.049704473465681076,0.04016223922371864,-1.022951602935791,-0.18747995793819427,0.24056673049926758,0.31335827708244324,30.429468154907227,-9.205096244812012,40.829097747802734,0
22,219977,0.05822019279003143,0.11541464924812317,-0.9972578883171082,-0.15777413547039032,-0.036442987620830536,-0.17612342536449432,29.932340621948242,-8.839886665344238,38.3791618347168,0
23,229976,-0.0764315277338028,0.057190194725990295,-1.0130770206451416,0.4531046152114868,0.1479199081659317,0.2947423756122589,30.915369033813477,-11.498286247253418,38.582420349121094,0
24,239760,-0.043944187462329865,0.052133709192276,-0.998768150806427,-0.2037525326013565,-0.4064822196960449,0.7049289345741272,32.12928771972656,-9.462152481079102,40.76655960083008,0
25,250010,0.00897690374404192,0.03640920668840408,-0.974739670753479,0.30960118770599365,0.2723623812198639,-0.07644276320934296,31.652952194213867,-9.771408081054688,41.96234130859375,0
26,259967,-0.01477789506316185,0.013896455988287926,-0.9961256980895996,-0.032802365720272064,0.49324536323547363,0.37035951018333435,29.838932037353516,-9.561877250671387,38.9461784362793,0
27,269980,-0.013335873372852802,0.040163375437259674,-0.9961943626403809,-0.3379654288291931,0.31116414070129395,-0.5271530151367188,30.286806106567383,-10.539205551147461,40.61887741088867,0
28,280178,0.08013737201690674,-0.004654561635106802,-0.9956547021865845,-0.142621248960495,0.42496800422668457,-0.07479511946439743,29.275497436523438,-9.072183609008789,38.70291519165039,0
29,290020,0.09210046380758286,0.019783565774559975,-0.9972535371780396,0.4204767942428589,0.018779832869768143,-1.0624104738235474,30.54792022705078,-9.068231582641602,39.46950149536133,0
30,299925,0.04326053708791733,0.018809640780091286,-0.9762211441993713,-0.42290154099464417,1.0598843097686768,-0.577422022819519,30.213661193847656,-9.488914489746094,40.372215270996094,0
31,310063,-0.08023978769779205,-0.027968402951955795,-0.9852953553199768,0.6428329348564148,0.3524181842803955,0.24302323162555695,29.337392807006836,-8.742676734924316,40.33875274658203,0
32,320158,0.032296307384967804,-0.04381873458623886,-0.9859130382537842,0.29609814286231995,-0.7948200106620789,-1.0336635112762451,31.141220092773438,-9.420235633850098,39.99448013305664,0
33,329868,-0.14449071884155273,0.029910124838352203,-1.0164153575897217,-0.23542451858520508,0.7885304093360901,-1.2907466888427734,31.10850715637207,-10.031146049499512,39.253074645996094,0
34,339909,0.013926411978900433,0.06289873272180557,-1.007637858390808,0.3132307529449463,-0.2547372281551361,0.37100592255592346,31.201213836669922,-9.088260650634766,41.798133850097656,0
35,350029,0.004270764067769051,-0.002461832482367754,-0.9622554183006287,-0.5216137766838074,0.25348734855651855,-0.2835695147514343,32.76863098144531,-10.454314231872559,40.23427200317383,0
36,359865,0.04511098191142082,-0.015650125220417976,-0.9850126504898071,0.3461053669452667,0.18908736109733582,-0.49551698565483093,31.435144424438477,-9.758618354797363,38.581703186035156,0
37,370015,-0.03428703919053078,-0.04169376194477081,-0.9703015685081482,0.43933525681495667,-0.08460371196269989,-0.3303629457950592,28.29775619506836,-7.8512773513793945,39.46428298950195,0
38,379697,-0.034463971853256226,0.04481973499059677,-0.9795251488685608,-0.24464565515518188,0.7064868807792664,-0.8352490067481995,29.007347106933594,-9.635126113891602,39.919498443603516,0
39,389857,0.0711405873298645,-0.033822376281023026,-1.0215588808059692,-0.6384983062744141,-0.18039166927337646,-1.0420036315917969,29.559099197387695,-11.60281753540039,39.49159622192383,0
40,400011,-0.07611223310232162,0.02303776890039444,-1.0088474750518799,0.19931074976921082,0.24476628005504608,0.25090834498405457,30.621532440185547,-9.541462898254395,40.77006530761719,0
41,409941,-0.01545060332864523,-0.0732429102063179,-1.005719542503357,-0.07202396541833878,-0.18944264948368073,0.637810468673706,30.192258834838867,-9.744587898254395,40.42010498046875,0
42,419913,-0.10187962651252747,-0.0023699779994785786,-0.9724169969558716,-1.0716642141342163,0.3911428153514862,-0.040933672338724136,30.721933364868164,-10.747042655944824,39.46194839477539,0
43,429944,0.011368104256689548,-0.01553538627922535,-0.9775415062904358,-0.39420461654663086,0.8879315853118896,0.6997653841972351,29.923789978027344,-8.996061325073242,40.187705993652344,0
44,439906,0.027884896844625473,-0.05155358463525772,-0.9914665222167969,-0.5531763434410095,-0.30745434761047363,0.7310348749160767,30.067977905273438,-12.74845027923584,39.57219314575195,0
45,449790,0.04654241353273392,0.044305380433797836,-1.0557421445846558,-0.394549161195755,0.10586961358785629,-0.20279288291931152,29.776458740234375,-10.417704582214355,38.711307525634766,0
46,459969,0.04736204445362091,0.05819438397884369,-1.002623200416565,-0.2376164197921753,0.11555220931768417,-0.16959618031978607,29.377439498901367,-9.88529109954834,40.660118103027344,0
47,469912,0.0160504300147295,0.04694477841258049,-1.0104379653930664,0.35433903336524963,-0.7534819841384888,-0.6023809909820557,30.89796257019043,-12.413979530334473,40.39335250854492,0
48,480031,-0.05504907667636871,0.01509180013090372,-1.0075246095657349,0.21672889590263367,-0.05482638627290726,0.09232370555400848,29.897357940673828,-9.387744903564453,40.773372650146484,0
49,490007,-0.044067203998565674,0.08166039735078812,-1.037434697151184,0.3893663287162781,-1.1250965595245361,0.8693251609802246,30.77068519592285,-9.330976486206055,40.23355484008789,0
50,500147,-0.005538606084883213,-0.012200935743749142,-0.9924657344818115,0.20667245984077454,0.48953530192375183,-0.43544676899909973,28.36507225036621,-10.19555950164795,39.785400390625,0
51,509678,-0.0268497783690691,0.016637135297060013,-0.9952624440193176,-0.49201494455337524,0.9978207349777222,-0.12562772631645203,28.2359561920166,-12.167436599731445,40.814903259277344,0
52,519787,0.020539361983537674,-0.0432780459523201,-1.0080146789550781,0.41787269711494446,0.06490180641412735,0.03740627318620682,31.72002601623535,-9.158872604370117,39.98768997192383,0
53,529979,-0.15003293752670288,0.0643356516957283,-1.0282857418060303,-0.9849704504013062,1.2452462911605835,-0.30045363306999207,28.73048210144043,-6.856942176818848,40.45465087890625,0
54,539963,-0.009971003979444504,0.0012529344530776143,-1.0071005821228027,0.28293728828430176,-0.27050331234931946,-0.10170751810073853,29.494340896606445,-10.149303436279297,39.0909309387207,0
55,550026,0.04347335919737816,0.04864882677793503,-1.017371654510498,-0.585851788520813,0.11314095556735992,-0.9499848484992981,29.515214920043945,-11.334050178527832,40.248863220214844,0
56,559697,0.04976397752761841,-0.009960578754544258,-1.0018367767333984,0.21283696591854095,0.16909213364124298,-0.23663902282714844,28.5201358795166,-9.73122501373291,39.612457275390625,0
57,569992,0.02327018976211548,-0.025168556720018387,-0.9998009204864502,0.19854582846164703,0.0027192330453544855,-0.18998965620994568,31.352027893066406,-8.454134941101074,41.280982971191406,0
58,580071,-0.043604105710983276,-0.0018738498911261559,-1.0027732849121094,0.0886838510632515,-0.37801414728164673,0.1603807806968689,31.09157371520996,-7.255168437957764,40.60138702392578,0
59,589789,0.02008972316980362,0.07680690288543701,-1.0164575576782227,0.02030825987458229,-0.5523295402526855,0.5599505305290222,31.087932586669922,-9.24553108215332,40.57515335083008,0
60,599987,-0.09706505388021469,0.07356704771518707,-1.0063390731811523,0.10625575482845306,0.7482150793075562,0.3793160915374756,30.348310470581055,-11.641782760620117,40.492488861083984,0
61,609972,-0.06763219088315964,0.014128733426332474,-0.9994636178016663,-1.202431559562683,0.6686853170394897,-0.23691916465759277,29.256685256958008,-10.003898620605469,41.0743293762207,0
62,620106,0.010758422315120697,-0.024172985926270485,-0.9592392444610596,0.9371313452720642,0.7383468151092529,0.4835042357444763,28.233667373657227,-8.835434913635254,40.06748580932617,0
63,630093,-0.05843919515609741,-0.00974290817975998,-0.990455687046051,-0.2870990037918091,0.32090750336647034,0.043904516845941544,32.005393981933594,-9.802963256835938,39.730438232421875,0
64,639917,-0.007007115054875612,0.03346240893006325,-1.017706274986267,0.12293785065412521,-0.22436994314193726,0.500723123550415,31.864530563354492,-11.01136589050293,39.683692932128906,0
65,649779,-0.004517476074397564,-0.0071764676831662655,-0.988181471824646,0.14029893279075623,-0.3549661934375763,0.1739448457956314,30.623374938964844,-11.136978149414062,40.39369583129883,0
66,660079,-0.050631966441869736,0.007499805651605129,-1.0029606819152832,-0.7557026743888855,0.40283656120300293,-0.15729977190494537,31.775615692138672,-9.866353034973145,40.19788360595703,0
67,669850,0.07694566249847412,0.03746422007679939,-0.9993911385536194,-0.33454906940460205,-0.15908315777778625,-0.13587389886379242,31.102951049804688,-10.112671852111816,40.28812026977539,0
68,679910,-0.052406515926122665,0.08507755398750305,-1.0047169923782349,0.37671005725860596,-0.657661497592926,0.04538773000240326,30.130939483642578,-10.57497501373291,40.03492736816406,0
69,690053,-0.029184890910983086,-0.03278830274939537,-1.0261536836624146,0.4671175479888916,0.5057587623596191,0.8779525756835938,28.23456573486328,-9.130589485168457,40.43219757080078,0
70,700002,-0.002585166599601507,-0.004491846077144146,-0.9933360815048218,-0.358678936958313,-0.8824414610862732,-0.11701725423336029,29.629011154174805,-10.096962928771973,40.623748779296875,0
71,710193,-0.001665424439124763,0.03811870515346527,-0.9761402606964111,0.7007494568824768,0.24031870067119598,-0.10137273371219635,29.918872833251953,-8.971806526184082,40.98320770263672,0
72,719811,-0.015979893505573273,0.07573181390762329,-1.0315403938293457,0.6129865050315857,0.15470784902572632,-0.19490322470664978,31.184593200683594,-11.334441184997559,40.57544708251953,0
73,729940,0.03713565319776535,-0.09512604027986526,-1.0099483728408813,0.6751954555511475,0.059683408588171005,0.29983511567115784,31.404306411743164,-9.454141616821289,39.55401611328125,0
74,739968,0.005925846751779318,-0.06398334354162216,-1.030111312866211,-0.7649703025817871,0.7741077542304993,0.5897680521011353,30.871145248413086,-9.707884788513184,40.07539367675781,0
75,749723,0.01203678734600544,-0.04832954332232475,-0.9938401579856873,0.037641946226358414,0.1496991217136383,0.2999798655509949,30.54983901977539,-9.929256439208984,40.56074142456055,0
76,760161,-0.014423415996134281,-0.03423551470041275,-0.9931962490081787,-0.15446138381958008,-0.5915364623069763,0.5117383003234863,31.428049087524414,-9.390180587768555,39.2895622253418,0
77,769882,0.015497839078307152,-0.0007615163922309875,-0.995489239692688,-0.4502408504486084,0.18372727930545807,-0.19027842581272125,30.49722671508789,-8.698134422302246,39.69540023803711,0
78,779996,0.0014804675010964274,0.025058194994926453,-0.9774413704872131,0.6369462013244629,1.321012258529663,0.29475516080856323,30.149028778076172,-10.080349922180176,37.937171936035156,0
79,790062,0.009392119944095612,0.01306290552020073,-0.9921436905860901,-0.15352748334407806,-0.41895556449890137,-0.37896597385406494,30.938867568969727,-9.964276313781738,40.093666076660156,0
80,800033,0.014456131495535374,-0.010703385807573795,-0.9964970350265503,-0.18442170321941376,0.40148770809173584,0.36711931228637695,30.4285831451416,-8.649691581726074,38.9471435546875,0
81,809893,-0.07221711426973343,-0.0432126559317112,-0.9991565346717834,-0.21983864903450012,-0.07739275693893433,-0.18708129227161407,29.05571174621582,-8.998393058776855,41.22831726074219,0
82,820000,-0.0664852112531662,-0.0620446540415287,-1.0099472999572754,-0.6108304858207703,0.4770769476890564,0.08411180973052979,30.053186416625977,-11.626360893249512,39.597110748291016,0
83,830170,0.038529135286808014,-0.0736158937215805,-0.9700385928153992,-0.2062779814004898,0.39069801568984985,-0.0028778414707630873,28.528484344482422,-10.531512260437012,39.73109817504883,0
84,839992,0.04516608640551567,-0.047985635697841644,-0.9759410619735718,-1.2618978023529053,-0.05271076411008835,0.17345911264419556,30.055757522583008,-8.198532104492188,39.30475997924805,0
85,850056,0.0007150312303565443,-0.06146516278386116,-0.9984084963798523,-0.001337252208031714,1.0930006504058838,-1.3073872327804565,29.45595932006836,-7.844738006591797,40.866024017333984,0
86,860122,-0.007058289367705584,0.1060454472899437,-0.9743818044662476,0.5682140588760376,0.07619176805019379,-0.6262557506561279,29.668119430541992,-10.725590705871582,40.49201965332031,0
87,870207,-0.004941495601087809,-0.02798682637512684,-0.9968777894973755,-0.6324707269668579,-0.04280303046107292,-0.2127280980348587,29.599626541137695,-9.128325462341309,41.28504943847656,0
88,880014,0.004197568167001009,0.029933981597423553,-0.9842187762260437,-0.6862006783485413,-0.08996257185935974,0.21980129182338715,28.12819480895996,-9.94245433807373,39.93950653076172,0
89,889881,0.03361539915204048,-0.12289433181285858,-1.0358152389526367,-0.015085666440427303,-0.5375895500183105,-0.04236108064651489,28.727649688720703,-10.280043601989746,39.33829879760742,0
90,899867,-0.08526194840669632,-0.030944935977458954,-1.0364035367965698,0.9784661531448364,-0.18340757489204407,0.496368408203125,28.93012046813965,-11.11728286743164,40.784454345703125,0
91,910179,0.004829851444810629,-0.07347094267606735,-0.9886367917060852,0.2891579568386078,0.06892982125282288,0.3547050952911377,28.260913848876953,-10.767322540283203,39.2180061340332,0
92,919898,-0.06062410771846771,0.006837698630988598,-0.9917802810668945,0.6550572514533997,0.6910479068756104,-0.6119430661201477,32.352508544921875,-10.086601257324219,39.87998962402344,0
93,930032,0.06170618534088135,0.004581364803016186,-0.9940119981765747,0.7584089636802673,0.27631545066833496,-0.0664614588022232,31.88311004638672,-9.042771339416504,40.110862731933594,0
94,940061,0.09872888773679733,0.0581514798104763,-1.0136808156967163,0.6768956184387207,-0.2936590313911438,-0.9818032383918762,30.728288650512695,-10.021408081054688,40.09697723388672,0
95,950013,-0.016840729862451553,0.09367670863866806,-0.9878160357475281,0.02179553732275963,1.413699746131897,0.30846309661865234,29.681964874267578,-9.814810752868652,38.94364929199219,0
96,960102,0.004839929286390543,0.0192576851695776,-1.021073818206787,-0.43572670221328735,0.4029248058795929,-0.06996876001358032,31.231647491455078,-9.749433517456055,38.78444290161133,0
97,969695,0.05795010179281235,0.014243757352232933,-1.012802243232727,0.15206986665725708,-1.0437835454940796,0.5213463306427002,28.516298294067383,-9.9862060546875,39.28452682495117,0
98,980138,-0.0545419380068779,0.08216429501771927,-0.9874796867370605,0.37541842460632324,0.49822938442230225,-1.1189290285110474,28.2092227935791,-9.597269058227539,40.13808822631836,0
99,989981,-0.0230245403945446,0.02014281414449215,-1.0223448276519775,0.20638161897659302,-0.29997554421424866,1.0567140579223633,29.74888801574707,-10.574484825134277,40.658447265625,0
100,1000072,0.06474092602729797,0.008316367864608765,-0.9704794883728027,-0.6730828285217285,-0.6787257194519043,0.19036279618740082,30.78936004638672,-10.523448944091797,40.32925796508789,0
101,1010096,0.019941283389925957,0.0071117328479886055,-0.9657273888587952,-0.4514777362346649,-0.08423366397619247,-0.6184924244880676,30.132720947265625,-10.299712181091309,39.959163665771484,0
102,1019983,0.015878744423389435,0.027435816824436188,-1.0205141305923462,-0.4394465386867523,0.5384892225265503,0.3635420501232147,30.404014587402344,-10.205300331115723,40.17880630493164,0
103,1030040,-0.04310102388262749,-0.04425463825464249,-1.0010725259780884,-0.007766873575747013,0.9121245741844177,-0.15724077820777893,30.38270378112793,-10.20999526977539,40.70386505126953,0
104,1039973,-0.0011031662579625845,-0.007255333010107279,-1.0240355730056763,-0.7869353294372559,0.07018612325191498,0.27251067757606506,30.160186767578125,-8.076749801635742,39.64373779296875,0
105,1050004,-0.034447841346263885,-0.0008117750403471291,-1.020400881767273,-0.20614604651927948,0.2914409041404724,0.11859431862831116,29.073705673217773,-11.090611457824707,42.20421600341797,0
106,1059921,-0.012598438188433647,-0.038112983107566833,-0.985977292060852,0.004895541351288557,0.22484008967876434,-0.11309383809566498,28.34389305114746,-10.450763702392578,41.3873176574707,0
107,1070115,0.1247030571103096,0.009521557949483395,-0.9897465109825134,0.770331084728241,-0.6282081007957458,-0.38742461800575256,29.98235321044922,-9.05118465423584,38.56135177612305,0
108,1080503,0.022366013377904892,0.05019335821270943,-0.9856340289115906,-1.0638558864593506,-0.18275563418865204,-0.3322456181049347,30.131298065185547,-11.648868560791016,41.07235336303711,0
109,1090046,0.003961872775107622,-0.012812813743948936,-1.039414644241333,0.5345662236213684,-0.47111472487449646,0.22812038660049438,30.48432731628418,-8.897857666015625,39.02427673339844,0
110,1100191,-0.02101920172572136,-0.042353831231594086,-0.9900385737419128,0.47759294509887695,0.72321617603302,-0.763725757598877,28.607728958129883,-11.981583595275879,38.902366638183594,0
111,1109972,0.023439545184373856,-0.011136057786643505,-1.0126770734786987,-0.18789038062095642,0.2694622874259949,0.7540394067764282,29.550762176513672,-10.797100067138672,42.306419372558594,0
112,1119955,0.027169745415449142,-0.0987495705485344,-0.9725020527839661,-0.5922644138336182,-0.6181256175041199,0.3315553665161133,30.86648178100586,-9.595261573791504,40.91394805908203,0
113,1130075,0.00848307367414236,0.035763490945100784,-0.9843661785125732,-0.03171439841389656,0.29314368963241577,-0.8033310174942017,28.531044006347656,-9.6427640914917,40.400169372558594,0
114,1139839,0.04160052910447121,0.039509259164333344,-1.011307716369629,-0.1933521330356598,0.5222428441047668,0.809985876083374,29.45722007751465,-10.403576850891113,40.03377914428711,0
115,1149854,-0.046351056545972824,0.023884229362010956,-1.0183353424072266,-0.045840103179216385,0.7186616659164429,-0.5324274897575378,30.1390438079834,-11.344828605651855,40.33566665649414,0
116,1159946,0.056359849870204926,0.021526949480175972,-1.0080609321594238,-0.5332768559455872,0.3280413746833801,-0.40485015511512756,29.680204391479492,-9.133907318115234,39.3276252746582,0
117,1169985,0.017490070313215256,-0.005140385590493679,-1.0120857954025269,-0.09490690380334854,-0.21264591813087463,0.42032867670059204,29.354536056518555,-11.10881233215332,40.586387634277344,0
118,1179915,-0.06936436146497726,-0.020124973729252815,-0.9966957569122314,-0.4173452854156494,-0.9382990002632141,0.49865245819091797,29.789958953857422,-9.658452987670898,40.367557525634766,0
119,1190036,-0.06890717893838882,-0.0447344072163105,-0.9756737351417542,0.2371225208044052,-0.40574946999549866,0.23278042674064636,30.079425811767578,-10.490032196044922,39.98268127441406,0
120,1199971,0.02151215262711048,0.03607391193509102,-0.9927558302879333,-0.0835374966263771,0.42194393277168274,0.17208006978034973,30.428552627563477,-10.355438232421875,40.351654052734375,0
121,1209737,0.034752823412418365,-0.07989416271448135,-0.9872756004333496,0.3459382653236389,0.7736664414405823,0.16937454044818878,28.65728187561035,-10.57569408416748,39.62584686279297,0
122,1219971,0.08675317466259003,-0.013595537282526493,-0.988913893699646,-0.5790578126907349,1.0834674835205078,1.038596510887146,28.115116119384766,-10.606918334960938,41.81535720825195,0
123,1229643,0.022341998293995857,0.042696040123701096,-0.991337776184082,-0.6012941002845764,0.6630407571792603,-1.2289992570877075,30.526123046875,-10.923189163208008,37.75780487060547,0
124,1239977,-0.03647583723068237,-0.06010071188211441,-0.9676222205162048,-0.39681383967399597,0.16767875850200653,0.4096565842628479,31.798229217529297,-8.529297828674316,41.63896179199219,0
125,1250111,-0.08840668201446533,-0.007694483734667301,-1.0041271448135376,0.19835565984249115,-0.12566590309143066,-0.06621864438056946,31.3610782623291,-9.508124351501465,41.12528610229492,0
126,1259980,0.08049939572811127,-0.01989186555147171,-0.9995448589324951,-0.39405858516693115,0.6194068789482117,0.480766236782074,31.200632095336914,-8.485980987548828,40.967308044433594,0
127,1269838,-0.016445215791463852,0.07026387006044388,-1.0080657005310059,0.33637735247612,0.11778660118579865,-0.8489798903465271,27.78000259399414,-8.333011627197266,39.26681137084961,0
128,1279753,-0.05837488919496536,0.028904976323246956,-0.9943176507949829,-1.1866384744644165,0.06495990604162216,-0.5112485289573669,30.799053192138672,-8.222586631774902,40.57550811767578,0
129,1289999,-0.03966056928038597,0.05320775881409645,-0.9672866463661194,0.4593755602836609,0.4182225465774536,0.3998165428638458,29.369712829589844,-11.247228622436523,41.41519546508789,0
130,1300131,-0.0731583833694458,-0.08670363575220108,-0.9964615106582642,-0.21794499456882477,-0.6939861178398132,-0.24978028237819672,29.605796813964844,-11.748122215270996,41.12508010864258,0
131,1310119,-0.09882769733667374,0.019741227850317955,-1.006996512413025,0.10330191999673843,-0.09017283469438553,-0.5239220261573792,28.488521575927734,-8.440916061401367,38.88086700439453,0
132,1319880,-0.00869355071336031,0.07620018720626831,-0.9987614750862122,-0.14454811811447144,-0.5919029116630554,1.3422023057937622,28.288856506347656,-9.810749053955078,41.04965591430664,0
133,1329937,-0.0013875003205612302,-0.08671598881483078,-0.9966049194335938,0.03451327234506607,-0.35747572779655457,0.13163791596889496,28.57979965209961,-7.997951984405518,40.13686752319336,0
134,1339987,0.03893989324569702,0.05287719517946243,-0.9681076407432556,-1.1894184350967407,0.7540114521980286,0.22901421785354614,30.1267032623291,-10.497729301452637,42.002445220947266,0
135,1350104,-0.04222524166107178,-0.08248046040534973,-1.0261648893356323,-0.3503311574459076,-0.21176503598690033,-0.12838789820671082,30.922513961791992,-9.74531364440918,38.403141021728516,0
136,1359539,0.010690581053495407,0.0041993302293121815,-0.9761687517166138,0.4816235899925232,-0.3264923095703125,-0.7921333909034729,29.201927185058594,-9.78915786743164,39.20576095581055,0
137,1369788,-0.03638053685426712,-0.002373276511207223,-1.021533489227295,0.7494829297065735,-0.25504568219184875,-0.6431217193603516,29.282888412475586,-7.670041084289551,40.103187561035156,0
138,1379832,0.044745974242687225,-0.019236808642745018,-0.9718217849731445,-0.6497862935066223,0.49412527680397034,-0.2964048981666565,31.355947494506836,-9.584834098815918,41.2900276184082,0
139,1390008,0.022024715319275856,0.018980512395501137,-0.990987241268158,0.1891079545021057,0.25771284103393555,-0.1820562332868576,31.14139747619629,-8.097420692443848,39.359928131103516,0
140,1400038,-0.06367785483598709,-0.0018138533923774958,-0.9889684319496155,-0.7005982995033264,-0.39595162868499756,-0.7780362963676453,29.81633186340332,-9.776641845703125,41.096763610839844,0
141,1409830,-0.054020967334508896,0.03638477995991707,-0.9643238186836243,0.29756972193717957,-0.5713273286819458,0.11469347029924393,29.169559478759766,-9.524346351623535,40.77272033691406,0
142,1419785,-0.04074469953775406,-0.06535182893276215,-0.9948137998580933,0.5473869442939758,-0.8593071103096008,0.4364364445209503,32.108612060546875,-10.562952995300293,40.06827926635742,0
143,1430034,0.017284326255321503,-0.05699688941240311,-1.0142452716827393,0.1428816318511963,-1.2183505296707153,0.00900212675333023,29.696035385131836,-9.637231826782227,39.46864700317383,0
144,1440003,0.020344121381640434,0.020726650953292847,-0.9904518127441406,-1.0800551176071167,-0.570190966129303,0.14330892264842987,30.27674102783203,-9.35010051727295,41.350669860839844,0
145,1450123,-0.03956378623843193,0.01645047590136528,-0.9843087792396545,-0.4333050847053528,-0.7577757835388184,0.016575491055846214,30.308151245117188,-9.92176628112793,38.77228546142578,0
146,1459965,0.05397358909249306,-0.054114680737257004,-0.9949795603752136,0.49007293581962585,0.2524658143520355,-0.01471724919974804,29.246702194213867,-9.815855026245117,40.81239318847656,0
147,1470041,-0.06442909687757492,-0.05101746320724487,-1.033994436264038,0.23234310746192932,0.13930177688598633,0.8354143500328064,30.02368927001953,-10.348299026489258,42.78663635253906,0
148,1480012,0.014051362872123718,-0.058201249688863754,-0.9688054919242859,0.2290191948413849,0.5505791902542114,0.18037474155426025,30.657922744750977,-9.65894603729248,40.50569152832031,0
149,1489747,0.03856721892952919,0.09181047230958939,-0.9917982220649719,0.1764308363199234,-0.32757291197776794,0.8689488768577576,30.20233726501465,-9.44326114654541,40.101051330566406,0
150,1500179,-0.028369707986712456,-0.019383490085601807,-0.9926741719245911,-0.912639319896698,-0.5561956763267517,0.46250516176223755,29.368356704711914,-9.575823783874512,40.39320755004883,0
151,1509851,0.05978114902973175,-0.007679990027099848,-1.015946388244629,-0.024066057056188583,0.27639567852020264,0.2228560894727707,30.880794525146484,-9.87802505493164,37.39139175415039,0
152,1520112,0.04933994263410568,-0.038557324558496475,-0.9665467143058777,0.26900261640548706,-0.612917959690094,0.5276302695274353,30.304018020629883,-10.538520812988281,39.86814498901367,0
153,1529964,0.033950965851545334,0.05168791487812996,-1.0065916776657104,0.5372941493988037,-0.5207052826881409,-0.2082851380109787,31.045942306518555,-10.68619155883789,41.54523468017578,0
154,1540035,-0.03741581365466118,-0.05590733140707016,-0.9910135269165039,-0.023988738656044006,0.4532955288887024,0.6761413216590881,29.990154266357422,-10.545533180236816,40.33085250854492,0
155,1550000,-0.027010174468159676,-0.0027402909472584724,-0.9985027313232422,-0.9586337208747864,0.041881874203681946,0.45866894721984863,30.973072052001953,-11.472129821777344,38.476661682128906,0
156,1560032,-0.016130128875374794,-0.042891308665275574,-1.013554334640503,0.35469380021095276,0.6031336188316345,0.592570960521698,30.663612365722656,-9.187027931213379,40.87351608276367,0
157,1570021,0.005607021041214466,0.012122338637709618,-1.012096643447876,-0.17167064547538757,0.7575024366378784,-0.3317034840583801,29.39468002319336,-11.205775260925293,41.56536865234375,0
158,1579951,-0.0259995199739933,-0.06996896117925644,-1.0338224172592163,-0.059929411858320236,-0.03334644064307213,0.8157933950424194,31.007041931152344,-8.2725830078125,39.26459884643555,0
159,1589980,-0.00383144267834723,-0.024676084518432617,-1.006606101989746,0.39727115631103516,0.3692300617694855,0.039665888994932175,30.128503799438477,-9.256635665893555,41.84654998779297,0
160,1599947,0.06378056854009628,-0.0014086555456742644,-1.0175597667694092,-0.0951886773109436,0.2532350420951843,-0.07150522619485855,30.306732177734375,-10.696246147155762,40.2196159362793,0
161,1609987,-0.0031601672526448965,-0.06293122470378876,-0.9786786437034607,-0.6351970434188843,-0.19572919607162476,0.44056272506713867,29.508800506591797,-11.639349937438965,39.296810150146484,0
162,1619848,-0.07739432156085968,1.6996857084450312e-05,-0.9906935691833496,-0.8946292400360107,0.7752251029014587,-0.4982128143310547,29.19135284423828,-10.169084548950195,39.927490234375,0
163,1629794,-0.00242859055288136,0.04034793749451637,-1.0336923599243164,0.3382241427898407,0.9013965129852295,0.26578739285469055,29.607593536376953,-9.3338041305542,41.29964065551758,0
164,1640006,-0.06662724167108536,0.022076629102230072,-1.0031896829605103,0.6945036053657532,0.09472695738077164,-0.11785175651311874,31.40282440185547,-11.08907699584961,40.69010925292969,0
165,1649670,0.05718275532126427,-0.021751048043370247,-1.0013065338134766,-0.27456051111221313,0.3517741560935974,-0.04746999591588974,32.058143615722656,-11.802058219909668,39.65738296508789,0
166,1660200,-0.04722319915890694,-0.006720408331602812,-1.0099447965621948,0.043320268392562866,-0.5949230194091797,0.22538980841636658,28.920692443847656,-8.980020523071289,41.210289001464844,0
167,1669994,0.005192777141928673,0.0485934354364872,-1.0071066617965698,-0.19720353186130524,-0.6039876341819763,-0.25882044434547424,28.56135368347168,-10.367151260375977,39.445213317871094,0
168,1679768,-0.010111376643180847,-0.06706240773200989,-1.0258150100708008,0.5156452655792236,-0.31002527475357056,0.9152107834815979,28.8311710357666,-10.084115982055664,41.620521545410156,0
169,1689884,0.00897813867777586,-0.03560587391257286,-1.014506459236145,0.5778412222862244,0.01139785721898079,0.3134002983570099,28.366817474365234,-11.53469181060791,40.435203552246094,0
170,1699859,0.03191889077425003,0.06803754717111588,-0.9887505173683167,-0.09284159541130066,-0.7261701822280884,-0.05332595482468605,30.01248550415039,-9.170312881469727,39.309200286865234,0
171,1710089,-0.007522926665842533,-0.035244423896074295,-0.999904453754425,-0.7644224166870117,-0.5160165429115295,-0.4333643615245819,28.583465576171875,-9.694091796875,39.57017135620117,0
172,1719959,-0.07438544929027557,0.03134680166840553,-1.0037106275558472,-0.9511663317680359,-0.06977661699056625,0.14198504388332367,30.8103084564209,-10.502306938171387,38.64289093017578,0
173,1729861,-0.06817572563886642,-0.0062096393667161465,-0.9860967397689819,0.331678181886673,0.22804982960224152,-0.5276889801025391,30.851848602294922,-11.022162437438965,41.3576774597168,0
174,1739652,0.03169962391257286,0.04488538205623627,-1.0134891271591187,0.39449742436408997,-0.7373420596122742,0.30958059430122375,29.895265579223633,-10.650559425354004,40.12212371826172,0
175,1750095,0.06916867941617966,-0.01498449221253395,-0.9719432592391968,0.17986012995243073,0.39881983399391174,0.15071848034858704,30.066875457763672,-7.658819675445557,40.10838317871094,0
176,1759876,0.03473504260182381,-0.04226651415228844,-0.9766125679016113,-0.49905115365982056,0.06685668975114822,-0.5986021161079407,27.976133346557617,-9.35517406463623,40.436702728271484,0
177,1769879,0.00801854394376278,-0.011006220243871212,-0.9984137415885925,-0.33193808794021606,-0.560552179813385,0.4392847418785095,31.6091251373291,-10.644960403442383,41.00580596923828,0
178,1779969,-0.006751822307705879,-0.03967355564236641,-0.9894057512283325,0.1638946533203125,-0.9598433971405029,0.36485356092453003,29.16275978088379,-9.729888916015625,40.771278381347656,0
179,1789871,-0.01636047102510929,-0.017383448779582977,-0.9968901872634888,0.2923109829425812,0.005230776499956846,0.1980087161064148,29.987112045288086,-8.53685188293457,39.976688385009766,0
180,1800236,-0.077392578125,-0.061380695551633835,-1.0112146139144897,-0.5069098472595215,-1.1384943723678589,0.44343140721321106,28.932960510253906,-10.53470516204834,40.41742706298828,0
181,1810112,-0.12424842268228531,-0.07015728205442429,-0.991969108581543,0.15280447900295258,-0.14689047634601593,-0.13477912545204163,29.217164993286133,-11.229498863220215,37.14777374267578,0
182,1820113,0.0582764632999897,0.10941146314144135,-1.0341765880584717,0.3362387716770172,0.6164200901985168,-0.7365498542785645,29.112228393554688,-11.246647834777832,40.44899368286133,0
183,1830033,0.07341153919696808,-0.03141392767429352,-1.0646058320999146,0.26477915048599243,0.02560686506330967,0.24674998223781586,28.482789993286133,-8.91295337677002,39.523536682128906,0
184,1840248,0.01067282259464264,-0.029125044122338295,-0.9778373837471008,-0.2878115475177765,1.0922255516052246,0.12706194818019867,29.190475463867188,-10.092381477355957,40.763877868652344,0
185,1849730,-0.04147794842720032,0.037450533360242844,-1.012711763381958,0.6358559727668762,-0.030079679563641548,0.23243121802806854,30.37664031982422,-8.982954978942871,40.29035568237305,0
186,1860062,0.022179502993822098,-0.04348490759730339,-0.9718418717384338,0.5287026166915894,0.18488889932632446,0.5470488667488098,29.379947662353516,-10.418997764587402,39.066261291503906,0
187,1869959,-0.026850631460547447,-0.1289825439453125,-0.9931356310844421,-0.4941491186618805,-0.1923029124736786,-0.6664003729820251,30.979616165161133,-9.527831077575684,40.25540542602539,0
188,1880015,-0.08100661635398865,0.013902641832828522,-0.9953213930130005,0.5076509714126587,-0.37291625142097473,0.5757803320884705,31.29150390625,-10.086442947387695,39.944480895996094,0
189,1889901,0.06686309725046158,0.00047865998931229115,-0.9875138998031616,-0.4317270517349243,-0.7010328769683838,-0.7568591833114624,30.80430793762207,-9.778566360473633,40.554779052734375,0
190,1900048,-0.01886097714304924,-0.0758979544043541,-1.013929843902588,-0.7630794048309326,0.01885916478931904,0.06460760533809662,30.892704010009766,-10.008142471313477,40.90462875366211,0
191,1909872,-0.0919184610247612,0.050839636474847794,-1.0217663049697876,0.63088059425354,0.4293939173221588,-1.028929591178894,29.7764835357666,-11.017370223999023,40.11624526977539,0
192,1920237,0.06516004353761673,0.06170760467648506,-1.0325074195861816,-0.6355322003364563,0.4470039904117584,0.8686103820800781,29.80011558532715,-10.19742202758789,41.08444595336914,0
193,1930130,-0.04020979255437851,-0.012005171738564968,-0.9994117021560669,0.03196961432695389,0.7644053101539612,0.3787558674812317,30.01833152770996,-11.428204536437988,39.364933013916016,0
194,1940158,-0.051756955683231354,-0.0019044163636863232,-1.0107390880584717,-0.594639241695404,0.5401133894920349,-0.20751377940177917,30.76439094543457,-10.138686180114746,39.981204986572266,0
195,1950133,-0.03675050660967827,-0.060692816972732544,-1.0025476217269897,0.5585502982139587,-0.2623760998249054,0.16794270277023315,30.588796615600586,-10.98547077178955,37.745445251464844,0
196,1959843,0.06621962040662766,0.01928342506289482,-1.0020087957382202,-0.7000643610954285,-0.48495325446128845,-0.34967172145843506,29.82057762145996,-10.850707054138184,40.19257354736328,0
197,1969863,-0.029709622263908386,0.0867580696940422,-0.9879140257835388,-0.5321959853172302,-0.16702578961849213,0.14708049595355988,30.779159545898438,-10.682089805603027,41.22255325317383,0
198,1979934,0.10337647050619125,-0.03546084836125374,-1.0305614471435547,-0.08452869951725006,-0.44641777873039246,0.6720686554908752,30.968379974365234,-8.663312911987305,41.17121505737305,0
199,1989935,-0.009345309808850288,0.03517681732773781,-1.003193736076355,-0.3119031488895416,-0.23144325613975525,0.005556418560445309,28.863924026489258,-10.562167167663574,41.717247009277344,0
200,2000135,-0.043774399906396866,-0.05573263019323349,-0.9780715703964233,-1.4941871166229248,0.20276278257369995,-1.0753629207611084,28.478225708007812,-8.60759162902832,40.10348129272461,0
201,2010138,0.03203423321247101,-0.0401974692940712,-1.0095094442367554,-0.008388061076402664,0.09635630249977112,-0.0765831470489502,29.956262588500977,-9.906003952026367,38.88732147216797,0
202,2019939,0.03755025193095207,-0.03434959426522255,-1.017181158065796,-0.6527581214904785,1.6735506057739258,0.29890966415405273,28.9140682220459,-10.790432929992676,41.55985641479492,0
203,2030034,-0.09034902602434158,0.07613590359687805,-1.0069395303726196,-1.1040459871292114,1.1940683126449585,0.04231541231274605,29.76609992980957,-9.19892692565918,39.96224594116211,0
204,2039715,0.049259401857852936,-0.01722634769976139,-0.9812439680099487,-0.2802749276161194,1.0319974422454834,-0.2475104033946991,29.719364166259766,-8.94736385345459,40.303192138671875,0
205,2050012,0.05138929560780525,-0.004375845193862915,-1.020556092262268,-0.44435733556747437,0.09614578634500504,0.35594457387924194,31.09932518005371,-9.292658805847168,39.53299331665039,0
206,2059766,-0.04985286667943001,-0.008705459535121918,-0.988464891910553,0.9827421307563782,-0.07263080030679703,0.00019596560741774738,28.677330017089844,-10.063860893249512,37.95769500732422,0
207,2069956,0.06042495742440224,0.039770420640707016,-1.0064021348953247,0.9910993576049805,-0.48929959535598755,-0.1563718020915985,29.435693740844727,-9.8885498046875,40.85626983642578,0
208,2079915,-0.015926208347082138,0.014512172900140285,-1.0077433586120605,0.421830415725708,-0.18887385725975037,-0.16905289888381958,29.469585418701172,-9.983028411865234,41.712074279785156,0
209,2089930,-0.06878890097141266,-0.013550215400755405,-0.995285153388977,0.8035134673118591,0.20123301446437836,-0.5406303405761719,31.705974578857422,-9.02832317352295,39.97074890136719,0
210,2100035,0.0038802206981927156,0.004374637268483639,-1.0020904541015625,0.02137976884841919,-0.45056793093681335,-0.6297042369842529,29.185853958129883,-9.807275772094727,39.45927429199219,0
211,2109688,0.041452281177043915,-0.05023530125617981,-1.0024135112762451,0.31320297718048096,-0.100016288459301,-0.2605038285255432,31.005023956298828,-9.75082778930664,43.3283805847168,0
212,2119913,-0.011187010444700718,0.07070688158273697,-1.0412564277648926,0.24128027260303497,-1.0786370038986206,0.03286077454686165,30.85553741455078,-9.937549591064453,40.38755798339844,0
213,2130090,0.023204362019896507,-0.04807557910680771,-0.9896886348724365,-0.5215454697608948,0.7125788927078247,-0.5422713160514832,29.18524742126465,-10.526598930358887,40.02311325073242,0
214,2139922,0.01461933646351099,0.02010362781584263,-1.0073789358139038,-0.6187418699264526,-1.1837570667266846,-0.10470636934041977,29.668701171875,-10.258317947387695,41.07180404663086,0
215,2149932,0.08848921954631805,0.044365860521793365,-0.982629656791687,1.0745664834976196,0.07525923103094101,0.43923282623291016,30.235048294067383,-9.925311088562012,41.77543258666992,0
216,2160245,0.01141924224793911,0.028629161417484283,-1.0035128593444824,-0.7096125483512878,0.2938266694545746,-0.002407517284154892,29.492294311523438,-8.651036262512207,39.27799987792969,0
217,2169682,0.005901246797293425,0.004398175049573183,-1.0162473917007446,-0.710990309715271,-0.27578213810920715,-0.5441784262657166,30.484851837158203,-10.913469314575195,41.141883850097656,0
218,2179797,-0.03958376124501228,-0.008796514011919498,-0.9677172303199768,0.5191816091537476,-0.741247832775116,0.36351439356803894,29.019363403320312,-8.108063697814941,41.60130310058594,0
219,2190137,-0.01037867646664381,0.004824998788535595,-0.9908868074417114,0.6048534512519836,0.9469135999679565,-0.5820572376251221,29.614347457885742,-9.61206340789795,38.17306137084961,0
220,2199950,0.046503059566020966,0.06744176149368286,-1.0200309753417969,-0.15344393253326416,-1.0891178846359253,0.3126876652240753,29.25986671447754,-9.9879789352417,39.76423263549805,0
221,2210026,0.010873835533857346,0.01643494889140129,-1.003587245941162,0.2236660271883011,1.0127652883529663,0.12390423566102982,29.87671661376953,-9.767131805419922,39.77198791503906,0
222,2219805,-0.013598012737929821,0.0006009370554238558,-1.011255145072937,0.06283628940582275,0.28164637088775635,0.08794602751731873,29.30274772644043,-9.41418170928955,40.4815788269043,0
223,2230303,-0.023469990119338036,-0.13593758642673492,-1.0066877603530884,0.13886652886867523,0.9758438467979431,-0.3169853985309601,28.624958038330078,-9.324816703796387,40.62902069091797,0
224,2240042,0.008665173314511776,0.0547744445502758,-0.9939547777175903,-0.49477067589759827,0.06252670288085938,-0.42477959394454956,29.646291732788086,-8.95871639251709,39.994998931884766,0
225,2250032,0.020197464153170586,-0.030460713431239128,-0.9737342596054077,-0.5089975595474243,0.42247632145881653,-0.36338475346565247,30.462547302246094,-10.347797393798828,39.1832160949707,0
226,2260176,-0.04990497976541519,-0.06577767431735992,-1.00285005569458,0.564200222492218,0.6349281668663025,1.074995994567871,30.28342056274414,-11.085872650146484,38.895530700683594,0
227,2269934,-0.03793644160032272,-0.02932644821703434,-1.0054458379745483,-0.25870653986930847,0.052224647253751755,0.7975595593452454,28.650667190551758,-10.422499656677246,37.737281799316406,0
228,2280171,-0.016841504722833633,-0.02228814736008644,-1.02155339717865,-0.30369704961776733,0.554130494594574,-0.2560483515262604,28.981922149658203,-8.751242637634277,40.83970260620117,0
229,2289842,0.07660382986068726,0.05667581409215927,-1.000359058380127,0.08524151146411896,-0.09796465933322906,0.20984312891960144,31.962474822998047,-9.322610855102539,39.114158630371094,0
230,2299877,0.06371940672397614,-0.03940775245428085,-0.9638499617576599,-0.15165695548057556,1.300696611404419,-0.572646975517273,29.86128044128418,-10.00270938873291,40.364585876464844,0
231,2310213,-0.04868452623486519,-0.013641469180583954,-1.0405632257461548,-0.009285890497267246,0.36547496914863586,0.2430991381406784,30.872314453125,-10.903389930725098,40.94216537475586,0
232,2319872,0.04598165675997734,-0.011090661399066448,-0.9837023019790649,-0.511655867099762,-0.3227410614490509,0.11495329439640045,30.221406936645508,-11.406469345092773,40.15758514404297,0
233,2330245,0.1000838354229927,-0.023559454828500748,-1.0437756776809692,-0.05483642965555191,0.5268073081970215,-0.5936455130577087,31.82069969177246,-10.133052825927734,41.852386474609375,0
234,2340164,-0.11690703779459,-0.0033920370042324066,-1.0294716358184814,-0.013461923226714134,-0.18794547021389008,-0.364589124917984,31.244020462036133,-11.84078598022461,39.68947982788086,0
235,2350036,-0.02405116893351078,-0.038540225476026535,-1.008473515510559,0.20501016080379486,-0.20494653284549713,0.43244850635528564,30.002197265625,-11.402891159057617,40.15967559814453,0
236,2360163,0.0466502346098423,0.0325753353536129,-1.0004085302352905,-0.11445852369070053,0.1350666880607605,0.18294578790664673,31.246721267700195,-7.75832986831665,40.632266998291016,0
237,2369900,-0.08030364662408829,-0.005337970796972513,-1.0224145650863647,0.7349811792373657,0.05774121358990669,0.16716119647026062,28.555749893188477,-8.932422637939453,39.86418533325195,0
238,2380097,-0.0719909593462944,0.020866941660642624,-1.0397051572799683,0.17488035559654236,-0.3948642909526825,0.31120678782463074,28.51349449157715,-9.819571495056152,40.593505859375,0
239,2390084,-0.0675351545214653,0.08132485300302505,-1.0320472717285156,-0.480935275554657,-0.6103209853172302,0.2440367490053177,30.501846313476562,-10.401208877563477,39.15432357788086,0
240,2399964,0.05243093520402908,-0.028117982670664787,-1.0054755210876465,-0.24277658760547638,-0.1037675067782402,-0.4379894435405731,30.30747413635254,-10.339272499084473,40.18074417114258,0
241,2409872,0.0236368291079998,0.011849631555378437,-1.0255526304244995,0.2781229317188263,-0.3144502639770508,-1.0569963455200195,30.92104148864746,-10.089044570922852,39.673221588134766,0
242,2419903,0.08191251754760742,-0.07687822729349136,-0.9908214807510376,-0.2418307662010193,0.5280008912086487,0.12916241586208344,30.02256202697754,-10.44554328918457,40.62508773803711,0
243,2430227,0.022772887721657753,-0.05846282094717026,-0.9962112903594971,0.46862736344337463,0.6922958493232727,-0.3288179636001587,28.755279541015625,-11.0737886428833,41.15333938598633,0
244,2440021,0.03322228044271469,-0.062055908143520355,-1.0116548538208008,0.023016171529889107,0.08994242548942566,0.538070559501648,31.15568733215332,-9.183327674865723,39.21934127807617,0
245,2450053,-0.0379515215754509,0.026557523757219315,-0.9969745874404907,-0.04747454449534416,0.027497554197907448,-0.3242698311805725,29.345571517944336,-12.308046340942383,38.959651947021484,0
246,2459830,0.07768473774194717,-0.010790525935590267,-0.9744045734405518,-0.7450940608978271,-0.21310846507549286,0.18584366142749786,29.081844329833984,-11.6136474609375,40.700843811035156,0
247,2469989,-0.008337213657796383,0.01711079105734825,-1.01522958278656,0.1229327991604805,-0.5425601005554199,0.12005303800106049,30.949642181396484,-11.79202651977539,39.97164535522461,0
248,2480189,-0.041001029312610626,0.04711296036839485,-0.997168242931366,-0.33979693055152893,1.1138886213302612,1.28877854347229,31.69127082824707,-10.461889266967773,39.09035110473633,0
249,2489799,0.004258883185684681,0.03494340926408768,-0.9735888242721558,0.09435766190290451,0.0994187444448471,1.1534647941589355,30.45409393310547,-8.076108932495117,39.732696533203125,0
250,2499676,-0.09329721331596375,-0.04336894676089287,-0.9915366172790527,-0.7717289924621582,-0.6662408709526062,0.6459120512008667,31.29496192932129,-10.117329597473145,40.77061080932617,0
251,2510065,-0.018264440819621086,0.012181064113974571,-0.981135368347168,-0.10471933335065842,0.2797876000404358,-0.6217124462127686,30.092323303222656,-10.337137222290039,39.99152374267578,0
252,2519952,0.032226357609033585,-0.021835964173078537,-1.002660870552063,-0.3604976236820221,-0.6390514373779297,0.309339702129364,30.632034301757812,-9.55423641204834,39.62459182739258,0
253,2529889,-0.009009803645312786,0.03107348084449768,-0.9886102080345154,0.1516178548336029,-0.15549883246421814,0.4556453227996826,28.20806884765625,-9.649862289428711,40.63831329345703,0
254,2540185,0.0968567505478859,0.013797582127153873,-0.9980117678642273,0.3285875916481018,0.2969655692577362,-0.5918018221855164,29.99452781677246,-10.317217826843262,40.177818298339844,0
255,2550223,0.03320810943841934,0.03536136820912361,-1.0233697891235352,0.25208204984664917,0.4029250144958496,0.9075300097465515,29.56109619140625,-9.063820838928223,39.08903884887695,0
256,2559946,0.032515354454517365,-0.10585387051105499,-0.9988598823547363,-1.2451649904251099,0.22946423292160034,0.9216436147689819,28.9531192779541,-9.561602592468262,40.08327102661133,0
257,2570084,0.057340700179338455,-0.0032549581956118345,-1.0001639127731323,-0.82795250415802,-0.7074292898178101,-0.2681097388267517,30.0357608795166,-11.284443855285645,41.35804748535156,0
258,2580026,0.0569491945207119,0.006892089731991291,-0.9880034923553467,0.6977772116661072,-0.35603535175323486,-0.484720379114151,30.028339385986328,-9.88347339630127,41.25871276855469,0
259,2589986,-0.006611623801290989,-0.03503086417913437,-1.009634017944336,0.40262624621391296,-0.02053183689713478,-0.02706960216164589,30.55292510986328,-9.68168830871582,39.41459655761719,0
260,2599972,-0.024167902767658234,0.08560620248317719,-0.9881408214569092,-0.28735125064849854,-0.4814032316207886,-0.2608299255371094,29.42460823059082,-9.877894401550293,39.8657112121582,0
261,2609917,0.016688987612724304,-0.04783584177494049,-0.9993239641189575,-0.427115797996521,0.6581953167915344,1.1025320291519165,29.70682144165039,-10.085610389709473,40.45743942260742,0
262,2620215,0.061449889093637466,0.03319259360432625,-1.0059555768966675,-0.08550876379013062,-0.4475001096725464,0.7391067743301392,29.735166549682617,-11.74002456665039,40.85888671875,0
263,2629656,0.0962575376033783,-0.017742086201906204,-0.9848371744155884,-0.36615419387817383,0.17469638586044312,-0.2130814790725708,30.62306785583496,-10.553564071655273,38.729488372802734,0
264,2639987,-0.02858046628534794,-0.008097429759800434,-1.000872254371643,-0.7429483532905579,0.4596206247806549,-0.6210685968399048,30.30099105834961,-9.023670196533203,40.09230041503906,0
265,2649701,-0.00357389566488564,-0.0052381111308932304,-0.9917407035827637,0.18682128190994263,-0.8550092577934265,0.13702411949634552,28.579118728637695,-10.46806812286377,38.48307800292969,0
266,2660207,-0.005979541689157486,-0.01376090943813324,-0.9892036318778992,-0.09907830506563187,-0.5232208967208862,0.06913203746080399,29.395605087280273,-9.125394821166992,41.548095703125,0
267,2669807,-0.046941451728343964,0.04032035917043686,-0.9999105930328369,-0.621282160282135,-0.7069221138954163,-0.3473008871078491,30.48798370361328,-9.606006622314453,39.45267868041992,0
268,2679997,0.027691112831234932,-0.08409623056650162,-0.984508216381073,-0.10089316964149475,0.06251224130392075,-0.18390297889709473,29.804473876953125,-9.22848892211914,40.2792854309082,0
269,2689841,0.0047221714630723,0.028156960383057594,-1.018725037574768,0.013756741769611835,0.6659039258956909,0.6523514986038208,28.658893585205078,-11.154325485229492,41.77486801147461,0
270,2699936,-0.019159046933054924,0.14954586327075958,-1.0195002555847168,-0.1878395974636078,0.10106384009122849,-0.10417997092008591,30.852102279663086,-9.49606704711914,41.766170501708984,0
271,2710066,0.047881826758384705,0.009509851224720478,-0.9729313850402832,0.10561901330947876,0.317097008228302,-0.44179829955101013,29.92526626586914,-9.811959266662598,39.54738998413086,0
272,2719890,0.07339287549257278,0.022204972803592682,-1.0161843299865723,-0.1980276107788086,-0.6877984404563904,0.17757625877857208,28.65174102783203,-10.23847484588623,39.20858383178711,0
273,2730028,-0.040987636893987656,0.0533902533352375,-0.9713454246520996,0.4698140621185303,0.5436262488365173,0.6759491562843323,27.44066047668457,-8.830924987792969,39.10612106323242,0
274,2739972,-0.049374066293239594,-0.033440522849559784,-1.0187937021255493,-0.12265150994062424,-0.2497626096010208,0.5938735008239746,30.674388885498047,-9.532896995544434,38.83382797241211,0
275,2749948,-0.01092859823256731,-0.02003040350973606,-1.0257396697998047,0.9276166558265686,-0.5141258239746094,0.21177145838737488,29.87589454650879,-8.177852630615234,41.60285949707031,0
276,2759928,-0.015021253377199173,-0.04205220565199852,-1.0102646350860596,0.2718723714351654,0.3992158770561218,0.8003605008125305,29.090213775634766,-10.845096588134766,39.72764205932617,0
277,2769880,-0.04092572256922722,0.060134004801511765,-1.0196962356567383,0.3465993404388428,0.4454341530799866,0.06483764201402664,29.351360321044922,-10.352076530456543,38.772666931152344,0
278,2780236,0.10841508209705353,0.025021765381097794,-1.0136961936950684,0.2127014845609665,0.06658192723989487,0.38294342160224915,29.70333480834961,-9.822591781616211,38.3162841796875,0
279,2790117,-0.0038356436416506767,0.02084251120686531,-0.9797150492668152,-0.39953291416168213,-0.12872247397899628,-0.07653345912694931,31.860010147094727,-9.437304496765137,39.45285415649414,0
280,2799840,-0.0077747805044054985,0.04057338833808899,-1.0332523584365845,-0.4610622823238373,0.03593747690320015,0.5913742780685425,31.241479873657227,-11.001416206359863,40.7036018371582,0
281,2810071,-0.05718087777495384,0.0006127382512204349,-1.0356638431549072,-0.04000849276781082,0.2146969586610794,-0.13622604310512543,29.567724227905273,-10.293510437011719,41.809547424316406,0
282,2819702,-0.014057323336601257,-0.020422175526618958,-0.9875601530075073,-0.2437238246202469,-0.5809119939804077,0.09787555783987045,28.85626792907715,-10.844452857971191,40.78619384765625,0
283,2830005,0.009766679257154465,-0.04513303562998772,-0.9799964427947998,0.09591686725616455,-0.9401138424873352,-0.3766738176345825,30.174373626708984,-10.043793678283691,39.90595245361328,0
284,2840159,-0.02017921395599842,0.051020123064517975,-0.9521623253822327,0.22437971830368042,0.05619092658162117,-0.24328497052192688,29.627147674560547,-10.40518856048584,40.352691650390625,0
285,2850222,0.10027793794870377,-0.06800323724746704,-0.9995578527450562,-0.06785544753074646,0.17108683288097382,-0.33843734860420227,29.2857666015625,-8.478443145751953,40.754302978515625,0
286,2859911,-0.05148114264011383,0.0261720921844244,-1.0298080444335938,-0.4320497512817383,-0.24789708852767944,-0.4598972499370575,31.522390365600586,-11.902604103088379,40.28726577758789,0
287,2869932,0.02587822638452053,-0.09490643441677094,-1.0150768756866455,-0.8283517956733704,0.13227479159832,-0.17799682915210724,31.49349021911621,-10.31070327758789,39.163421630859375,0
288,2880200,0.003946580458432436,0.014079909771680832,-1.026665449142456,0.28969863057136536,1.0871481895446777,-0.3550282120704651,30.794288635253906,-9.537545204162598,40.13019561767578,0
289,2889892,0.012366856448352337,0.061173874884843826,-1.0186247825622559,-0.16795869171619415,-0.6954242587089539,-0.11675992608070374,30.3080997467041,-9.10833740234375,40.669891357421875,0
290,2899911,0.045439086854457855,-0.09375820308923721,-0.9648520946502686,-0.20190690457820892,-0.5226746201515198,0.8678390979766846,27.952531814575195,-9.423164367675781,38.74601745605469,0
291,2910162,0.050254203379154205,-0.07734424620866776,-0.9823872447013855,0.13200971484184265,-0.10962948948144913,-0.34689006209373474,28.745817184448242,-9.151520729064941,38.35898971557617,0
292,2919822,-0.022049520164728165,0.027498513460159302,-1.0294767618179321,0.33613404631614685,0.28227901458740234,-0.3125925362110138,29.877235412597656,-10.62962532043457,38.68246841430664,0
293,2929898,-0.00644506374374032,-0.03414680063724518,-0.9747960567474365,0.19999323785305023,0.19246795773506165,-0.10939797759056091,29.69791603088379,-8.968568801879883,39.754337310791016,0
294,2939965,0.006186146754771471,0.006222461350262165,-1.0187984704971313,-0.18458090722560883,0.3139059245586395,-0.04526936635375023,30.40508460998535,-9.499570846557617,38.22649383544922,0
295,2949959,-0.08211338520050049,-0.03857914358377457,-1.01815927028656,-0.8501464128494263,0.7405422925949097,-0.30469104647636414,29.07952880859375,-10.44040298461914,40.68534469604492,0
296,2959900,-0.022431986406445503,0.07373443245887756,-0.9613445401191711,-0.01118393149226904,0.5729131698608398,-0.3907698690891266,29.077383041381836,-9.81959056854248,39.04983139038086,0
297,2970116,-0.021707996726036072,0.0684550479054451,-0.9980052709579468,-0.18733736872673035,-0.11546265333890915,-0.08177856355905533,30.06553840637207,-8.55080509185791,40.93623352050781,0
298,2980001,-0.0662815198302269,0.06214888393878937,-0.9949350953102112,0.4183790683746338,0.9372512102127075,0.5918087959289551,30.486278533935547,-9.259482383728027,42.08150100708008,0
299,2989803,0.02610103040933609,-0.04611385613679886,-1.0074081420898438,-0.21564969420433044,-0.6817145943641663,0.10877721011638641,31.38493537902832,-9.83455753326416,40.707149505615234,0
300,3000142,0.010381271131336689,-0.022157879546284676,-0.9886947870254517,-0.25590094923973083,0.3910520374774933,-0.7364243268966675,31.326154708862305,-11.009571075439453,41.12602996826172,0
301,3009834,0.00909617729485035,0.07256734371185303,-1.0007888078689575,1.0717558860778809,-0.14364735782146454,-0.4127470850944519,29.69540786743164,-9.796091079711914,39.57508087158203,0
302,3019942,-0.012561888433992863,-0.046133853495121,-1.0020532608032227,-0.5924957990646362,0.31482675671577454,-0.5534161329269409,29.494449615478516,-10.301414489746094,39.75303268432617,0
303,3029906,-0.025957031175494194,0.026783714070916176,-1.0031908750534058,0.5664870738983154,0.7258681058883667,-0.41636160016059875,27.94519805908203,-11.877178192138672,41.321449279785156,0
304,3039753,-0.014952908270061016,0.1233963593840599,-1.0185503959655762,-0.38063135743141174,-0.41693830490112305,-0.0773383304476738,30.50725555419922,-9.063386917114258,40.25766372680664,0
305,3049989,-0.06513860821723938,0.0019010455580428243,-0.9785739779472351,0.02853325940668583,-0.19750651717185974,-0.006178076379001141,29.265491485595703,-10.06375503540039,42.498775482177734,0
306,3059931,-0.02653062902390957,-0.02246255800127983,-1.032689094543457,0.5252225399017334,-0.744665801525116,0.29725468158721924,29.376766204833984,-9.3863525390625,39.405906677246094,0
307,3069724,-0.08229342103004456,0.010120864026248455,-1.0030827522277832,-0.15299029648303986,-0.22003991901874542,-0.5631601214408875,29.99604606628418,-10.391496658325195,39.36003875732422,0
308,3079866,0.04631153121590614,-0.038459599018096924,-1.013008952140808,0.21061909198760986,0.51969975233078,0.1779605746269226,29.886966705322266,-9.239178657531738,39.000728607177734,0
309,3090119,0.04130946472287178,-0.028046615421772003,-0.9774367213249207,0.3288988173007965,-0.1362450271844864,0.3023558557033539,30.301183700561523,-9.189797401428223,40.14899444580078,0
310,3099904,-0.029548252001404762,0.04176969453692436,-1.0401155948638916,-0.12140068411827087,0.22840286791324615,-0.03202499449253082,29.286062240600586,-9.258139610290527,38.18880081176758,0
311,3109853,-0.006278001703321934,0.03620243817567825,-1.0007169246673584,-0.19899655878543854,1.2021515369415283,0.6275968551635742,28.859848022460938,-9.849783897399902,40.722293853759766,0
312,3119874,-0.03773483261466026,0.012178418226540089,-1.0325381755828857,0.5788882374763489,0.27742546796798706,-0.5388867855072021,30.863004684448242,-10.112783432006836,39.40323257446289,0
313,3130220,-0.09578800946474075,-0.0049243103712797165,-0.9417222142219543,-0.4710760712623596,-0.40787971019744873,0.4545394480228424,29.244155883789062,-10.329121589660645,41.067203521728516,0
314,3139846,-0.005411517806351185,0.0410265289247036,-1.0068198442459106,-0.19470207393169403,-1.213057041168213,-0.5011449456214905,29.781768798828125,-9.25507926940918,39.53589630126953,0
315,3149867,-0.022365959361195564,-0.038521599024534225,-1.0363174676895142,0.07269011437892914,-0.5335249900817871,-0.18798115849494934,31.379528045654297,-10.266343116760254,39.63197326660156,0
316,3159981,0.02640834078192711,-0.06726095825433731,-1.0064153671264648,-0.469001829624176,0.4567859470844269,-0.8969457149505615,29.38804817199707,-9.651609420776367,40.84311294555664,0
317,3169841,0.026292843744158745,-0.04255600646138191,-0.9778926372528076,-0.6840630173683167,0.7534570693969727,0.3175567388534546,30.592573165893555,-10.483541488647461,39.052494049072266,0
318,3180062,0.030697153881192207,-0.036015912890434265,-0.988929033279419,0.3985205292701721,0.7111652493476868,0.7697533965110779,30.405841827392578,-10.99493408203125,39.92869567871094,0
319,3189832,0.013725760392844677,-0.04825954511761665,-1.033891201019287,-0.17903421819210052,0.16804422438144684,-0.8504325151443481,29.782264709472656,-11.088973999023438,38.7795295715332,0
320,3200211,-0.022558363154530525,0.11132119596004486,-0.9741754531860352,-0.36657577753067017,0.37507227063179016,0.34238070249557495,29.681777954101562,-8.79882526397705,38.801368713378906,0
321,3210149,0.01640188694000244,0.043998368084430695,-1.000253438949585,0.013619213365018368,-0.30921670794487,-0.8835037350654602,28.95751953125,-9.387853622436523,38.84891891479492,0
322,3220218,0.0069978563115000725,-0.05570673942565918,-1.009376049041748,-0.16239722073078156,-0.18471308052539825,-0.10015882551670074,30.33623504638672,-10.56692886352539,39.108524322509766,0
323,3229578,0.03299928084015846,0.05718512460589409,-0.9889029860496521,-0.0005733694997616112,-0.3242052495479584,-1.0419585704803467,30.984458923339844,-12.486624717712402,39.348594665527344,0
324,3240110,0.07211510092020035,-0.03928222134709358,-0.944675624370575,-0.5872330069541931,-0.36393776535987854,0.39028558135032654,30.677671432495117,-11.425188064575195,39.471046447753906,0
325,3249829,-0.06035004183650017,-0.03526610508561134,-1.007901906967163,0.7560691237449646,0.2229730635881424,-0.5224952697753906,29.004072189331055,-8.626687049865723,42.365718841552734,0
326,3259933,0.028092090040445328,-0.04272209107875824,-0.9673528075218201,-0.45674750208854675,0.10344890505075455,-0.1516534686088562,29.3455867767334,-8.822205543518066,40.49217987060547,0
327,3270189,-0.02478664554655552,0.02373383566737175,-1.011310338973999,0.389712393283844,-0.11937089264392853,-0.093116395175457,30.819530487060547,-8.468255996704102,38.77546310424805,0
328,3280247,0.09167950600385666,0.017117803916335106,-1.0001901388168335,0.14659717679023743,-0.5866526365280151,0.17129896581172943,30.83612060546875,-10.116044998168945,40.3853874206543,0
329,3289967,-0.03582809865474701,-0.05689433589577675,-1.004181146621704,-0.05293520912528038,0.2662949562072754,-0.0007900797645561397,30.01519775390625,-11.818612098693848,38.88743209838867,0
330,3300205,0.026031862944364548,-0.02198508195579052,-1.0250571966171265,-0.40840208530426025,-0.7124119997024536,0.00014392547018360347,29.06793975830078,-10.199017524719238,39.01405334472656,0
331,3309992,0.04208116605877876,0.047955576330423355,-1.009778618812561,0.7207591533660889,-0.12279985100030899,0.488282173871994,30.524259567260742,-8.89781379699707,39.08510208129883,0
332,3320183,-0.0025806387420743704,-0.013301901519298553,-1.0061711072921753,0.5445651412010193,0.04306109622120857,-0.8543643355369568,29.824451446533203,-12.953207969665527,39.21078872680664,0
333,3330240,0.04856143519282341,0.07140210270881653,-1.0174106359481812,-0.6720691323280334,1.0289779901504517,0.06901151686906815,29.850364685058594,-10.862351417541504,39.06763458251953,0
334,3340007,0.026683291420340538,0.040217529982328415,-0.992445170879364,-0.1475730836391449,-0.48839688301086426,-0.41922855377197266,30.6651554107666,-11.048813819885254,39.53657531738281,0
335,3349808,-0.07844889163970947,-0.04874475300312042,-0.9796783924102783,0.35529425740242004,-0.28501707315444946,0.1469612866640091,28.765594482421875,-8.430330276489258,40.91309356689453,0
336,3359901,0.011629827320575714,0.012466516345739365,-0.985593855381012,0.13435019552707672,0.11486538499593735,-0.13167965412139893,31.091747283935547,-9.28016185760498,40.76234436035156,0
337,3370126,0.00666103744879365,-0.04376682639122009,-0.9992279410362244,-0.03939596191048622,1.069923996925354,-0.1662958413362503,30.376157760620117,-10.727416038513184,41.24427795410156,0
338,3380018,-0.03975145146250725,0.011406910605728626,-0.99954754114151,0.7079293131828308,-0.06129491701722145,-0.9111836552619934,31.0478515625,-10.66108226776123,39.95435333251953,0
339,3389911,-0.0343874916434288,0.018329178914427757,-0.9978631138801575,0.9411585330963135,0.1389482021331787,0.5867264866828918,28.553396224975586,-11.453857421875,40.03750228881836,0
340,3400059,0.10592357814311981,0.021791309118270874,-0.9942368865013123,-0.6549290418624878,-0.45347005128860474,1.0811671018600464,29.35462188720703,-8.617192268371582,39.185054779052734,0
341,3409828,-0.01179405115544796,-0.03088199719786644,-0.9879499077796936,0.03767998516559601,0.254601389169693,0.10649284720420837,29.889371871948242,-9.709654808044434,39.24478530883789,0
342,3420011,0.049605995416641235,0.009594835340976715,-1.001071572303772,-0.5074769854545593,-0.5018166899681091,0.05016681179404259,31.289382934570312,-11.952625274658203,39.12582778930664,0
343,3429997,-0.11552929133176804,-0.09807601571083069,-1.0238083600997925,0.2379823625087738,-0.2906814515590668,-0.5094823241233826,30.04111099243164,-7.682353973388672,38.78889083862305,0
344,3439985,-0.05857240408658981,0.000734782253857702,-0.9802729487419128,0.10499167442321777,0.7214672565460205,0.9687853455543518,28.788724899291992,-9.092057228088379,42.02353286743164,0
345,3449774,0.03788221254944801,0.018498864024877548,-1.0123779773712158,-0.5331895351409912,0.17626740038394928,0.22243951261043549,31.3424015045166,-8.627935409545898,41.55282211303711,0
346,3460090,0.0030492544174194336,0.13262782990932465,-1.0261285305023193,0.19560606777668,0.4447716176509857,-0.07821258902549744,30.019554138183594,-10.29577350616455,39.648826599121094,0
347,3470252,-0.028209351003170013,-0.044818274676799774,-1.0092984437942505,0.1804814636707306,-0.6095636487007141,0.05838494002819061,30.622011184692383,-10.657767295837402,40.87920379638672,0
348,3479854,0.010782282799482346,-0.026494218036532402,-0.966458797454834,0.5306903719902039,0.11095201224088669,0.4045102894306183,31.42766761779785,-9.096774101257324,39.860328674316406,0
349,3489691,-0.04834883660078049,-0.10680396109819412,-0.9852767586708069,0.7756856083869934,0.35174500942230225,0.054048098623752594,30.83576011657715,-8.778881072998047,39.96485137939453,0
350,3499670,-0.10344641655683517,-0.012449021451175213,-1.0153566598892212,-0.4163638949394226,-0.43930524587631226,-0.8276734352111816,29.851858139038086,-9.082324981689453,40.21253967285156,0
351,3509630,0.07914009690284729,-0.03542780131101608,-1.0154489278793335,-0.12047351896762848,0.5393484234809875,0.24502870440483093,30.05202865600586,-10.423287391662598,39.61271667480469,0
352,3519941,0.016027767211198807,-0.034736696630716324,-0.9929976463317871,-0.8526897430419922,-0.5248197317123413,1.7516430616378784,27.151540756225586,-9.970136642456055,40.325645446777344,0
353,3530172,0.01962808519601822,-0.021622760221362114,-0.957654595375061,-0.9623808264732361,0.277872771024704,-0.1953534483909607,30.282779693603516,-11.239641189575195,40.087684631347656,0
354,3540048,-0.04099217429757118,0.02394404634833336,-1.0291990041732788,-0.032960619777441025,-0.12641125917434692,-0.6263555884361267,28.678207397460938,-11.18385124206543,41.32217788696289,0
355,3549835,-0.05028126761317253,-0.005136601161211729,-0.9861987233161926,-0.41076916456222534,-0.016991108655929565,-0.30965903401374817,29.586416244506836,-9.839692115783691,39.61125183105469,0
356,3560332,-0.16084501147270203,0.0782773345708847,-1.0347404479980469,0.7704055309295654,1.5422035455703735,-0.5817723870277405,28.699098587036133,-10.855975151062012,41.29716873168945,0
357,3570000,0.007579512428492308,-0.025492126122117043,-0.9554322361946106,-0.4914245009422302,-0.5636365413665771,0.07840174436569214,28.307510375976562,-9.397611618041992,40.574214935302734,0
358,3579880,-0.006171548739075661,0.024685988202691078,-0.9805384874343872,0.043817486613988876,-0.005256672855466604,0.11144202947616577,29.777385711669922,-10.554821968078613,39.86570358276367,0
359,3589679,0.02649005874991417,0.12035224586725235,-0.998066246509552,-0.9925855398178101,-0.7963939309120178,0.4304865896701813,28.981435775756836,-10.909875869750977,41.75101852416992,0
360,3599958,-0.034604817628860474,0.022475002333521843,-1.0038219690322876,1.3847506046295166,0.5138291716575623,-0.48573681712150574,29.96158218383789,-9.4410400390625,39.637535095214844,0
361,3610138,0.10138566046953201,-0.038806360214948654,-1.0200008153915405,0.7375458478927612,0.7429102659225464,-0.7682896256446838,27.758760452270508,-8.485566139221191,40.09929656982422,0
362,3619768,-0.04028334096074104,-0.004062344320118427,-1.0212947130203247,0.4349132776260376,0.035259947180747986,-0.041620589792728424,28.501977920532227,-11.206933975219727,38.55662155151367,0
363,3629841,0.032110169529914856,-0.05333802476525307,-0.9931333065032959,0.626059353351593,0.16410556435585022,0.13807474076747894,31.47943878173828,-10.333304405212402,41.270912170410156,0
364,3639898,-0.04859032481908798,0.06767671555280685,-1.003959059715271,-0.014000171795487404,0.21587178111076355,-0.8570311069488525,30.706432342529297,-8.960776329040527,39.539764404296875,0
365,3649853,-0.08438703417778015,0.01339106634259224,-1.010025143623352,-0.37283310294151306,-0.05457211658358574,0.1752963364124298,30.827735900878906,-7.778013706207275,41.31257247924805,0
366,3659897,-0.07769941538572311,-0.05075545236468315,-0.9761943817138672,-0.5819718241691589,0.15946590900421143,-0.5181217789649963,31.116422653198242,-9.430331230163574,40.726131439208984,0
367,3669952,-0.03984985128045082,0.04533083364367485,-1.0145292282104492,0.02044190838932991,-0.48489898443222046,-0.014239160344004631,30.993356704711914,-10.485893249511719,40.986392974853516,0
368,3680084,0.07095456123352051,0.10475899279117584,-1.0220202207565308,-0.02076052874326706,0.4487594962120056,-0.1831045150756836,29.291757583618164,-9.88308048248291,38.982669830322266,0
369,3690083,0.04550885409116745,0.08109397441148758,-1.0104137659072876,-0.0806785598397255,-0.5042591094970703,0.014196641743183136,29.95903968811035,-10.229349136352539,38.958885192871094,0
370,3700069,0.024009542539715767,0.03770686686038971,-0.9833441972732544,-0.9790990352630615,0.47653189301490784,0.2539251446723938,28.439144134521484,-9.38477897644043,40.19136428833008,0
371,3710234,-0.02326567843556404,0.020537588745355606,-0.9935954809188843,-0.5695599317550659,-0.3769416809082031,-0.13096028566360474,31.840755462646484,-10.395959854125977,38.51682662963867,0
372,3720118,-0.06301484256982803,0.08773462474346161,-1.0201032161712646,-1.3359222412109375,-0.034532252699136734,-0.1854599416255951,28.86326789855957,-10.36751651763916,40.4031867980957,0
373,3730174,0.003057077992707491,0.02645048126578331,-0.9916892647743225,-0.3963424265384674,-0.10333210974931717,-0.16522648930549622,29.975933074951172,-11.657179832458496,40.078033447265625,0
374,3740186,0.04039883241057396,0.09088325500488281,-1.0074020624160767,-1.2077112197875977,0.6164954900741577,0.9592448472976685,29.718189239501953,-11.08151912689209,40.80885696411133,0
375,3750104,-0.05130147561430931,0.06357381492853165,-1.0033003091812134,0.18958881497383118,-0.1778542399406433,0.5830292105674744,29.750980377197266,-10.516240119934082,39.86180877685547,0
376,3760015,0.021008946001529694,0.04205266013741493,-0.9867249727249146,-0.26476147770881653,0.5940277576446533,-0.09586334228515625,29.421977996826172,-8.200864791870117,40.07807922363281,0
377,3769816,-0.004103252198547125,-0.09917735308408737,-1.01701021194458,0.3479412794113159,0.36479586362838745,-0.40565627813339233,29.63744354248047,-9.59627628326416,40.15044403076172,0
378,3779810,0.019947146996855736,-0.01670081540942192,-1.0187050104141235,-0.1180759146809578,0.45382049679756165,-0.03764857351779938,28.42738151550293,-12.10767936706543,41.45613479614258,0
379,3789796,-0.06588855385780334,0.01057413313537836,-0.9735780358314514,0.06058073788881302,-0.2032514214515686,0.6351798176765442,28.072233200073242,-9.698922157287598,38.80247116088867,0
380,3799923,0.07810370624065399,0.032859984785318375,-0.9997765421867371,-0.17313449084758759,-0.33488497138023376,0.2933276295661926,32.08133316040039,-11.392504692077637,39.557586669921875,0
381,3810131,0.007921145297586918,0.06313376873731613,-1.0102059841156006,-0.07285235077142715,0.553183376789093,-0.06705567985773087,30.319568634033203,-11.808320999145508,39.16213607788086,0
382,3820007,0.02214983105659485,-0.07439624518156052,-1.039784550666809,0.6312803030014038,0.5543500185012817,0.23205426335334778,29.45991325378418,-11.350858688354492,39.63553237915039,0
383,3830010,0.03459429368376732,-0.0165714118629694,-0.990953266620636,-0.039772387593984604,0.11087468266487122,0.2748998701572418,31.70534896850586,-10.212006568908691,40.73706817626953,0
384,3840001,-0.039248716086149216,0.07995567470788956,-1.0263924598693848,-0.15164336562156677,0.4860997796058655,0.4900902807712555,29.58795166015625,-9.342379570007324,37.97623062133789,0
385,3850079,0.08440747857093811,-0.059440623968839645,-0.9839616417884827,0.6460525989532471,0.23139002919197083,0.1648312658071518,30.363527297973633,-9.709027290344238,39.892784118652344,0
386,3860174,0.022445812821388245,-0.02813556045293808,-1.015311598777771,1.093380331993103,0.6903277635574341,-0.4901115894317627,29.22351837158203,-8.424844741821289,40.93780517578125,0
387,3870123,-0.026891615241765976,0.009553882293403149,-0.9887651205062866,-0.42176100611686707,0.38223326206207275,-0.14651113748550415,31.019981384277344,-9.035565376281738,39.92932891845703,0
388,3880164,0.08561234921216965,0.0013891098788008094,-1.0030018091201782,-0.25463852286338806,0.434154212474823,0.3708243668079376,29.46546173095703,-9.69499397277832,39.494693756103516,0
389,3889923,0.041673775762319565,0.06011621654033661,-1.0009135007858276,-0.5555533766746521,-0.6941867470741272,0.10295004397630692,30.29168701171875,-10.991863250732422,41.067501068115234,0
390,3900172,0.04364965856075287,0.006352053489536047,-0.9791281819343567,-0.60495924949646,-0.48094823956489563,0.8475844264030457,30.491769790649414,-9.334321975708008,39.7457389831543,0
391,3910219,0.027246559038758278,0.030391376465559006,-1.0046563148498535,0.5940567255020142,0.9249772429466248,-0.39544159173965454,29.872486114501953,-10.739508628845215,41.451904296875,0
392,3919936,0.09144098311662674,0.10855494439601898,-1.021633267402649,0.2373805195093155,-0.6890755891799927,0.03661412373185158,29.173255920410156,-8.743439674377441,40.05743408203125,0
393,3929993,0.002654280047863722,-0.043048422783613205,-1.0404876470565796,0.2069319784641266,1.1436854600906372,0.4720831513404846,29.92914581298828,-9.594045639038086,40.083553314208984,0
394,3940017,-0.061929021030664444,-0.02982252463698387,-1.006419062614441,0.5936685800552368,0.46404018998146057,0.39397287368774414,30.50246238708496,-10.411895751953125,39.803646087646484,0
395,3949737,0.05031648278236389,-0.01038847304880619,-0.9991423487663269,-0.6109429597854614,-0.29713451862335205,0.24709489941596985,30.788475036621094,-9.012392044067383,38.377525329589844,0
396,3960192,0.035901159048080444,0.02144981361925602,-0.9567689299583435,-0.6501489281654358,0.10237891227006912,0.40511012077331543,28.638336181640625,-9.270198822021484,40.102203369140625,0
397,3970163,0.03734728693962097,-0.02761766128242016,-0.9909794926643372,0.01138422079384327,-0.2154492437839508,0.19795720279216766,30.025543212890625,-9.218989372253418,39.865562438964844,0
398,3980157,0.09543862193822861,-0.006713253911584616,-0.9950236082077026,0.5574480295181274,-0.5828357338905334,1.0230064392089844,31.057735443115234,-9.923233985900879,40.41636657714844,0
399,3990028,0.0890163779258728,0.021092496812343597,-1.0258119106292725,-1.1517071723937988,0.10288942605257034,0.234658882021904,28.465303421020508,-11.141661643981934,41.31509780883789,0
400,4000399,0.00029480396187864244,-0.0324617363512516,-0.9935411810874939,-0.04665398597717285,-0.7650511860847473,-0.5482603311538696,29.451765060424805,-9.652046203613281,39.49821090698242,0
401,4009826,-0.022730901837348938,-0.09665074199438095,-1.0056507587432861,-0.2254447638988495,-0.24713556468486786,0.4328377842903137,31.244874954223633,-9.971393585205078,39.438804626464844,0
402,4020072,-0.04242795705795288,-0.026199528947472572,-1.0173293352127075,0.5411990880966187,0.9902392625808716,0.15684005618095398,29.847787857055664,-9.877843856811523,39.71395492553711,0
403,4029950,-0.0032199015840888023,0.01992468349635601,-1.0134203433990479,0.2264174520969391,-0.33877578377723694,0.30685755610466003,32.18992614746094,-10.305240631103516,38.54693603515625,0
404,4039734,-0.056924499571323395,-0.05523284897208214,-1.025823712348938,0.10552704334259033,0.8369370698928833,-0.15627366304397583,29.09635353088379,-6.8885955810546875,41.61723709106445,0
405,4049782,0.004125983454287052,0.08368328213691711,-1.0140646696090698,-1.0159801244735718,-0.6873549818992615,-0.44491004943847656,29.696155548095703,-10.883261680603027,41.69226837158203,0
406,4060105,-0.06480301916599274,0.05429325997829437,-1.037000060081482,0.3209875524044037,-0.12052733451128006,-0.22307145595550537,30.689191818237305,-10.321955680847168,41.201541900634766,0
407,4069928,-0.010846972465515137,-0.034430015832185745,-1.030508041381836,-0.186981663107872,-0.11150843650102615,0.32858532667160034,29.215801239013672,-9.908548355102539,42.029197692871094,0
408,4079924,-0.044968076050281525,0.006459316238760948,-1.0052261352539062,-0.15645773708820343,1.1018613576889038,-1.231047511100769,30.05830192565918,-9.803982734680176,39.84899139404297,0
409,4089927,0.04137439280748367,-0.04458301141858101,-1.0326337814331055,0.04779718071222305,0.379777729511261,0.7157865166664124,29.598995208740234,-12.806775093078613,39.191192626953125,0
410,4100116,-0.04060599207878113,-0.03236258402466774,-0.974998414516449,-0.2489575445652008,-0.3858884871006012,0.659073531627655,30.226350784301758,-10.426835060119629,40.650543212890625,0
411,4109851,-0.015911784023046494,0.016781151294708252,-1.0074779987335205,-0.11151948571205139,-0.3852340877056122,-0.11016970127820969,30.688810348510742,-11.667698860168457,40.469970703125,0
412,4119880,0.061987098306417465,-0.050673749297857285,-0.9944237470626831,0.6094253063201904,-0.558992326259613,-0.6266888976097107,29.907806396484375,-12.840174674987793,40.60847473144531,0
413,4129923,-0.020595043897628784,0.019532864913344383,-1.0300121307373047,-0.3934346139431,0.2978173494338989,-0.11598137021064758,28.693984985351562,-9.475077629089355,39.62428665161133,0
414,4140094,0.068933866918087,-0.021992940455675125,-1.0371149778366089,-0.4355646073818207,-0.11302462965250015,0.2070997953414917,29.466930389404297,-9.567089080810547,41.32143020629883,0
415,4150302,0.0578969307243824,-0.08376507461071014,-1.0050086975097656,-0.28027278184890747,0.4607103168964386,-0.2797395884990692,30.100933074951172,-7.785607814788818,40.82292556762695,0
416,4159909,-0.05580253526568413,0.024379175156354904,-1.0093142986297607,-0.470454603433609,-1.6659339666366577,0.0439906120300293,29.227575302124023,-9.317951202392578,40.695621490478516,0
417,4169898,0.06581044942140579,0.006349471863359213,-0.9876939058303833,0.052229929715394974,-0.2938206195831299,0.22265911102294922,30.155160903930664,-9.102705955505371,40.298194885253906,0
418,4180010,-0.09181762486696243,0.009660949930548668,-1.0285073518753052,0.0802212655544281,-0.2767002284526825,0.20819057524204254,31.152109146118164,-8.821918487548828,39.693870544433594,0
419,4189934,0.022213207557797432,0.0236655343323946,-0.9947171807289124,0.16885778307914734,0.2777002155780792,-0.5273978114128113,28.622314453125,-9.751983642578125,40.957523345947266,0
420,4200027,-0.05171031877398491,0.035735394805669785,-0.9585424661636353,-0.0063522993586957455,-0.3336787223815918,-0.31317439675331116,28.879745483398438,-11.382254600524902,39.815853118896484,0
421,4209911,0.020833376795053482,-0.02560035139322281,-0.9982029795646667,-0.12893319129943848,-0.15037116408348083,-1.3775283098220825,30.53367042541504,-9.42871379852295,41.30085372924805,0
422,4220143,-0.07133328169584274,-0.013280043378472328,-1.023598313331604,0.06823897361755371,-1.0062566995620728,0.5161426067352295,30.70922088623047,-10.182906150817871,39.92097473144531,0
423,4229829,0.02316184714436531,-0.019544033333659172,-1.0226709842681885,0.5458027124404907,-0.30327415466308594,0.6199482679367065,29.432092666625977,-9.3374605178833,39.27961349487305,0
424,4239998,-0.0161407683044672,-0.08093535900115967,-0.9900227785110474,-0.7494972944259644,0.5342861413955688,0.14322583377361298,30.917593002319336,-9.547944068908691,39.206321716308594,0
425,4249837,0.09281854331493378,-0.010664265602827072,-0.9787821769714355,-0.2481343299150467,0.24408802390098572,0.36947599053382874,29.568809509277344,-9.612934112548828,40.04225540161133,0
426,4260000,0.021686825901269913,-0.028200555592775345,-0.9803757071495056,-0.5707940459251404,0.1554466038942337,0.10114789754152298,29.030250549316406,-9.936284065246582,42.23276901245117,0
427,4270044,-0.07102136313915253,0.06712491810321808,-0.9919826984405518,0.05123516917228699,0.4757858216762543,-0.5994122624397278,31.53202247619629,-9.918851852416992,38.90921401977539,0
428,4280342,0.0315224714577198,-0.0054574147798120975,-0.9927476644515991,0.20142069458961487,-0.4769858121871948,-0.36961179971694946,29.972076416015625,-11.92612075805664,39.3560905456543,0
429,4289725,-0.00811999011784792,-0.010061537846922874,-1.0265973806381226,-0.5530089139938354,0.8093392252922058,-0.39208492636680603,30.43395233154297,-9.329706192016602,39.19365692138672,0
430,4299819,0.03318389132618904,0.015266954898834229,-1.0048646926879883,0.41175344586372375,-1.4883532524108887,-0.7754871249198914,30.346776962280273,-10.318774223327637,40.28145217895508,0
431,4310121,0.07341411709785461,0.028086764737963676,-0.9956576228141785,0.18987134099006653,-0.46814364194869995,-0.7030459642410278,28.519393920898438,-10.066476821899414,39.54326248168945,0
432,4320099,-0.01500303391367197,-0.007217050064355135,-0.9838835597038269,0.3999023139476776,-0.11339587718248367,0.9126115441322327,29.675512313842773,-9.06310749053955,40.336158752441406,0
433,4330019,0.01993301510810852,-0.01757154054939747,-0.9789401888847351,-0.020182007923722267,-0.29179811477661133,0.7149244546890259,29.548051834106445,-10.906159400939941,39.7537727355957,0
434,4340209,0.03987419232726097,0.050209127366542816,-0.9754814505577087,0.4078083336353302,-0.004289073403924704,0.46961870789527893,28.99671173095703,-10.000383377075195,39.08493423461914,0
435,4349761,0.08564096689224243,-0.06416523456573486,-1.0162832736968994,-0.18430262804031372,-0.19111770391464233,-0.25946667790412903,30.724700927734375,-12.209212303161621,39.14836502075195,0
436,4359946,0.03712331876158714,0.042430661618709564,-1.009389042854309,0.07231303304433823,-0.26525425910949707,0.21475277841091156,29.350051879882812,-10.276566505432129,39.66310119628906,0
437,4369929,0.042051490396261215,-0.0034387160558253527,-1.0211718082427979,-1.6319249868392944,0.22808456420898438,-0.04622117802500725,30.231237411499023,-9.293540000915527,38.80400466918945,0
438,4380090,0.0072158584371209145,0.011851594783365726,-0.9957264065742493,-0.029492037370800972,0.8574620485305786,0.015148124657571316,29.780059814453125,-9.009893417358398,40.456600189208984,0
439,4390107,0.0035812975838780403,0.0663631409406662,-0.986162006855011,-0.6288093328475952,0.9542168974876404,-0.5278071761131287,31.496057510375977,-9.905861854553223,39.13993835449219,0
440,4399864,-0.01759406551718712,-0.11805681884288788,-0.9717133641242981,0.4262981116771698,0.24533817172050476,-0.3837535083293915,29.661808013916016,-10.095804214477539,38.93722915649414,0
441,4410199,0.01643739826977253,0.05461776629090309,-1.0036505460739136,-0.547381579875946,-0.14875172078609467,-0.19744427502155304,30.72467041015625,-11.517696380615234,39.216148376464844,0
442,4419877,0.00024032646615523845,-0.06927568465471268,-1.0076946020126343,-0.04090391471982002,-0.5291618704795837,-0.25063031911849976,28.918655395507812,-11.229775428771973,38.667911529541016,0
443,4430002,0.06524021178483963,-0.010620467364788055,-1.0038148164749146,0.16585612297058105,0.5618763566017151,-0.5465065836906433,29.139570236206055,-9.936034202575684,40.93349838256836,0
444,4439897,0.004326267633587122,0.008829403668642044,-1.0023146867752075,-0.14195144176483154,-0.9636698365211487,-0.2645866274833679,30.5194091796875,-7.915194988250732,42.79094696044922,0
445,4450260,-0.05851500481367111,-0.0019631937611848116,-1.0405752658843994,0.5043535232543945,0.354353129863739,-0.7724936604499817,29.83683204650879,-9.329584121704102,39.40012741088867,0
446,4460016,0.027976909652352333,-0.060786351561546326,-0.993948757648468,-0.08399441093206406,0.7950994968414307,-0.08573535084724426,30.14381980895996,-10.275102615356445,38.87003707885742,0
447,4469917,0.051044732332229614,-0.01213869359344244,-0.999921441078186,-0.2504465579986572,-0.4166313111782074,-0.07668785005807877,29.851560592651367,-10.214166641235352,39.35063552856445,0
448,4480173,0.036521196365356445,0.08229479938745499,-0.9819777607917786,-0.34939178824424744,-0.2703329622745514,-0.208805650472641,29.34366226196289,-8.482691764831543,40.84587860107422,0
449,4489834,-0.0658002495765686,-0.00024858073447830975,-0.9611623883247375,0.18409280478954315,-0.11474622786045074,-0.15808139741420746,29.63608169555664,-10.139391899108887,39.820858001708984,0
450,4499792,0.10199126601219177,0.03055650368332863,-0.981461226940155,0.3672768175601959,-0.2901071608066559,-0.4579649269580841,30.768339157104492,-10.977550506591797,40.26973342895508,0
451,4509897,-0.04618050903081894,-0.016554074361920357,-0.9960423707962036,-0.20088832080364227,0.068266861140728,-0.026543786749243736,31.178409576416016,-9.058145523071289,38.74723434448242,0
452,4520003,-0.017964251339435577,0.0761270746588707,-0.9985036849975586,-1.3474541902542114,0.5400980114936829,0.5576884746551514,29.820112228393555,-9.90465259552002,41.89561080932617,0
453,4529962,-0.014717011712491512,-0.014045176096260548,-0.991089940071106,0.33785539865493774,0.05065879970788956,0.038638874888420105,30.301305770874023,-8.911163330078125,40.041385650634766,0
454,4540075,0.029055049642920494,0.06102360785007477,-0.9788529276847839,0.13914549350738525,-1.0789891481399536,0.23479019105434418,30.32164764404297,-9.730180740356445,40.16118621826172,0
455,4549773,-0.07237371802330017,-0.010405813343822956,-1.022759199142456,-0.6016045212745667,0.10473133623600006,-0.9495181441307068,32.50175094604492,-11.72641658782959,38.88105392456055,0
456,4560160,-0.006068893242627382,0.03878163918852806,-1.0030343532562256,-0.14736513793468475,-0.7168428897857666,0.015353845432400703,30.24673843383789,-10.113125801086426,40.119728088378906,0
457,4570028,0.1236991211771965,0.07359666377305984,-0.9772019386291504,0.020393796265125275,-0.3268778920173645,-0.23085317015647888,28.98859977722168,-10.470917701721191,41.61705017089844,0
458,4579877,0.07622304558753967,-0.04647454246878624,-0.9427862167358398,0.1307586133480072,-0.5601596236228943,1.2768694162368774,29.467391967773438,-10.421584129333496,40.014434814453125,0
459,4590037,-0.004528598859906197,-0.016236882656812668,-0.9988850951194763,0.4987645447254181,-1.0106829404830933,-0.09759920090436935,31.20585823059082,-10.408890724182129,39.90601348876953,0
460,4600200,-0.030423970893025398,0.046449530869722366,-0.9998455047607422,0.6132264733314514,0.09231910854578018,0.4242247939109802,29.178789138793945,-11.68192195892334,40.231231689453125,0
461,4609985,0.003695211373269558,-0.00874265842139721,-0.9667858481407166,-0.1087370216846466,-0.011989968828856945,-0.6848980188369751,30.492876052856445,-7.324359893798828,41.4619140625,0
462,4619813,-0.10035122185945511,-0.06845756620168686,-0.9884048700332642,-0.6484041810035706,-0.21670980751514435,0.2784997522830963,29.08100700378418,-8.618444442749023,41.42202377319336,0
463,4630096,-0.021519070491194725,0.05466343089938164,-0.9854631423950195,-1.122127890586853,-0.9124562740325928,-0.7009819746017456,29.44533920288086,-8.26052474975586,39.4649658203125,0
464,4639985,0.027512729167938232,-0.03434344753623009,-0.990709662437439,0.7418166399002075,-0.00153932417742908,-0.12050178647041321,30.16728401184082,-11.032197952270508,39.4877815246582,0
465,4650067,0.0005248695961199701,0.11764558404684067,-1.047892451286316,-0.4022580087184906,0.2183353751897812,-0.5565758347511292,32.330421447753906,-8.39246940612793,40.15508270263672,0
466,4660118,0.0371694341301918,-0.07556553184986115,-0.9894322752952576,0.059129562228918076,0.29412350058555603,-0.707761824131012,32.08699417114258,-8.210144996643066,39.15394592285156,0
467,4670021,0.011377768591046333,-0.04365800321102142,-0.9883478879928589,0.22317765653133392,0.06205490976572037,0.1582680493593216,29.02461814880371,-12.52042293548584,40.549644470214844,0
468,4679935,0.005129251629114151,-0.0035227190237492323,-1.025833010673523,-0.024043988436460495,-0.22126643359661102,0.7669282555580139,29.748743057250977,-9.454520225524902,39.300411224365234,0
469,4690019,0.01902979053556919,0.001980720553547144,-0.9870718121528625,0.23314444720745087,-0.5413123965263367,0.019924649968743324,31.21174430847168,-11.510235786437988,41.049591064453125,0
470,4699991,-0.04222198203206062,-0.007651219610124826,-0.9905517101287842,0.43470144271850586,-0.32340767979621887,-0.3081885874271393,30.32179069519043,-11.30898666381836,38.625335693359375,0
471,4709908,-0.10017280280590057,0.010530151426792145,-0.9909178614616394,0.5080142021179199,0.9195798635482788,-0.6808208227157593,32.070064544677734,-9.51892375946045,41.27906036376953,0
472,4719742,-0.04605583846569061,-0.0305743757635355,-0.9970852732658386,-0.48207396268844604,-0.2728343904018402,-0.7689080834388733,29.86676788330078,-10.043394088745117,38.88372802734375,0
473,4729892,0.02848293073475361,0.008462720550596714,-1.0016372203826904,0.7022009491920471,0.4351292848587036,0.026769140735268593,30.0534725189209,-8.42554759979248,38.382389068603516,0
474,4740049,-0.014058243483304977,0.011177558451890945,-1.0320414304733276,0.5282922387123108,0.6839330792427063,0.4964655041694641,30.226755142211914,-11.584081649780273,37.77325439453125,0
475,4749957,-0.07853838056325912,-0.005696197040379047,-0.9910697937011719,0.8061994314193726,-0.8207806944847107,-0.14851556718349457,30.74007797241211,-10.520031929016113,41.708290100097656,0
476,4760197,0.05093194916844368,0.004327979404479265,-0.9965171813964844,0.08855326473712921,-0.7247877717018127,0.5092114210128784,30.20908546447754,-9.002547264099121,40.30701446533203,0
477,4769936,-0.05173853039741516,0.016319196671247482,-1.0032222270965576,0.09613625705242157,-0.2897924780845642,-0.2146948128938675,29.17596435546875,-9.74399471282959,39.08045196533203,0
478,4779932,0.02650613524019718,-0.028071919456124306,-1.0168801546096802,0.32298263907432556,-0.02958289533853531,-0.6978533864021301,30.070926666259766,-11.710850715637207,39.43756103515625,0
479,4790339,-0.045883018523454666,0.04148793965578079,-0.9796777367591858,-0.7959709167480469,1.2621068954467773,-0.7444549798965454,30.927215576171875,-10.428509712219238,38.99188995361328,0
480,4799848,0.022475214675068855,-0.035011980682611465,-0.966653048992157,0.31015774607658386,0.28428658843040466,-0.1560351699590683,30.140625,-10.377233505249023,40.12870788574219,0
481,4809910,0.015691271051764488,0.012218160554766655,-1.0199551582336426,-1.1195456981658936,0.37788936495780945,0.2166491597890854,30.06500244140625,-9.123279571533203,38.2222785949707,0
482,4820128,0.017373517155647278,-0.06752075254917145,-0.9905678629875183,-0.7562296986579895,0.659339189529419,-0.24072080850601196,28.72428321838379,-11.716399192810059,41.470088958740234,0
483,4830040,0.08530811220407486,0.05702407285571098,-1.0352275371551514,-0.7268193364143372,0.374509334564209,0.5154287815093994,31.09087371826172,-8.398985862731934,40.913143157958984,0
484,4839866,-0.04396335780620575,-0.08413836359977722,-0.990889847278595,-0.07349558919668198,0.5929851531982422,-0.23916476964950562,28.871410369873047,-8.988241195678711,39.32952117919922,0
485,4850065,0.11401806771755219,-0.015277210623025894,-1.026373267173767,-0.2722807228565216,0.07068902999162674,0.5318607687950134,30.625694274902344,-8.955702781677246,39.79596710205078,0
486,4859993,-0.05113410949707031,0.08416957408189774,-0.968673050403595,-0.1759703904390335,-0.37407171726226807,-0.29787003993988037,31.74673843383789,-12.072783470153809,39.74815368652344,0
487,4869689,0.07844318449497223,0.008387647569179535,-1.029289960861206,0.367084801197052,0.39495810866355896,-0.5931809544563293,30.22844696044922,-9.362598419189453,40.45963668823242,0
488,4880046,0.024555590003728867,-0.016984768211841583,-0.9846529960632324,0.41572046279907227,0.10237134248018265,-0.7977892756462097,30.052936553955078,-8.575400352478027,39.36635971069336,0
489,4889982,-0.012214019894599915,0.03643841668963432,-0.9824107885360718,-0.6327711343765259,-0.4794539511203766,0.5472008585929871,29.552244186401367,-10.108236312866211,40.10328674316406,0
490,4899779,-0.06077485904097557,-0.027988817542791367,-0.98541259765625,-0.004958171863108873,-0.5854790210723877,0.4733823835849762,29.695791244506836,-10.32408618927002,37.934661865234375,0
491,4910157,-0.04091944918036461,0.003768102265894413,-1.0207103490829468,-0.6023373007774353,0.9656155109405518,-0.12901552021503448,29.262859344482422,-10.015762329101562,40.404300689697266,0
492,4919775,-0.006063111592084169,0.11322725564241409,-1.031284213066101,-0.18529480695724487,0.3683476746082306,0.3361518383026123,30.00830078125,-9.998031616210938,39.507667541503906,0
493,4930241,-0.10396809875965118,0.05449332669377327,-1.0222012996673584,0.526342511177063,-0.7806582450866699,-0.29468950629234314,28.590051651000977,-10.863100051879883,38.42940902709961,0
494,4939890,-0.030088409781455994,0.05839609354734421,-0.9870694279670715,0.3819938004016876,-0.40326425433158875,0.06824050098657608,28.56186866760254,-7.939194679260254,40.59716033935547,0
495,4950019,0.029445337131619453,0.01880868524312973,-0.9731541275978088,0.6562633514404297,-0.8026355504989624,0.13796372711658478,30.419742584228516,-10.541912078857422,40.878787994384766,0
496,4959857,0.06313086301088333,0.09585254639387131,-0.9920613765716553,0.15020257234573364,-0.024409443140029907,-0.635805070400238,31.63759994506836,-9.961921691894531,40.55260467529297,0
497,4970046,0.029270652681589127,0.0664929449558258,-1.0404057502746582,-0.1014491394162178,-0.7581315636634827,-1.0010597705841064,28.633041381835938,-9.164420127868652,41.38692855834961,0
498,4980280,-0.06107638403773308,0.001313157845288515,-1.0103554725646973,0.15111567080020905,-0.2200143188238144,-0.15386062860488892,28.905555725097656,-9.186047554016113,41.226070404052734,0
499,4989936,-0.00702663091942668,-0.06572277843952179,-0.9999268651008606,-0.8030546307563782,-0.4290023744106293,0.17490021884441376,30.85824203491211,-9.027325630187988,40.12981414794922,0
500,5000226,-0.017652198672294617,-0.04371728375554085,-1.0300363302230835,0.04030812159180641,-1.1926604509353638,0.33489540219306946,30.297189712524414,-11.105671882629395,39.24900436401367,0
501,5009939,0.1374923139810562,-0.04526234790682793,-0.9816468954086304,-1.4457088708877563,0.46721670031547546,-1.3046135902404785,29.627641677856445,-10.394318580627441,40.6646842956543,0
502,5019943,-0.04111025482416153,-0.05266474932432175,-1.0401185750961304,-0.48386746644973755,0.3328704535961151,-0.025905482470989227,31.203577041625977,-8.935272216796875,39.92897415161133,0
503,5029918,-0.07952097803354263,0.0010389910312369466,-0.9999266862869263,-0.19466963410377502,0.15360862016677856,0.014117619022727013,29.307422637939453,-8.85550308227539,38.35862350463867,0
504,5040028,-0.04735918715596199,0.09602952748537064,-0.9671717882156372,0.5699296593666077,0.4671328663825989,0.7083182334899902,31.15056037902832,-9.949923515319824,39.055240631103516,0
505,5049828,-0.047437891364097595,-0.058483220636844635,-1.008251667022705,-0.09318476915359497,0.9400818347930908,0.6606065034866333,28.14295768737793,-9.860234260559082,38.82805633544922,0
506,5059810,0.026436161249876022,-0.024289840832352638,-0.9687371253967285,-0.16744934022426605,-0.9922930598258972,0.31586575508117676,29.886402130126953,-9.942266464233398,41.055084228515625,0
507,5069855,-0.018568333238363266,-0.046594586223363876,-1.0163636207580566,0.4572865068912506,0.2296455353498459,0.47573962807655334,30.478017807006836,-9.465752601623535,40.601806640625,0
508,5079881,0.004187309183180332,0.028843678534030914,-1.01620614528656,-0.0885356068611145,0.06563384085893631,0.5112176537513733,29.536928176879883,-10.720857620239258,41.214725494384766,0
509,5089932,-0.045655615627765656,-0.007721287198364735,-0.9852339029312134,-0.29821810126304626,-0.527279257774353,0.2669430673122406,30.20880126953125,-10.767372131347656,39.6833610534668,0
510,5100024,-0.011643198318779469,-0.020734697580337524,-0.9799361824989319,0.0627530887722969,0.8888646960258484,0.7445073127746582,30.54436683654785,-10.239219665527344,39.65275573730469,0
511,5110032,-0.03822912275791168,-0.05518827214837074,-1.0135173797607422,0.5257149338722229,0.11011800915002823,-0.3307071030139923,30.745698928833008,-9.319709777832031,40.70478057861328,0
512,5120161,0.04319137707352638,-0.1284044086933136,-1.0270341634750366,-0.2515107989311218,-0.0365230068564415,0.9647378325462341,29.4575138092041,-12.266336441040039,39.278778076171875,0
513,5129832,-0.03139611333608627,-0.033521078526973724,-1.0009498596191406,0.7697828412055969,0.06297479569911957,-0.9639883637428284,30.201370239257812,-9.39193058013916,40.73504638671875,0
514,5140054,-0.03088117390871048,0.049161121249198914,-0.9708872437477112,-0.16077959537506104,1.3707348108291626,0.6534221172332764,29.38687515258789,-11.350401878356934,38.95526885986328,0
515,5149936,-0.08624285459518433,0.05513540655374527,-0.9801724553108215,-0.010962400585412979,0.2594519555568695,-0.18793316185474396,30.4472713470459,-12.372429847717285,40.5218391418457,0
516,5159930,0.05182943865656853,-0.10179482400417328,-0.9805746674537659,-0.2469056397676468,-0.9326639771461487,-0.17071928083896637,28.12277603149414,-10.446939468383789,39.6545295715332,0
517,5169950,0.041712794452905655,-0.02178346924483776,-0.9606111645698547,0.8522719144821167,-0.03907567635178566,-0.2710343897342682,31.82915496826172,-10.398847579956055,39.035667419433594,0
518,5179992,0.053514838218688965,-0.05376067012548447,-0.9764013886451721,-0.6762281656265259,-0.2785906493663788,-0.10569068789482117,30.033279418945312,-8.62405014038086,40.06147384643555,0
519,5190157,-0.05796530097723007,-0.01880783401429653,-0.9973025918006897,0.7686017155647278,0.060832444578409195,0.1549089401960373,29.80237579345703,-10.365228652954102,39.71794509887695,0
520,5199677,0.10021007806062698,0.017935851588845253,-1.002098560333252,-0.4654100239276886,-0.11379098892211914,-0.4656769931316376,30.049283981323242,-8.932828903198242,39.667335510253906,0
521,5210142,0.03318466991186142,-0.017492221668362617,-1.0295954942703247,-0.5843105912208557,0.30981674790382385,-0.7075621485710144,30.065549850463867,-10.017852783203125,39.10515213012695,0
522,5219937,0.0239214226603508,-0.05972094088792801,-0.9745389223098755,-0.024913521483540535,0.18974840641021729,0.2769758999347687,29.91875457763672,-9.726593017578125,40.217681884765625,0
523,5229912,-0.06858315318822861,0.018034636974334717,-1.0552934408187866,1.2919931411743164,-0.0008337299223057926,0.2635866701602936,30.899696350097656,-8.940229415893555,39.99348831176758,0
524,5240160,-0.0497935526072979,-0.050131309777498245,-0.9977896213531494,-0.25501272082328796,-0.18627509474754333,-0.18333500623703003,30.179521560668945,-10.633899688720703,42.05366516113281,0
525,5249905,-0.004806671291589737,0.022307198494672775,-0.962062656879425,0.08744627237319946,0.3423280119895935,-0.022559653967618942,28.42375373840332,-10.695452690124512,41.13271713256836,0
526,5260011,-0.030459541827440262,0.03518279641866684,-0.9625371098518372,0.3531709313392639,0.18141169846057892,0.5255163311958313,30.27824592590332,-8.713912010192871,39.16986083984375,0
527,5270169,0.06776193529367447,-0.05219458416104317,-1.02362060546875,0.04281889274716377,0.11208155006170273,-0.5868932008743286,28.076229095458984,-9.887337684631348,40.29108428955078,0
528,5280244,0.09357812255620956,0.0714239552617073,-0.9591153264045715,0.686790943145752,0.5370529890060425,-0.3575989305973053,29.992658615112305,-11.361488342285156,38.418216705322266,0
529,5290022,0.01554642803966999,-0.012724569998681545,-1.0354419946670532,-0.5284947752952576,-0.5329954028129578,-0.3518793284893036,29.03986930847168,-8.177266120910645,42.345394134521484,0
530,5299915,-0.011203845031559467,-0.015581921674311161,-0.9994261860847473,0.09841258823871613,-0.007313952315598726,0.0975632295012474,27.865867614746094,-8.984259605407715,40.92176818847656,0
531,5310023,0.009609298780560493,0.04928303509950638,-0.9915727972984314,-1.1553592681884766,-0.4719208776950836,0.3570171296596527,29.682565689086914,-11.401241302490234,40.7246208190918,0
532,5319858,0.00794066209346056,-0.04747668653726578,-0.9991051554679871,0.04703902080655098,0.04416089877486229,-0.23857481777668,30.992176055908203,-9.006658554077148,39.83677291870117,0
533,5330005,-0.06785918027162552,0.031070705503225327,-0.9887450337409973,-0.5050845146179199,0.7926023602485657,-0.39296311140060425,29.358224868774414,-10.454447746276855,40.000553131103516,0
534,5340114,0.061768125742673874,0.034759845584630966,-1.013612151145935,-0.327867716550827,-0.23999176919460297,0.1753358691930771,30.605207443237305,-10.362190246582031,38.82371520996094,0
535,5350069,-0.07067660242319107,-0.09124760329723358,-1.0092006921768188,0.019922208040952682,-0.6721962094306946,0.4520842730998993,29.31610870361328,-10.820527076721191,42.12438201904297,0
536,5359880,-0.04837922006845474,-0.01144227385520935,-0.9977226853370667,-0.20612205564975739,0.36095646023750305,0.48256203532218933,29.080368041992188,-9.021954536437988,40.19215393066406,0
537,5369923,-0.026833727955818176,0.05099855363368988,-1.0195194482803345,0.3054231107234955,-0.05326438695192337,0.643578827381134,27.796981811523438,-8.82979965209961,39.147621154785156,0
538,5379892,-0.0425841361284256,-0.0320541188120842,-1.0264593362808228,0.13995255529880524,0.3138560354709625,-0.19740407168865204,29.869449615478516,-10.221515655517578,39.93708801269531,0
539,5390023,-0.037901170551776886,-0.05558498948812485,-0.9904356598854065,0.3417179584503174,0.05858688801527023,-1.0614732503890991,30.555034637451172,-8.112883567810059,40.10649490356445,0
540,5400057,0.09118841588497162,0.042351555079221725,-1.0052777528762817,-0.2553250789642334,0.474435955286026,-0.8412907719612122,30.893898010253906,-8.560142517089844,37.779823303222656,0
541,5410214,0.0408773310482502,-0.06846991181373596,-1.00108003616333,0.3174583613872528,0.013384610414505005,0.21921959519386292,31.24088478088379,-10.204473495483398,39.1650390625,0
542,5420058,-0.050268322229385376,-0.017926465719938278,-0.9994800686836243,0.8398426175117493,0.5818682909011841,-0.01569613441824913,31.01506996154785,-9.662052154541016,41.26990509033203,0
543,5430123,0.02214847132563591,-0.028565088286995888,-1.0319875478744507,0.7557180523872375,0.4210456907749176,0.04691962152719498,31.173978805541992,-10.321194648742676,41.153602600097656,0
544,5439907,0.0037999467458575964,0.06537939608097076,-1.0149413347244263,-0.6298267245292664,-0.48285913467407227,0.0857037752866745,29.964771270751953,-8.855677604675293,39.20200729370117,0
545,5449743,-0.01937539502978325,-0.03877043351531029,-0.9799830913543701,-0.7591419219970703,-1.141068696975708,0.11308813095092773,29.476062774658203,-10.482439041137695,38.626651763916016,0
546,5459898,-0.10131283104419708,0.023968210443854332,-1.0046416521072388,0.17740453779697418,-0.5398592948913574,-0.23974983394145966,31.57921028137207,-10.638253211975098,38.991764068603516,0
547,5470031,-0.05208975449204445,-0.06448483467102051,-1.0465153455734253,0.2019321471452713,-0.43018805980682373,0.6225259304046631,30.789379119873047,-10.437474250793457,38.98619079589844,0
548,5480042,-0.008177198469638824,0.11510053277015686,-0.954319417476654,-0.24161487817764282,-0.18537546694278717,0.6645418405532837,28.918651580810547,-10.271403312683105,39.28879928588867,0
549,5489882,-0.029366517439484596,0.0008438486256636679,-0.9895108938217163,0.1623169481754303,-0.15596725046634674,0.09429849684238434,29.342500686645508,-11.710134506225586,39.96942138671875,0
550,5499664,0.02625780552625656,0.07935098558664322,-0.9916390180587769,0.5620026588439941,0.0603657141327858,0.7209179997444153,31.148983001708984,-9.142339706420898,40.2110710144043,0
551,5510227,0.08252589404582977,0.01471641194075346,-1.0174837112426758,-0.3492695689201355,-0.3085022270679474,0.03322063758969307,30.445926666259766,-10.276001930236816,39.497047424316406,0
552,5519813,-0.036867406219244,-0.060695745050907135,-0.9875718355178833,0.09869270771741867,-0.2928726375102997,-0.13622279465198517,30.391176223754883,-8.873465538024902,40.54173278808594,0
553,5530143,-0.0933169350028038,-0.01486190129071474,-1.0094788074493408,-0.6816452145576477,-0.5728053450584412,-0.007196772377938032,31.40508270263672,-9.852354049682617,38.57123565673828,0
554,5539860,0.028785457834601402,0.0343824066221714,-1.0152896642684937,0.003685520961880684,-0.08409635722637177,-0.03228241950273514,29.56673240661621,-8.66495418548584,39.61806869506836,0
555,5550424,0.058041635900735855,0.0236810352653265,-1.0213682651519775,0.09336352348327637,-0.2422707974910736,0.7190530896186829,30.524768829345703,-8.6766939163208,39.778072357177734,0
556,5559872,0.009033248759806156,0.0753374695777893,-1.0107152462005615,-0.2011452466249466,0.20163509249687195,0.4287167191505432,30.816068649291992,-10.51623821258545,38.513648986816406,0
557,5569832,-0.019903238862752914,-0.04057418182492256,-1.0023815631866455,-1.2115827798843384,-0.27137184143066406,-0.4187729060649872,30.457971572875977,-9.346627235412598,40.46312713623047,0
558,5579988,-0.04923306405544281,-0.021352197974920273,-1.0004180669784546,0.1727731078863144,-0.3150693476200104,-0.5292212963104248,30.656864166259766,-10.648131370544434,40.37028884887695,0
559,5590009,-0.046867068856954575,-0.016491644084453583,-0.9945555925369263,0.1957194060087204,-0.30333250761032104,-0.44931283593177795,30.309537887573242,-9.414729118347168,39.91941452026367,0
560,5600024,-0.029600365087389946,-0.02610384114086628,-1.007690191268921,-0.1991560012102127,0.0100617166608572,0.24067112803459167,30.877878189086914,-10.2274808883667,38.54942321777344,0
561,5610127,-0.09476801753044128,0.02259860746562481,-0.9777916073799133,0.9385104179382324,-0.3435942232608795,-0.4666650891304016,29.610496520996094,-9.912744522094727,39.91624450683594,0
562,5620083,-0.0812540277838707,0.0724470466375351,-1.013417363166809,0.6161030530929565,-0.6496883630752563,-1.1510943174362183,30.15931510925293,-8.462430000305176,40.20888137817383,0
563,5630069,0.06396786123514175,0.06400278955698013,-0.9769195914268494,-0.35388195514678955,-0.39161309599876404,-0.8954910039901733,29.49909782409668,-8.572771072387695,41.058170318603516,0
564,5639923,-0.03891759365797043,-0.03343528136610985,-0.977817952632904,-0.14405599236488342,-0.24225448071956635,-0.4496760368347168,28.586450576782227,-11.863236427307129,40.28081512451172,0
565,5650025,0.01285319123417139,-0.0443006232380867,-0.9868367910385132,-0.23792123794555664,0.29889342188835144,-0.16263896226882935,30.041017532348633,-10.003965377807617,41.64043045043945,0
566,5659912,-0.03919731453061104,-0.032926078885793686,-1.0069870948791504,-0.11867598444223404,-0.29357007145881653,-0.31479912996292114,30.89458465576172,-10.700761795043945,39.78031539916992,0
567,5669750,0.03722575679421425,-0.013131827116012573,-1.0057849884033203,0.22857707738876343,-0.24919050931930542,0.6401682496070862,30.12609100341797,-9.025845527648926,38.47378158569336,0
568,5680464,0.0747469812631607,0.007017836440354586,-0.9877623915672302,-0.17540597915649414,0.6409797072410583,-1.4828252792358398,29.45140838623047,-11.456525802612305,39.33530044555664,0
569,5690193,-0.017031200230121613,0.016306277364492416,-1.0369995832443237,0.03270891308784485,0.10025890916585922,-0.050541095435619354,27.604642868041992,-11.168493270874023,38.9237060546875,0
570,5699950,-0.008365725167095661,0.07786769419908524,-1.0165095329284668,0.13694314658641815,-0.2011088877916336,0.059801239520311356,31.765186309814453,-9.067620277404785,41.71049118041992,0
571,5710058,-0.01123990397900343,0.0698942020535469,-1.003556251525879,-0.15236826241016388,0.26648613810539246,0.17853310704231262,30.617229461669922,-10.436272621154785,39.4437370300293,0
572,5720036,-0.03485656529664993,-0.07740549743175507,-1.001198172569275,0.41115063428878784,0.36595723032951355,0.3576343059539795,29.173505783081055,-8.629523277282715,39.70281219482422,0
573,5730109,-0.015926752239465714,0.10498514026403427,-0.9865219593048096,0.0916491150856018,0.09596336632966995,-0.8078046441078186,30.382801055908203,-9.413846969604492,40.83200454711914,0
574,5739922,-0.03483903408050537,0.031444109976291656,-0.9913653135299683,-0.22952121496200562,0.47022107243537903,-0.23707805573940277,30.918663024902344,-10.8671293258667,39.962703704833984,0
575,5750085,0.011518001556396484,0.013294490985572338,-1.0372494459152222,-0.40853822231292725,-0.4112969934940338,0.1355099380016327,30.150724411010742,-10.390380859375,39.52070617675781,0
576,5760087,-0.03726892173290253,-0.04235145449638367,-1.0223236083984375,0.20321843028068542,0.30921095609664917,0.08076121658086777,29.494911193847656,-11.556029319763184,40.01960372924805,0
577,5770107,-0.02281256765127182,-0.04482114687561989,-0.991258442401886,0.2423032522201538,-0.3894675672054291,-0.5926182270050049,30.243009567260742,-9.255200386047363,39.47916793823242,0
578,5780103,-0.09888438135385513,0.058124832808971405,-1.0229493379592896,-0.12015626579523087,-0.10187360644340515,0.3864147663116455,28.721954345703125,-11.09643268585205,37.61521911621094,0
579,5789881,0.07536529004573822,0.05461958795785904,-1.0274016857147217,1.0042483806610107,0.18989691138267517,0.38818371295928955,29.011323928833008,-10.14173698425293,37.90725326538086,0
580,5799801,0.0737493485212326,-0.0782691165804863,-0.9788721799850464,0.2674585282802582,-0.35504621267318726,-0.19120900332927704,29.891571044921875,-8.747291564941406,38.9532356262207,0
581,5810013,-0.023557469248771667,-0.02252582088112831,-1.0153682231903076,-0.1364971250295639,-0.10617046803236008,-0.6591503620147705,29.09572410583496,-9.54448413848877,40.26700210571289,0
582,5820057,0.14872729778289795,0.05365283414721489,-1.042191743850708,-0.4226074814796448,-0.7966414093971252,-0.5560230612754822,29.018217086791992,-11.630560874938965,40.736324310302734,0
583,5829654,-0.0876774862408638,0.023837493732571602,-1.0056650638580322,0.7521495223045349,0.2946476638317108,0.3441971242427826,28.93865966796875,-10.512857437133789,39.60049057006836,0
584,5839995,-0.07568565011024475,-0.05596582964062691,-0.9779534935951233,-0.32565683126449585,-0.24365538358688354,0.3377003073692322,31.494384765625,-9.73577880859375,40.52957534790039,0
585,5850019,0.007486132904887199,-0.03339323401451111,-1.0106511116027832,0.1181965097784996,0.7904314994812012,0.21026921272277832,30.934465408325195,-10.125638008117676,39.96886444091797,0
586,5860028,-0.008898580446839333,-0.018038859590888023,-1.011029839515686,-0.039456017315387726,-0.5896469950675964,-0.812752366065979,31.005632400512695,-10.767121315002441,40.718902587890625,0
587,5870132,0.019086819142103195,0.029039612039923668,-1.0367138385772705,-0.40234559774398804,-0.1584598273038864,-0.5724843144416809,29.705137252807617,-10.142960548400879,41.526912689208984,0
588,5879858,0.04986495152115822,0.040799930691719055,-0.9920204281806946,0.08006026595830917,0.20480535924434662,0.00857395026832819,29.514822006225586,-10.756296157836914,40.04030227661133,0
589,5890081,-0.024018386378884315,-0.01487819291651249,-1.03830087184906,-0.21636711061000824,-0.8452656269073486,0.43394532799720764,29.667451858520508,-9.130877494812012,39.03923416137695,0
590,5900072,-0.10657105594873428,0.028505071997642517,-1.0034213066101074,0.5583018660545349,1.048303246498108,-1.3103750944137573,29.762065887451172,-9.853734016418457,39.48801803588867,0
591,5909771,-0.07311654835939407,0.07002435624599457,-1.006914734840393,-0.05874441936612129,0.26558151841163635,-0.2376987785100937,28.79159164428711,-11.022869110107422,39.05047607421875,0
592,5920095,-0.004324652254581451,0.0166611410677433,-0.9924458265304565,0.23935790359973907,1.3165889978408813,-0.3621428608894348,29.953319549560547,-11.031501770019531,39.556968688964844,0
593,5929990,0.004965110216289759,-0.05077655240893364,-1.0242143869400024,0.25203925371170044,0.7278661131858826,-0.24040162563323975,30.902429580688477,-9.06014347076416,39.94402313232422,0
594,5939870,0.1049090251326561,0.01856149174273014,-1.0384986400604248,-0.2352215200662613,-0.6087428331375122,0.0578305721282959,29.040895462036133,-12.125943183898926,39.068607330322266,0
595,5950032,-0.0201620701700449,-0.037337664514780045,-0.9961369037628174,-0.2546772062778473,-1.0460504293441772,-0.4013766646385193,30.03890609741211,-9.567122459411621,39.56211853027344,0
596,5959716,-0.05189836397767067,0.007075924426317215,-1.0233319997787476,0.5799948573112488,-0.5631731152534485,-0.20042257010936737,29.425825119018555,-10.68027114868164,39.22412872314453,0
597,5969784,-0.04543246328830719,-0.007963457144796848,-0.9990600347518921,0.10795778781175613,0.05634163320064545,-0.3104766309261322,28.79279327392578,-9.39684772491455,40.109893798828125,0
598,5979960,-0.0479406975209713,-0.008912689983844757,-1.0009669065475464,0.5557218194007874,-0.7377889752388,-0.31512629985809326,31.7879581451416,-11.909952163696289,39.193294525146484,0
599,5990023,0.0204831063747406,0.003766166977584362,-1.0168912410736084,0.10649130493402481,0.398006409406662,0.5012553334236145,27.76612663269043,-11.035573959350586,37.980873107910156,0
600,5999892,0.03363894671201706,0.0698833093047142,-0.9715308547019958,0.18939131498336792,0.1328597217798233,0.1979207694530487,29.495424270629883,-10.081033706665039,39.29991912841797,0
601,6009958,0.02725428156554699,0.07785370945930481,-0.9765209555625916,0.8059297204017639,-0.05740082263946533,-0.6761501431465149,30.418493270874023,-10.592962265014648,40.21232604980469,0
602,6019999,0.02140452340245247,0.06570462882518768,-0.99298095703125,0.409898579120636,-0.25020265579223633,0.570158064365387,29.707504272460938,-8.401341438293457,39.24909973144531,0
603,6029970,0.025854844599962234,-0.060602836310863495,-1.0128588676452637,-0.30564209818840027,0.15023574233055115,-0.47660326957702637,28.799013137817383,-9.246735572814941,40.389888763427734,0
604,6040134,0.019650541245937347,-0.12886761128902435,-0.9734607338905334,-0.3521144986152649,0.49597933888435364,0.4590652287006378,29.380460739135742,-9.600515365600586,39.11339569091797,0
605,6050294,0.14048853516578674,-0.006992170587182045,-0.9867104887962341,0.5729662775993347,-0.655507504940033,0.7316956520080566,29.700441360473633,-10.167112350463867,38.98295593261719,0
606,6059918,0.039238762110471725,-0.013997343368828297,-0.9791133999824524,1.186816692352295,-0.27393487095832825,0.299096941947937,30.291780471801758,-8.542287826538086,40.60796356201172,0
607,6069867,0.05077114328742027,0.013033171184360981,-0.9901226162910461,0.37514814734458923,-1.0940262079238892,-0.17335145175457,31.76744842529297,-8.932788848876953,40.51430130004883,0
608,6080067,0.02192993462085724,0.04839203879237175,-1.012351393699646,-0.04914550483226776,-0.04532089829444885,-0.26386550068855286,28.120622634887695,-10.434250831604004,40.69764709472656,0
609,6089799,-0.05092756077647209,0.032070621848106384,-1.0177322626113892,-0.884226381778717,-0.4405653178691864,0.6424154043197632,29.772289276123047,-9.54612922668457,38.589229583740234,0
610,6100147,0.05261519178748131,-0.02845761366188526,-0.9855594635009766,0.21413618326187134,0.42679110169410706,-0.24585498869419098,30.497875213623047,-10.443970680236816,39.86240005493164,0
611,6109995,-0.0015152215491980314,-0.019628332927823067,-1.0003368854522705,-0.2678620517253876,-0.3352128267288208,1.0853954553604126,30.82651138305664,-9.207315444946289,37.80725860595703,0
612,6120051,-0.026218272745609283,0.006809304002672434,-1.0001367330551147,0.6238086819648743,-0.3905546963214874,0.13268348574638367,31.447925567626953,-8.565329551696777,40.04777908325195,0
613,6130082,0.14577747881412506,0.029833396896719933,-1.0270109176635742,-1.0089761018753052,-0.18907727301120758,0.17696934938430786,31.429025650024414,-9.275123596191406,40.88572311401367,0
614,6139945,-0.0012391821946948767,0.0077014220878481865,-1.00331449508667,-0.3121699094772339,-0.19157524406909943,-0.08334523439407349,29.182876586914062,-9.332670211791992,39.7642936706543,0
615,6150105,-0.03818296268582344,-0.056264329701662064,-1.0020976066589355,-0.5686531066894531,-0.5185315012931824,-0.9291240572929382,29.665504455566406,-9.939350128173828,38.08268356323242,0
616,6159911,-0.043613459914922714,-0.020833805203437805,-1.01124906539917,1.1523056030273438,0.40171751379966736,-0.36182355880737305,29.87666893005371,-9.513997077941895,38.93933868408203,0
617,6169946,0.059258587658405304,0.05576983839273453,-0.9893789887428284,0.6182664632797241,0.11747218668460846,-0.1750642955303192,28.96005630493164,-10.420560836791992,40.87139892578125,0
618,6179964,-0.0008186050108633935,0.06026449799537659,-0.9968187212944031,1.5929709672927856,0.6245813965797424,0.3837905824184418,30.49687385559082,-9.820740699768066,40.13254928588867,0
619,6189958,0.13724033534526825,0.041533567011356354,-0.992134153842926,0.014696052297949791,-0.6643536686897278,-0.3320198357105255,29.578474044799805,-10.42602825164795,39.222469329833984,0
620,6199860,0.10549720376729965,-0.022088173776865005,-1.002407193183899,0.8475812673568726,0.3954043388366699,0.5191525816917419,30.18712043762207,-9.488760948181152,39.263126373291016,0
621,6209949,0.030204473063349724,-0.056175556033849716,-1.0154060125350952,-0.22195792198181152,-0.06923981010913849,0.2919158637523651,28.633073806762695,-9.523575782775879,38.665584564208984,0
622,6220099,0.07346854358911514,-0.013317633420228958,-0.9795524477958679,1.0570573806762695,-0.05419876053929329,0.5402812361717224,28.92561912536621,-8.223631858825684,39.45719528198242,0
623,6230128,-0.0475190207362175,-0.023748552426695824,-0.9761800169944763,0.23931007087230682,-0.08150731027126312,-0.4103815257549286,29.903043746948242,-10.885008811950684,41.26885223388672,0
624,6240098,0.053306326270103455,0.055090658366680145,-1.0131521224975586,-0.7011432647705078,-0.5429276823997498,0.3521314263343811,29.06011199951172,-10.593158721923828,39.63837432861328,0
625,6250043,-0.012953338213264942,-0.058993324637413025,-0.9986617565155029,0.08403831720352173,0.04295758903026581,0.9714158773422241,30.398962020874023,-9.645575523376465,39.46375274658203,0
626,6260083,0.030945707112550735,0.007986186072230339,-0.9924706220626831,-0.4978184700012207,0.08276781439781189,-0.41263526678085327,30.636676788330078,-9.631291389465332,40.04890441894531,0
