t_ms,ax,ay,az,gx,gy,gz,mx,my,mz,roll_gyro,pitch_gyro,yaw_gyro,roll_cf,pitch_cf,yaw_cf,roll_ekf,pitch_ekf,yaw_ekf,roll_madgwick,pitch_madgwick,yaw_madgwick,roll_mahony,pitch_mahony,yaw_mahony
12,0.0141,-0.0407,9.7297,0.9191,-0.2477,-0.3692,30.0614,-11.1107,38.8862,3.2859,-0.9911,-0.3578,1.5187,-0.0487,-0.4789,0.9543,0.2039,0.1638,-0.8506,0.2972,2.2216,-0.1735,0.2028,0.2694
23,-0.083,0.0704,9.8408,-0.4581,-0.3741,-0.4971,29.0344,-11.1544,37.0103,-1.5445,-0.0349,1.2242,-0.4258,0.5823,-0.3589,-0.3202,-0.1988,0.9763,-0.4319,-2.3182,1.9257,0.154,1.9396,0.7663
34,0.0416,0.059,9.8235,0.5998,0.4929,-0.4889,28.9864,-9.7074,39.9452,-1.1387,0.3558,-0.6483,0.0951,1.0113,-0.9978,0.0088,0.5003,0.9358,0.564,1.3064,0.213,0.3703,0.3933,-0.7901
44,-0.2106,0.0471,9.8076,-0.0997,-0.4637,-0.4953,29.7611,-8.5562,38.8072,1.0858,-0.0882,0.336,0.2874,-0.2556,-1.0349,-0.0124,-1.6916,0.3694,0.7728,0.8958,0.4851,0.377,-0.6852,-0.7789
55,-0.0943,0.0266,9.7969,0.1273,-0.3285,0.3278,31.2536,-8.9183,39.0274,0.4686,0.18,0.5066,0.7265,-0.1179,-0.8336,-0.4011,0.5104,-2.1428,-0.6579,-0.5473,-0.1717,0.745,0.417,1.192
69,0.1375,-0.1463,9.7188,-0.1706,-0.0717,-0.0329,29.9475,-11.1261,40.1339,-0.6354,0.4489,1.5307,1.0917,0.8463,-0.0381,-0.0289,-0.1397,2.2991,0.0902,-1.9859,0.5131,-1.9539,0.1675,1.1258
85,-0.1482,0.063,9.7859,-0.1815,0.1045,-0.5093,29.294,-11.9969,39.8497,0.9594,-0.9299,1.7893,-0.207,1.6048,-0.5539,0.5363,-1.1576,-1.467,1.9547,0.5117,0.0664,0.9779,-1.5234,-2.0353
111,0.1605,0.0524,9.7832,0.6729,-0.4665,0.167,32.1378,-11.0534,40.5857,0.0951,-0.2402,-1.5375,-1.2006,0.974,-2.1251,-0.7324,-1.1389,-1.3755,-0.4913,-0.6297,-0.0309,0.1249,0.2899,0.5698
152,0.0337,0.0019,9.8284,-0.9208,-0.1498,-0.613,32.9364,-9.0897,40.9592,1.6264,-0.5655,-1.2954,-1.8508,0.3118,-0.6213,-0.5003,-0.9041,-0.0015,0.8878,1.2736,0.7509,0.1602,-0.8171,1.0692
173,-0.2716,-0.03,9.808,-0.1701,0.303,0.0813,30.0176,-9.494,40.491,0.3262,-0.5867,-0.5953,-0.5327,-0.4662,-1.0057,0.8844,0.0489,-0.1498,1.7557,-0.3694,-0.9689,-0.2093,-0.2443,-1.1264
187,-0.2548,-0.1394,9.7976,-0.067,-0.3959,-0.119,30.5277,-8.8145,39.8161,-0.4766,1.8281,0.9232,-2.5247,0.4167,-0.3064,-1.5335,0.5981,1.9451,0.8857,0.4802,-0.5581,-1.7377,-0.5949,0.4619
198,-0.0395,-0.0686,9.8153,-0.195,0.3596,-0.2162,30.8166,-9.0803,40.1301,1.026,-0.9399,-0.1227,0.3122,-0.1733,0.6832,0.2947,-0.5521,-0.8433,0.2111,-1.0463,-1.5894,-0.0538,1.6809,0.2194
209,-0.0218,-0.0547,9.8257,0.101,0.7098,-0.2844,30.2678,-9.689,40.4822,-0.0532,1.8914,-0.8001,0.9176,-0.8622,0.9862,0.3963,1.338,2.6442,-0.1982,-1.1886,-0.23,0.3508,0.7067,0.1051
226,-0.0001,-0.0281,9.6704,-0.6017,-0.2249,0.3366,30.3442,-11.6372,40.7818,0.0571,0.908,-0.6795,-0.7669,-0.5538,-0.5732,-0.1139,-1.5224,0.0485,0.4042,0.976,0.3346,-0.8183,0.6482,-0.2803
237,-0.0072,-0.0642,9.7742,0.2801,0.3167,-0.1521,30.5309,-9.3291,42.0788,-1.0463,0.6949,0.2803,-1.0372,-0.0127,-0.0566,-0.2319,0.5189,0.706,-0.0418,0.5126,-0.516,-0.7734,0.4702,-0.0406
256,0.0143,-0.0246,9.7706,0.3906,0.7295,-0.088,29.3876,-11.5359,38.8149,-0.5646,-2.5399,-0.9081,0.5381,0.6935,-2.9987,0.5159,0.1076,-0.5301,-0.6426,0.79,-1.9843,-0.4623,-0.1634,1.3729
268,-0.0651,0.0588,9.8098,-0.3918,0.1237,0.3113,30.1977,-9.7381,41.2922,0.6329,-0.0115,0.7647,2.0099,0.6246,-0.2538,-0.0632,1.1858,0.5675,2.4074,-1.412,0.9747,1.0872,0.5551,-1.6135
278,0.2835,0.1816,9.7883,0.199,-0.0513,-0.0711,29.5132,-11.0481,39.911,0.588,-0.1173,1.2833,0.3051,-1.8947,-1.0987,2.0321,1.5812,0.4085,0.8028,0.4385,-0.3964,0.6842,0.435,-1.2231
289,-0.053,-0.0269,9.7564,0.648,0.1088,-0.9073,30.1555,-8.4248,39.0623,1.1738,-0.5929,0.0393,-0.7701,-0.738,0.0123,-0.6573,-0.9287,0.1615,0.3362,1.6032,0.7818,-0.6507,1.5065,0.962
299,-0.0347,0.047,9.7616,0.0749,-0.1502,-0.0812,29.537,-10.413,40.7548,1.6383,0.8271,1.5191,-0.264,0.3904,-0.1549,-0.5,0.0913,-0.6321,0.0902,0.3047,1.8799,-1.3061,0.4984,1.2566
323,0.0939,-0.1124,9.8517,0.3611,0.1583,0.1265,28.414,-8.9589,39.6533,0.6728,-0.5743,1.2083,-1.4878,-0.251,-0.6094,-0.0351,-0.4627,-0.1293,0.3066,-0.1892,-0.1171,-0.985,-0.3472,-0.5109
333,-0.1015,-0.0958,9.7749,-0.4327,-0.739,0.2183,26.5648,-9.8278,40.6731,-0.4302,-0.3864,0.3943,0.0928,-1.5626,-1.0893,1.2046,-0.0297,2.433,-0.8965,-0.584,0.7832,-0.9823,-0.358,0.5884
344,-0.014,-0.0073,9.7046,0.7631,0.2577,0.5475,31.1253,-11.8294,38.9211,1.3645,-1.0617,-0.1178,2.4809,0.7733,1.3204,1.2122,0.0714,-0.159,0.2892,-0.8402,0.4427,0.1086,-1.129,0.1492
354,-0.0475,-0.0287,9.7651,0.183,0.1972,-0.1035,29.3114,-11.0291,40.766,0.1303,1.5159,0.2669,1.1247,-0.9573,0.1424,-0.5558,0.3698,-1.1177,2.3531,-1.6485,-0.3409,-0.1753,0.8514,-1.2522
364,0.1373,0.0809,9.8308,-0.3689,-0.4312,0.0514,30.3556,-12.4341,39.7463,-0.3184,-1.0512,0.8591,0.3217,0.322,-0.3758,0.2935,1.1696,1.1019,0.6745,-0.8106,0.9903,-0.8457,-0.2704,1.2701
375,0.1726,0.0798,9.8002,0.2386,-0.1998,-0.1352,29.6585,-10.7284,39.4242,-1.161,2.5797,0.239,-0.0513,-1.036,1.5526,1.2605,-0.1363,1.8859,-0.1959,0.2568,-0.0849,0.988,-1.6084,-0.7536
385,-0.0169,0.0578,9.7783,0.8974,-0.5933,0.5734,30.1731,-9.3068,40.6222,0.4078,0.1422,-0.9417,-0.3329,2.3663,-1.5651,0.9809,-1.0245,-0.8873,-0.992,-0.8331,-0.6692,-0.4785,1.2211,1.105
396,0.0713,-0.0841,9.7153,-0.039,-0.0342,-0.0202,30.195,-10.3881,39.9873,-0.1158,-1.3217,-1.0769,-2.2137,1.0792,0.8353,0.7584,0.0444,-1.3807,0.0775,0.5221,1.9512,-1.8961,1.2429,-0.0737
406,-0.0268,0.1362,9.8532,0.9645,0.1359,0.4091,31.7177,-9.6664,39.4545,-1.4087,-0.0125,-0.482,0.1883,-0.0343,1.2252,0.2271,0.6576,1.1073,-0.9263,-0.1422,-0.4949,1.4066,0.8869,-0.5179
416,0.1677,-0.0397,9.7486,0.4941,0.1926,-0.3704,29.546,-9.7298,41.1793,-2.2245,-1.1959,0.9857,-1.2922,0.3265,-0.7935,0.4381,1.4818,0.2452,-0.8471,-0.616,0.545,0.0526,-1.103,0.0873
427,0.1682,-0.0586,9.8362,-0.3498,-0.268,-0.0717,30.1882,-10.4093,40.0835,1.1775,-0.6584,1.0492,0.35,-1.5087,-0.1252,1.8743,-0.9592,0.107,1.7374,-1.1353,0.6914,0.75,0.4278,-1.4155
453,-0.1307,-0.0297,9.7874,0.2368,0.4922,-0.3296,29.797,-9.2129,39.8554,-2.8023,0.5165,-0.6099,-0.0036,-0.2817,-0.3673,-1.2867,0.2271,-0.9822,-0.3665,0.5597,0.1356,1.1406,-0.1195,-0.1394
465,-0.077,0.2184,9.855,0.857,0.3506,-0.3187,31.4458,-11.4618,39.0576,0.8264,-0.498,-0.1992,0.5139,-0.0717,-0.8742,-0.6362,1.1515,1.1117,-0.7845,-0.8938,-1.9664,0.4461,-0.8948,2.0341
478,0.0457,0.0565,9.8781,-0.2593,-0.1797,0.2212,31.2932,-8.8824,39.2224,2.1512,-0.0299,0.9716,-1.4469,-0.5876,0.8025,-1.5693,0.0419,-0.0315,1.7648,0.9991,1.2568,0.3486,0.7703,-1.3081
488,0.0811,-0.1332,9.8133,-0.0258,0.6471,-0.1273,30.2437,-9.7321,40.9999,0.2251,1.1694,-0.3529,0.6309,1.3255,2.2788,1.0825,0.0079,-0.2419,-0.6055,0.7184,0.0591,-0.3707,-1.4884,0.0086
501,-0.1146,0.0304,9.8208,-0.361,-0.542,-0.2207,30.0847,-9.5189,39.7909,0.3217,-0.4315,-1.5375,-1.4824,-0.7165,-1.7568,1.0527,-0.6636,-0.0792,1.0661,1.6651,0.6299,1.0135,1.2937,0.4408
511,-0.0153,-0.0418,9.6884,-0.17,0.3695,0.3727,31.0753,-9.8365,38.9979,0.8415,1.2035,0.8859,1.4155,-0.7517,-0.7952,0.3069,-1.9824,-1.0319,1.2841,0.8562,0.0995,0.3808,-0.2584,-1.6474
522,-0.1447,0.0643,9.7626,0.2572,-0.4015,0.3741,31.7004,-10.5782,37.8076,-0.1508,0.4788,0.1165,-1.7297,0.7282,1.6608,-0.0521,-0.0834,-0.4438,-1.0015,-0.0705,-0.3878,-0.8089,0.4418,1.0036
533,-0.115,-0.1324,9.7121,-0.2731,0.8137,0.306,29.0366,-9.2592,38.7717,-1.0879,1.1496,0.2576,0.0008,-1.0707,-1.069,-0.4804,0.7917,1.4837,0.3718,1.1688,0.5187,0.2909,-2.222,0.2564
543,0.0424,0.0523,9.816,0.7258,-0.2347,0.3371,31.5364,-7.787,39.3867,0.6012,0.1752,-0.1538,-1.4062,-0.1903,-0.1262,-0.9713,1.3969,0.3325,-0.42,0.9113,0.5863,0.4785,-1.2716,-0.0238
553,-0.1714,-0.0856,9.8255,1.0499,0.1205,-0.1309,28.0422,-9.9037,40.3925,-1.003,1.3127,1.0666,-0.0201,0.0714,0.6776,-1.5591,0.368,-0.3618,-0.7903,1.0766,-1.3329,0.4683,0.8043,0.2503
574,0.0411,-0.0437,9.7809,0.5387,-0.7457,0.9504,30.3882,-9.7501,39.3752,0.7998,1.4936,1.0893,1.0419,0.8165,-0.2633,-1.2268,-0.2887,1.0174,-0.9428,0.7302,-1.1997,0.2115,0.2962,-0.3131
585,0.1086,-0.1266,9.8293,-0.9531,0.2694,0.3105,28.9144,-10.1989,41.5111,-0.1344,1.0409,-0.9302,0.1963,-0.2528,0.7139,0.5742,-0.1339,-0.4106,0.914,-0.3776,-0.8599,-0.867,-0.7674,-0.3291
598,0.0234,0.0796,9.7566,-0.5642,0.7809,-0.439,29.5104,-9.3029,40.6629,0.3024,-0.9658,-0.5244,0.7604,-0.7351,-0.5648,-0.3405,-1.5159,-0.4686,-0.6346,0.2096,0.1771,0.1229,-0.4116,0.0124
609,0.1474,0.0887,9.7386,0.3546,0.6581,-0.8561,30.1304,-11.2947,39.0276,0.1308,-0.9558,1.2781,1.7122,-0.4944,-1.976,-0.4801,0.6296,0.4666,1.3639,-0.8245,-0.4282,0.4631,1.8458,-0.7096
620,0.2005,0.1054,9.7249,-0.3798,-0.2548,0.8093,29.1832,-9.1785,40.7108,-0.2297,1.5338,-0.213,-0.5016,-0.1939,0.4764,-0.017,-1.4967,-0.4485,-1.6148,0.3614,-0.4694,0.9199,0.3538,0.5425
631,-0.0141,-0.1076,9.7885,-1.3805,-0.1459,0.0824,29.4078,-9.27,39.1871,0.1893,-0.5576,0.1377,0.1461,2.1588,0.9529,-0.1419,1.1145,0.7819,1.0784,0.1915,-0.0055,1.0896,-1.8829,-0.4468
642,-0.0926,0.0668,9.7945,-0.2937,-0.4099,-0.0027,29.1052,-11.671,38.6935,0.0569,0.024,-1.1988,-0.4572,1.128,0.7431,1.4787,0.0581,0.2224,1.1332,0.1041,0.2205,-2.0001,-0.8462,-1.1881
652,0.0032,0.0448,9.8089,-0.064,-0.0001,-0.6625,29.9402,-10.1292,39.0644,1.7449,-1.7372,-0.3128,1.2366,-0.2262,0.0873,1.6273,0.4642,0.7081,0.4724,0.9905,0.1543,0.9748,0.1598,-0.1576
662,0.079,0.0563,9.8483,-0.4237,-0.75,-0.1348,31.0897,-9.044,39.877,-0.0543,0.4519,0.085,-2.9315,-0.8692,-0.3407,0.1515,-0.3536,0.4174,0.9758,0.3958,-0.8988,0.9457,0.919,-1.0389
673,-0.0027,0.2152,9.8456,0.5572,-0.5086,-0.6188,27.4297,-10.4528,40.6851,0.1668,0.2193,-1.3319,1.3082,-0.503,-0.8101,0.8405,-0.2356,-0.0845,0.0131,-0.814,-0.4874,-0.3379,0.7904,0.5257
683,0.0107,0.1081,9.8126,0.6895,0.4898,-0.4046,30.0358,-9.7241,40.8206,0.0857,-0.2195,2.1515,2.6796,0.894,0.5235,0.41,0.5477,-0.5846,-0.9505,0.2868,0.6135,0.6476,0.4796,-0.9243
695,-0.0194,-0.0839,9.8458,-0.2498,-0.4538,-0.0447,30.2171,-9.3956,40.5327,-1.8544,0.5662,-1.7762,-0.0661,0.43,-2.1062,-0.2295,0.4547,0.6181,1.556,-0.2062,0.8079,0.8503,-0.0269,-0.1562
709,0.0762,0.1608,9.7404,-0.3309,-0.7934,0.1644,30.1518,-8.8996,42.5591,0.8166,-1.6282,-0.6137,-1.1742,-0.2016,-0.5303,-0.8537,-0.5998,0.0936,-0.3531,-1.5833,-0.0584,1.6223,-0.5539,-1.3992
719,-0.1974,0.1161,9.7386,0.2717,0.8191,0.3695,30.4132,-8.5231,39.0166,0.6159,-2.0717,-1.6004,1.8734,1.1321,-1.2523,0.4922,-1.6657,-0.297,0.9194,0.8712,-1.1555,0.9035,0.4473,-0.5677
730,0.0342,0.0257,9.7416,0.6209,-0.2188,-0.1404,29.8704,-8.5582,39.758,0.7194,0.1523,-2.0806,0.3222,0.7543,-0.1064,1.4321,-1.6687,-1.3363,-1.3582,-1.1417,-0.7417,-1.0198,-0.9187,-0.0383
741,-0.2659,-0.0466,9.82,0.0532,-0.3717,0.4237,30.1443,-9.5902,41.323,0.6604,0.3047,0.2264,-0.5148,1.4711,-0.1263,1.239,-0.0427,1.3662,1.296,-0.0712,1.0556,0.971,0.0153,0.3266
753,-0.0833,0.1087,9.7864,-0.1795,0.3217,0.6478,29.0102,-10.2719,41.3902,-0.2532,0.2355,0.3413,0.9184,0.9478,0.1618,1.1559,-0.6954,-0.6367,-0.0008,2.8842,0.2739,0.2806,-0.3413,1.6205
764,0.0264,-0.1258,9.7725,0.0774,-0.7393,-1.2552,30.0982,-8.5152,39.5364,-0.7494,0.7817,0.9613,-1.001,-1.3099,1.0317,-1.9322,0.1835,0.3204,-0.5566,0.0049,-0.3594,2.7584,-0.4763,0.3325
774,0.1226,0.0552,9.7567,-0.7028,0.2828,-0.5444,29.2699,-7.506,40.8019,-1.99,0.4325,1.6672,0.3928,0.664,-0.402,1.1602,-1.0559,0.3794,0.3509,-0.3418,-0.3753,-0.0001,-0.9127,-0.7157
785,0.0018,0.0352,9.8037,0.7424,-0.4816,-0.1472,29.269,-9.5425,41.4,-1.7319,-0.4071,1.2386,-0.3315,0.0083,-0.0422,-1.1097,-0.4339,-0.3684,-2.0969,1.7295,-0.3099,1.9638,-1.4406,-0.0199
796,0.0157,-0.0679,9.8126,-0.0771,-0.2985,-0.2118,28.0599,-9.6824,37.2687,-1.3456,1.4325,-1.0942,0.8396,0.2276,-0.5098,-1.226,-0.2441,0.409,1.4832,-0.3227,-0.362,-0.1702,0.1481,1.7236
806,-0.0505,-0.1641,9.7462,0.1086,-0.1499,-0.1113,30.3047,-10.7148,40.9947,-0.7612,-1.2513,-1.1681,2.1633,-0.9374,-0.6066,1.8372,-0.3481,-1.457,0.9382,-0.5988,0.279,0.1907,1.3398,-1.0913
816,0.032,-0.1636,9.822,-0.6396,0.6143,0.2482,30.1653,-9.176,40.3815,-0.3217,-1.6612,-0.3107,-2.0413,-0.6267,-0.7647,0.1757,0.259,-0.0207,0.729,0.2148,0.5193,-1.3922,1.0097,-0.7207
827,0.037,0.0626,9.8764,-0.0268,-1.3007,0.0679,28.7874,-10.5339,41.382,-1.4482,-0.1285,-0.0455,-0.2782,0.9446,-0.5006,1.0787,-0.0579,-1.1941,2.1547,2.0157,0.4189,0.1396,-0.646,2.6995
837,0.1222,0.008,9.8245,-0.3415,0.3749,-0.4646,29.43,-9.7482,39.1023,-0.1934,-0.0096,0.6801,-0.4422,-0.8321,-0.9705,-1.3535,-0.7435,1.3236,3.0603,-0.4922,0.5222,-1.3882,0.5249,-1.2696
848,0.1028,0.0771,9.8358,-0.4777,0.3588,-0.1335,29.2709,-10.0218,39.552,1.143,0.7958,0.0957,-0.6721,0.668,-0.7442,-1.5691,-0.5435,0.8646,0.9147,0.3967,0.3761,0.1349,-0.1853,-1.4789
858,0.1293,-0.1481,9.7382,0.2411,-1.0172,-0.0519,29.4423,-11.5579,39.8974,2.3043,0.1634,-0.8396,0.7438,0.2111,1.5491,1.1727,0.0856,-1.1245,-1.0685,-2.5934,0.9717,1.4298,-1.0757,1.7635
869,-0.1165,0.0396,9.7873,0.0967,1.1825,0.3246,30.6604,-9.1089,40.1793,0.1808,-1.3147,0.65,-1.5579,-0.9515,0.0822,-2.0663,0.0742,1.8338,-0.3211,0.4494,-2.2108,1.0182,0.2974,0.2658
879,0.0282,0.101,9.8124,0.3751,1.4002,-0.4299,28.7468,-9.0063,38.8868,1.8087,-0.5895,-0.0682,-1.3287,-0.1855,1.3442,0.7492,-1.4199,0.5758,-1.3579,-1.8993,-0.1934,-0.4336,0.7352,-1.0572
890,0.1429,-0.0457,9.8392,-0.3089,0.0606,0.1643,31.7347,-11.1416,41.0546,0.5323,-0.2569,-0.1247,0.3308,-0.1654,1.4344,-0.3226,0.9882,-0.5556,-0.8605,0.2953,-0.9159,-0.0013,0.5038,-1.0798
900,0.1265,0.1191,9.7488,-1.3515,-0.9333,-0.084,31.6367,-9.1322,38.5688,-0.3731,1.9553,-1.5788,-1.5785,1.0934,-1.2281,-0.5167,-0.3449,0.2673,-0.2205,0.5892,-0.9259,-0.5403,0.9237,0.6843
911,0.0702,-0.0074,9.7427,-0.4713,0.4899,-0.1983,29.7594,-8.6778,41.3314,0.2527,0.5467,1.1923,1.1159,-0.0516,2.2795,1.1899,-0.8018,-0.5317,0.1809,-0.5489,-1.2111,-0.6043,-0.4779,1.4718
922,0.0375,-0.0614,9.7404,-1.099,-0.0753,0.2267,29.342,-8.8603,40.0631,-0.8139,-0.3169,-1.0541,0.1376,0.5857,0.3978,-0.0838,-1.5811,-0.8514,0.2653,1.3207,1.4027,-0.5544,0.2514,0.3053
932,-0.042,-0.1284,9.8363,-0.2506,-0.2894,-0.7102,31.4214,-12.2272,40.5341,-0.1619,1.3787,-0.7265,-1.5644,1.4187,-0.7889,-0.846,-1.2545,0.2285,-0.7072,0.5909,-0.7982,-0.8517,0.6238,0.5769
943,0.0373,0.1057,9.7762,0.3681,0.1265,-0.4707,29.6443,-11.4805,39.7803,0.5219,0.716,-0.93,0.5176,0.8861,-0.004,0.6275,0.2833,0.4968,0.5838,1.1752,3.2282,0.0538,-1.2763,0.4448
953,-0.0825,0.0522,9.8297,0.1957,0.5432,-0.15,30.6078,-9.2549,39.5829,-1.108,1.6242,-0.7386,-1.1952,1.4921,-0.4622,-0.6516,0.4423,1.0292,-0.7287,-1.1,0.3683,-0.4488,0.6563,-0.6003
964,-0.0804,0.0936,9.8007,-0.2125,0.1721,-1.0222,28.6747,-8.151,41.1854,0.253,-0.3115,-2.0178,-1.3167,1.0399,-1.4109,0.1118,1.3155,0.256,0.8374,-0.0886,0.6076,1.007,1.5728,-1.3475
974,-0.0009,-0.002,9.7896,-0.0581,-0.2768,0.2263,30.316,-11.2842,40.896,0.1678,-0.3468,-0.3918,-1.1918,-0.3712,-0.2344,0.2781,0.6648,-0.8927,1.493,0.8857,0.5958,-0.5282,-1.0087,1.6826
984,-0.0195,-0.0321,9.7729,-0.0067,0.7588,0.6417,31.9829,-9.2676,40.5476,0.2995,-1.1642,1.187,0.0255,-1.4782,-0.802,-0.3416,-1.6718,-0.2249,-0.8276,0.0078,-0.0543,-0.6689,-0.2607,-1.5714
995,-0.0383,-0.1922,9.861,0.4455,0.8466,0.2615,28.8964,-11.1303,39.2988,-1.6347,-0.4051,1.397,-0.2473,0.4374,-1.0551,0.2038,-2.2931,-1.1753,0.1495,1.8279,-0.6033,0.4829,-1.4202,-2.7735
1005,-0.0322,0.0533,9.8044,-0.5162,-0.4037,0.0615,27.8124,-8.5078,39.8195,1.647,1.5288,0.0852,0.3982,-0.4199,0.2114,1.8079,1.2947,-0.074,0.9652,0.8209,-0.3967,-0.8981,-1.1574,0.0779
1016,0.0533,-0.0309,9.8607,-0.5926,-0.3005,0.2363,28.6074,-7.9758,37.9332,0.6479,1.7376,-0.837,-1.7675,-0.3203,0.0691,0.5309,0.4075,-0.1261,-0.1875,-0.0243,1.7536,-2.1133,0.7446,0.2309
1026,-0.2414,-0.2047,9.8438,-0.6147,-0.0125,1.0799,29.8914,-10.2348,40.1598,-0.03,1.6772,-1.0076,-0.2877,-0.8295,-1.1575,0.645,0.2652,0.6534,0.6362,1.5028,0.6816,-0.6986,0.7309,-1.1829
1037,-0.1025,-0.2137,9.8847,-1.0619,-0.4597,0.6819,31.9612,-9.0532,40.1948,0.6292,-0.3586,1.9201,-0.7692,1.139,0.0019,3.3419,-0.8486,1.7046,-0.0656,0.7298,0.6177,-0.3831,-0.2306,-1.2236
1047,0.1122,0.0057,9.8551,-0.4462,-0.4935,-0.7373,31.2055,-9.7843,40.2364,0.6216,2.5045,0.7199,0.9862,0.6723,-0.8778,1.5262,0.182,-0.3123,-1.7735,1.0833,1.3782,0.7126,2.1323,-0.113
1058,0.0569,-0.0372,9.7667,-0.7911,0.1122,-0.496,29.8527,-11.8224,39.2754,-0.7251,1.0549,-0.9793,-0.5711,-0.4286,-0.2164,-1.0034,1.448,1.0133,0.721,1.6173,-0.8174,-0.8363,0.7076,-1.1412
1068,0.014,-0.0195,9.8412,0.1606,-0.3647,0.1741,30.4474,-9.7135,39.7276,1.4588,0.9932,0.634,0.41,-0.3317,-1.1782,0.2476,1.3419,0.0385,1.3194,1.6306,-0.9786,-1.1008,1.8917,-1.5396
1078,0.124,0.0575,9.8449,-0.8128,0.2222,0.1358,31.1541,-11.2822,38.5193,1.3467,0.7113,-0.5693,0.5265,1.2134,0.8157,-0.5367,-0.7164,-1.0942,-1.1946,-1.3938,-0.3668,0.1607,-0.9463,0.423
1089,0.0093,0.0156,9.8665,0.0357,0.1341,0.0213,29.8901,-10.4452,39.6616,2.3906,0.8305,0.6084,0.2208,0.2791,1.9988,1.4263,-0.1365,1.3519,-1.6477,-0.7411,-0.4408,1.0232,1.2541,0.615
1099,0.0229,0.003,9.8025,0.4578,0.5419,-0.0791,30.4986,-10.6817,41.2305,1.8149,-0.8827,0.948,-2.07,-1.2768,-0.0526,-1.053,-1.2188,0.4403,0.7433,-1.3237,-2.3846,1.6322,0.7307,-0.3357
1110,0.0435,-0.0688,9.7864,-0.8001,-0.6199,-0.1048,29.205,-9.4925,39.4796,0.1129,0.0792,0.6036,-0.9381,-0.4435,1.0026,-1.0521,1.0255,-0.693,0.1377,-0.269,-2.9416,-0.6102,1.3118,0.64
1120,-0.0145,-0.014,9.7752,-0.3384,-0.054,0.3879,29.6328,-10.1706,37.2797,0.7701,-0.0749,2.793,0.4239,0.5707,0.9372,0.2331,-0.0255,-0.4689,2.2051,0.0222,-0.8226,-0.0443,0.0774,0.2023
1131,0.0123,-0.1222,9.798,-0.2356,0.3606,-0.1081,29.7842,-10.4778,40.7431,-0.0793,-0.1797,0.0541,-1.1692,-0.2062,1.3414,-0.9296,-1.1529,-1.3985,0.3422,-1.1148,1.5922,0.6605,-1.4627,0.971
1141,-0.0632,-0.0474,9.7289,-0.1694,-0.5953,-0.1583,30.1447,-10.2178,40.7193,0.1923,-0.0911,0.987,-3.5659,-0.3126,0.2379,-0.0782,0.9265,-0.7553,-0.2356,-0.8927,0.191,-1.2935,1.8446,-0.1604
1151,-0.0987,0.2141,9.9009,-0.3169,-0.9685,-0.6451,30.841,-11.1374,39.6941,-0.1583,-2.179,0.8433,-0.5772,1.5989,-0.1499,-0.2752,0.1439,0.7655,0.0557,-1.7322,1.0272,0.2274,-0.577,-0.0842
1162,-0.0353,-0.074,9.7842,-0.4384,-0.1126,-0.224,31.1289,-10.1849,40.4895,-1.7399,0.2417,0.5172,1.2615,-1.9766,-1.4687,-0.3855,0.2707,1.3973,1.5398,1.8951,-0.4626,-0.1269,-0.7477,-0.8122
1173,0.0224,0.0563,9.8063,0.2896,0.3591,-0.2419,30.069,-9.9515,37.9668,1.0041,0.6714,-0.1886,-1.0701,-0.2294,1.0064,-0.2872,-0.7198,-0.9375,-0.7211,-0.2318,-2.0411,0.2643,-0.4002,-1.5249
1183,-0.1065,-0.0448,9.7808,-0.1431,0.3008,0.7712,30.1397,-10.6811,40.9117,0.7913,0.5232,-0.3084,0.3475,1.9031,0.7937,1.9533,0.6094,-1.0545,1.0528,0.4166,0.2827,1.8795,-0.6085,-0.0677
1199,0.0776,0.0523,9.865,-0.3846,0.1502,-0.3399,30.0515,-10.285,40.8888,-1.4164,1.2234,-0.8521,-1.204,-0.1833,1.975,0.792,-0.8086,-1.0075,0.4618,-1.1811,0.0701,-1.2979,-2.1053,2.7611
1210,0.0102,0.072,9.7726,-0.0423,0.4791,-0.0592,29.732,-12.1013,40.0521,1.7293,-1.3417,0.5677,0.8574,-0.785,-0.5971,-0.165,-1.4382,0.7622,-2.0874,-1.8141,1.119,-2.2505,-0.9722,-0.4271
1221,-0.018,0.0857,9.8127,1.0924,0.1188,-1.1046,29.5243,-10.1344,39.3531,0.201,-1.6374,-0.4867,-0.1103,-0.311,1.0323,1.1278,0.3233,1.7488,-1.1445,-0.4796,-0.4984,0.7867,-0.1712,0.6056
1232,0.0005,0.0654,9.8276,-0.0601,-0.0427,-0.3087,31.1154,-9.9644,39.6202,0.3166,-0.8907,-1.7273,0.1836,2.1802,0.1228,0.3536,-0.4241,0.6401,-0.8279,1.8914,-0.5744,1.0077,0.6439,0.5125
1244,-0.023,0.1671,9.7561,-0.1621,0.4005,0.63,30.4804,-8.6811,41.5012,0.107,-1.4816,0.5913,-0.5312,0.2016,-0.6676,-0.9025,-0.689,0.0995,-1.9759,0.2454,-0.8093,-1.3151,0.6926,0.7329
1255,0.0299,-0.0057,9.8484,0.3335,0.1374,-0.1626,29.6967,-8.8026,40.209,-0.236,1.7101,0.4852,-1.113,0.3985,0.0021,0.526,-1.0091,0.18,1.3897,-1.0735,-0.5191,-0.5157,-0.174,0.7857
1266,0.1223,0.0345,9.8595,-0.0884,-0.6257,0.5472,30.25,-8.8695,39.4365,0.3168,1.4374,0.8389,0.1076,-0.3976,1.9955,-0.625,-0.1171,-1.1114,-0.0881,-1.0741,-0.3832,2.0771,0.5588,1.1246
1276,-0.0588,0.0939,9.8669,-0.5012,1.1618,0.4758,29.1963,-11.0035,40.9869,0.7886,-0.3208,-0.7143,-1.7053,1.2897,0.2497,-0.3041,-1.0315,0.1008,1.6289,0.086,-0.6766,-0.8657,0.5792,-0.9598
1286,0.0052,-0.1384,9.8499,0.5894,-0.0036,1.0898,27.5335,-10.3718,40.2441,-2.0237,-0.9799,0.9671,-2.097,-0.6005,-0.3267,-0.1815,-0.9157,-1.7477,-0.6689,1.0796,0.7802,0.7276,-0.6431,0.8648
1296,-0.0396,0.127,9.7801,0.0753,-0.0447,0.2998,31.8213,-9.6582,41.6246,-0.709,0.1466,-1.7741,-0.9447,0.2478,0.2541,1.5954,0.5112,-0.8675,-0.0557,0.6253,-0.1142,-1.0032,0.3163,0.0063
1307,0.1183,0.0003,9.7677,0.2826,0.1581,0.1085,29.3696,-11.1957,38.4625,-0.2445,0.1491,0.1714,-0.3849,0.4769,0.7385,0.0998,0.1399,0.0887,-0.4383,-0.5411,0.9871,1.4401,0.3937,0.7234
1325,0.0581,0.0155,9.7479,-0.2762,-0.2814,-0.0228,29.065,-9.1653,41.3018,1.1148,-2.0461,-0.0402,2.0305,0.2628,-0.5462,1.0319,-1.2352,0.2249,0.8769,2.2046,-0.0486,-1.9409,-1.0441,0.1835
1336,-0.0736,0.0279,9.8283,0.0151,0.4531,-1.2124,29.5911,-9.7185,41.0531,0.4937,0.5349,0.4567,-0.039,0.6166,1.2627,-0.1337,-0.5494,1.1807,0.1602,0.7448,1.379,0.3865,-0.8375,-1.216
1352,0.1424,-0.153,9.6964,-0.3042,-0.2537,-0.2081,30.3029,-9.856,39.6951,-0.435,-0.5819,1.4684,0.1342,0.1371,-0.1634,0.2634,-1.1183,0.1168,-0.3602,-0.1494,0.6054,0.032,-0.1707,0.5993
1362,-0.3037,-0.1255,9.8041,0.1746,0.4717,-0.0492,30.6775,-10.3722,41.13,-1.3683,-0.5047,-2.9589,-1.6405,-0.4716,-1.3449,-0.6146,1.1972,1.0335,1.0829,-1.0743,1.0647,-0.4058,-0.6626,0.8617
1374,-0.111,0.1131,9.8369,0.6306,-0.4551,-0.6442,29.4757,-10.5446,41.8459,0.7468,-0.7467,1.0439,0.9382,0.8731,-0.4033,-1.1988,0.302,-0.5602,0.5223,-0.7713,0.8311,1.3548,-2.111,1.0898
1385,-0.058,0.0757,9.7838,-1.2005,0.5433,-0.2017,30.8464,-9.4881,39.4051,2.0342,-0.5219,0.9319,-0.1146,-0.5187,0.7379,-0.6339,-0.3273,0.9845,-1.4305,-0.3716,-1.7528,-1.0942,0.6663,0.8732
1396,0.0896,-0.0104,9.7375,-0.0298,-0.1663,0.3571,30.0367,-9.2082,40.76,-0.465,0.1542,0.3469,-1.3366,-1.2922,1.1958,0.5688,1.2913,-0.1693,0.6223,0.141,-0.1113,2.4308,-0.1391,0.2088
1407,0.0358,-0.1815,9.9331,-0.4082,0.3605,-0.7028,32.5298,-9.9127,40.0839,-1.2665,-0.3619,-0.5166,0.7215,0.7594,-1.7363,-0.9608,0.7456,-2.4415,0.055,0.934,-0.2948,-0.3862,1.8095,-0.614
1417,0.2537,0.0748,9.8383,0.927,-0.3375,0.6548,29.4449,-9.7083,38.4096,-0.6998,0.1911,0.2557,1.0787,-0.3084,1.2288,-0.5984,-0.0112,-1.7549,1.6523,-0.503,-0.6821,-0.5123,-0.212,0.65
1428,-0.0494,-0.1788,9.7778,-0.1934,-0.2838,0.1053,31.0033,-10.0013,39.848,0.089,1.141,-1.6939,2.4038,0.1362,-0.9273,-2.4131,0.6498,-0.6855,-0.1427,-0.2411,-0.478,-1.4578,1.5407,0.6585
1440,0.0281,0.1114,9.8062,0.1241,-0.4856,-0.4449,31.2731,-9.4305,40.5563,0.8691,0.0427,-1.3534,1.6323,0.7369,2.2676,0.3802,-0.3324,-0.6245,0.2005,-0.9438,-0.7849,0.1759,-0.277,0.8974
1454,-0.065,-0.0347,9.8275,-0.2861,0.1668,0.4324,28.6728,-10.7598,41.0359,0.6736,-0.5835,1.3028,-1.4102,0.0024,0.0666,0.8102,0.0999,-0.0495,-0.2061,-0.9956,-0.7199,0.0167,-1.2885,2.3505
1464,-0.0424,0.021,9.7261,-0.3917,0.7081,-0.3212,31.4478,-8.6487,39.7273,-0.8261,1.2021,1.1558,0.2071,-1.0595,-0.7739,0.9196,1.0719,-0.4292,-1.5993,0.0943,0.6751,-0.1329,-1.9064,-0.0839
1480,-0.2715,-0.0506,9.7566,0.2298,0.8355,-0.3817,29.7688,-9.7814,40.507,0.2996,0.3272,0.9912,-1.895,0.9593,0.0775,0.1938,0.5004,1.1903,-0.1589,-1.1922,0.9023,0.0777,-1.0853,0.9878
1490,-0.0239,0.0237,9.8404,-0.43,0.0299,0.1882,30.5276,-10.2609,39.6315,-0.7461,2.1132,0.794,-0.176,-0.0229,-2.1087,0.4334,0.8077,-0.9319,-0.4766,0.4113,-1.1871,0.3676,0.472,0.9371
1501,-0.0496,-0.062,9.839,0.6593,1.0934,0.0749,30.2973,-8.8846,40.5545,-0.0203,0.8737,0.063,0.6748,1.6148,-0.5341,-2.1009,-0.687,0.0899,-0.7027,-1.6609,-1.0404,1.803,-1.4223,-0.1739
1518,-0.0881,0.0639,9.7896,0.1299,-0.006,-0.7661,29.1742,-10.9592,38.442,-0.5527,-0.2634,0.034,0.2619,-0.4296,2.1247,0.0313,-0.2006,-0.7142,0.3315,-0.1583,-1.423,-0.5053,1.1701,0.7279
1528,-0.1472,0.043,9.8194,-0.4413,-0.0342,0.5899,30.2933,-10.4917,40.2852,0.8399,1.1314,0.3272,0.1417,-0.4553,0.3576,-0.042,-0.8394,-0.9525,0.7308,1.8957,0.7569,-0.0023,-0.9438,-0.5527
1538,0.021,-0.0386,9.8574,-0.4784,0.1351,-0.7308,30.1025,-9.3321,40.7505,0.3022,1.8469,-0.8914,0.0596,-0.2289,1.1533,0.9416,0.6179,-1.2383,0.9584,-0.0537,-0.7071,0.3867,0.5082,-1.3511
1553,-0.0502,0.0734,9.8267,0.3606,0.3138,0.2976,28.4948,-9.1494,41.089,1.3896,-0.4976,-0.2017,-0.0053,1.3129,-1.4157,0.9641,-0.108,-0.5345,-1.4092,-0.4256,0.0761,0.5217,2.15,-0.4938
1567,-0.2004,-0.2024,9.7792,0.0317,-0.0507,0.5404,28.2077,-9.7123,39.8338,-0.192,0.1566,-1.0406,1.8238,-1.5584,0.6121,1.1102,0.3918,-0.5647,-0.1181,0.6463,-0.7116,-0.7131,0.9438,-1.7402
1578,-0.142,-0.1422,9.8505,-0.0417,-0.5705,-0.9513,29.1265,-9.9181,39.9319,-0.5713,-0.0111,0.8004,0.0088,-0.0642,-0.959,0.1775,-0.1335,-0.4274,0.9879,-1.165,0.1075,1.6756,-1.8438,0.2067
1594,-0.0439,0.0201,9.6903,0.5799,1.0655,0.0717,29.257,-10.2114,38.1869,1.6872,0.6867,1.5584,-0.3666,-1.0407,-1.5998,1.8447,-1.7353,-0.0562,-0.8619,1.0577,-1.8184,0.2709,1.2971,0.0653
1605,0.0841,-0.1271,9.8076,0.1926,0.1105,0.3271,29.768,-12.1216,39.5484,0.6062,0.4384,0.3423,0.2566,0.4955,-0.7724,-2.3539,-0.0369,-0.0795,-0.0845,1.1331,-0.0788,0.8208,-0.1352,0.413
1616,-0.0217,0.0338,9.7452,-0.5755,-0.2046,-0.2998,30.7015,-9.7939,40.4634,-0.4706,0.5284,1.046,0.7807,-0.7177,-0.7029,-0.3554,0.4972,0.4302,-0.3498,-0.4841,-0.7946,0.2901,-1.8038,0.044
1626,-0.0166,0.0469,9.9127,-0.2089,0.839,0.3059,30.5596,-8.831,41.0981,1.118,0.8954,0.5748,-1.2858,0.7948,0.3921,-1.0572,-0.1655,-0.5825,1.5004,0.7308,-0.8511,-0.7596,0.2461,-0.3278
1637,0.0217,0.0969,9.8014,-0.3193,-0.7323,0.2929,29.0178,-10.7204,40.4514,0.8407,0.2503,-1.8122,-2.0087,0.5127,-1.4202,-0.0565,1.196,-0.0296,1.454,-2.1062,1.5887,0.7533,0.4812,-0.7209
1647,-0.0043,0.0078,9.7717,0.5607,-0.1849,-0.6712,30.5265,-10.6468,40.434,0.3694,-0.9293,-0.8883,0.8323,-0.4176,0.6799,-0.6066,0.2,0.8063,-1.0033,0.2947,0.8996,-0.7612,-1.1155,1.6285
1657,-0.0426,-0.1062,9.8225,0.6944,0.4264,0.3531,28.3086,-8.1721,40.3799,-0.2586,1.681,0.4878,0.2353,-0.163,0.0167,-0.3139,0.2374,0.3292,0.7555,-1.7484,-0.8637,-0.911,0.2959,-1.9496
1668,-0.1271,-0.0305,9.7508,0.2823,-0.7916,0.0164,30.3912,-9.4467,39.7097,-0.5875,1.0872,0.1937,0.4679,-0.3888,0.9726,-0.1494,0.2587,-1.0481,-0.8271,0.1707,0.6026,0.3055,1.2977,-2.6622
1682,-0.17,0.0704,9.7319,-0.7382,0.4659,0.6806,28.7968,-9.1541,41.4614,0.4269,-1.0503,0.5399,-0.0007,-0.8658,-1.3771,0.3132,-0.496,1.1759,1.6447,1.5831,0.5191,0.5376,0.1617,-1.5599
1694,0.0187,0.0585,9.7236,-0.4862,0.4354,-0.7064,29.9469,-10.868,40.2857,0.4116,1.0715,-0.4527,1.8613,0.3954,-1.2881,-0.524,1.0193,0.2507,0.5702,-0.3949,-0.0941,0.4133,-1.1759,-0.7608
1706,-0.1736,-0.0503,9.772,0.2184,-0.1016,-0.2252,29.7982,-10.2983,40.1235,0.2665,0.3983,-0.385,-0.8501,1.247,0.7248,1.1247,-0.8229,0.5752,-0.9563,-1.2415,-0.4973,-0.5627,-0.9948,-1.1549
1716,0.1911,-0.0403,9.7875,-0.2352,-0.6368,-0.6791,30.3642,-7.7041,40.8548,-0.9123,-0.1666,-2.1077,1.759,-0.8829,-0.5094,-0.2315,-1.1866,-0.8515,0.7873,-0.7787,0.5,2.3691,0.775,0.5328
1733,0.14,-0.0289,9.7835,0.236,0.0921,0.5332,31.851,-9.7514,40.1789,-0.3958,-1.2437,0.7998,0.6048,-0.9264,0.0986,0.2614,0.1484,0.5698,0.2721,0.5292,0.1264,1.937,0.3359,-0.2823
1743,0.1855,-0.0064,9.7742,-0.3521,-0.2205,0.3946,29.5873,-8.7438,40.2559,0.4714,0.7552,-0.4207,-1.0424,-0.8651,0.9952,0.974,1.0965,0.8577,-0.8698,-1.1921,1.4799,1.3675,2.2574,0.9948
1753,-0.0733,-0.0013,9.8394,-0.7937,0.143,-1.199,30.1598,-10.4719,38.6686,0.1067,0.1086,0.4393,-0.1927,-2.4723,-0.3325,1.0176,-0.1265,0.5748,-1.7897,-0.8421,0.395,0.6836,-0.4285,-0.1963
1764,-0.0142,-0.0693,9.7425,-0.3786,-0.1919,-0.0925,28.7498,-10.1802,41.3057,0.7675,0.4285,0.7241,-0.7795,1.4541,2.0879,-0.923,-1.3508,-0.3688,0.5476,-0.8519,0.0277,2.1606,0.5234,0.3805
1775,0.2821,0.0032,9.7908,0.2387,-0.4155,0.0089,30.0323,-13.1144,39.5934,0.6873,-0.2686,0.0361,-0.5215,-0.4833,0.1474,-2.2123,-1.624,-1.1778,0.532,0.9015,-0.174,0.6247,-0.1634,2.7025
1785,0.0689,-0.0207,9.7278,-0.0357,-0.7049,-0.7838,28.9839,-11.3518,39.8133,-1.001,0.4483,-0.6792,-1.1729,0.8617,-0.3859,0.3994,-0.493,1.6116,0.0978,-0.7469,-0.908,1.8802,-0.5109,0.6253
1795,-0.0744,-0.1678,9.7808,0.398,0.6192,-0.5401,31.1872,-8.9945,41.0506,0.8351,-0.3207,-0.4753,-0.79,1.27,-0.5723,-1.5594,-2.6292,-0.3636,0.1186,2.5194,0.5252,0.6134,-0.3636,1.8938
1810,-0.0346,0.0456,9.7891,0.1046,0.4023,-0.3579,30.7873,-11.2862,41.6792,-0.1187,-0.2453,1.1799,-0.5471,-0.1263,-0.7026,0.0412,-0.2595,-0.1582,0.5698,-0.6801,-2.0046,0.5945,-0.692,0.488
1820,-0.098,-0.0371,9.9375,-0.0991,-0.8766,0.3369,30.8588,-7.5214,39.8932,-1.0835,-1.7693,0.9367,-0.4834,-1.0886,-0.503,-1.6858,-1.4136,0.6475,-1.3986,0.1137,-1.0508,2.0616,-0.7434,-0.805
1831,0.1784,-0.085,9.7902,0.5485,1.1612,-0.7523,30.0198,-7.9833,38.3369,-0.895,0.6945,1.1952,0.6111,0.47,0.3623,0.0671,2.7268,-1.1646,-0.2147,-2.4162,-1.6049,-0.166,0.2812,1.2681
1842,-0.1255,0.1477,9.7357,0.771,-0.1005,0.1163,29.4195,-9.8588,39.8289,-1.5422,1.3085,0.2754,0.0012,0.2817,-1.0224,1.7808,0.8553,0.528,1.2911,-0.2824,0.3239,-0.2464,-1.3226,-0.3669
1857,-0.0805,0.0816,9.7882,0.7803,0.685,-0.0572,29.655,-9.6261,40.1906,0.7314,-2.1801,0.1656,0.589,-0.6155,1.605,0.5067,0.1582,-0.2472,0.574,0.3815,-1.4492,0.5521,-0.6895,0.3714
1868,-0.2065,-0.0628,9.8633,-0.0442,-0.0435,0.0317,29.7346,-9.4595,39.4236,1.1161,1.1701,0.4838,-0.6899,0.406,1.08,0.2277,1.1964,2.2356,0.1258,-0.1909,-0.7255,-0.1543,0.2728,-1.1656
1878,0.0214,0.0002,9.7293,0.3888,1.1272,0.4475,30.0868,-7.923,38.069,1.3477,-0.0914,0.0569,-0.7806,-0.6941,1.317,0.8311,0.6829,-1.6375,0.6182,0.9858,0.3959,-0.0354,0.5189,0.345
1889,-0.032,-0.2221,9.8219,-0.162,0.3361,0.0573,27.8586,-10.1196,40.1541,1.6869,1.2239,-0.3703,-0.9432,-0.2518,-1.5545,-1.5667,-0.99,0.9895,0.5465,1.2796,-0.0936,0.2621,1.0394,-0.0144
1899,0.1539,0.0998,9.7838,-0.0582,-0.2935,-0.2172,29.8713,-10.4129,38.9447,-0.8942,-1.9571,0.2982,0.2034,-0.7509,-2.2348,1.1182,-0.7317,2.9979,0.3942,-0.3117,-0.8298,1.2881,0.5388,0.2017
1909,-0.0589,-0.0186,9.8555,0.916,-0.526,-0.3233,28.8756,-7.8081,38.4815,1.1527,-0.2026,-0.8049,2.5246,1.6684,1.0191,1.1821,-1.5267,-0.0364,0.7831,1.6525,-0.4365,0.826,-0.8253,0.2551
1930,-0.0997,-0.1007,9.7512,-0.106,-0.1945,0.291,29.8358,-9.5522,40.0539,-1.888,-1.504,-0.5453,-0.0654,-0.0278,-0.6197,1.4929,-0.8857,-1.3677,-0.3663,-1.0238,-0.7508,0.7275,-1.2231,0.0089
1942,0.1098,0.0838,9.8165,0.06,-0.582,0.78,28.7394,-9.297,40.0112,-1.0283,-1.4739,0.6863,0.1988,-0.0606,-0.3056,1.9112,-0.0399,-0.82,0.7431,0.7825,0.0622,-1.2226,0.5651,0.1455
1952,-0.0973,0.0341,9.8037,-0.043,1.0261,0.2361,28.276,-9.9705,39.7092,0.6457,1.1363,1.7881,-1.2318,0.3995,0.4527,0.4573,-0.7609,0.1014,-0.6203,0.154,0.9501,-1.1082,0.0363,-0.6193
1963,0.1623,0.0538,9.9061,-0.9571,0.1247,-0.7345,29.6843,-8.9057,38.7992,0.2969,-0.2948,1.6285,0.2717,0.2829,0.7119,0.7425,1.974,-1.1522,-0.2412,1.7731,-1.0469,0.0724,-1.7813,0.0575
1979,0.0329,-0.1972,9.7417,-0.976,0.4434,-0.1841,28.9037,-8.6547,38.9372,-1.5525,-0.1454,-1.0389,0.4772,-0.4378,-0.1282,-0.2698,-0.5703,-0.1243,-0.2391,-0.8381,-0.0482,-0.1319,0.0867,1.1082
1990,0.0652,0.1041,9.7586,0.2369,0.3129,-0.5428,29.7754,-10.912,39.449,0.4792,1.2919,0.3326,0.1517,-0.6993,1.8834,-0.0948,-1.3332,-1.2866,-0.1125,0.8386,1.4847,-0.2015,0.0109,0.0976
2001,0.0418,-0.0362,9.7991,-0.175,0.1413,-0.5343,30.7498,-8.4979,40.1871,0.9053,0.3831,0.6943,0.0868,0.3337,0.4507,0.6057,-0.5856,0.3848,-0.4517,-0.9453,0.9063,1.6182,0.5906,0.4023
2011,0.0467,-0.0779,9.7817,-0.3853,-0.4075,-0.4808,31.0471,-9.6988,40.0876,1.268,1.6844,1.2689,1.3601,0.2648,0.8253,0.0634,2.7704,-0.0189,-0.7163,-0.8733,-0.724,0.0342,0.291,-0.1099
2022,-0.114,0.1458,9.7685,-0.6388,-0.7017,0.2231,30.1855,-11.0024,37.8128,1.116,-0.2345,0.7398,1.4664,1.3136,-0.4196,0.5866,-0.0025,-1.0404,0.3162,-0.3149,0.5178,-0.2606,-1.1473,-0.422
2032,0.0217,-0.0366,9.8484,0.3067,-0.46,0.6287,28.971,-11.2983,40.4117,0.9627,0.2427,-0.4356,-1.601,0.0068,0.4547,0.1124,-1.5122,-0.5699,-0.0442,-0.1492,-0.7916,-1.7343,-0.6653,-0.8854
2042,0.0006,-0.0279,9.8259,-0.5001,0.6806,-0.6115,32.0738,-10.9455,41.4834,0.9213,0.1416,-0.8509,-1.9345,0.0381,-0.5582,-0.4032,0.3683,-0.1261,-0.8745,0.6717,2.0435,-1.0097,1.1758,-0.5916
2060,-0.0978,0.1674,9.8268,-0.3222,-0.7339,-0.0043,30.464,-11.9199,41.307,1.2462,-0.6031,-1.4012,0.3188,0.0347,-1.0685,-1.1913,-1.2211,-1.445,-0.9691,1.1792,0.3708,-0.9783,0.9275,-1.4852
2070,0.2488,-0.1151,9.8193,0.4711,-0.3185,0.6377,30.4419,-10.0544,39.4812,1.4436,-0.2012,0.5445,-0.8564,-0.0997,-0.0469,1.2934,1.7821,-2.5937,-1.4084,-0.1625,-1.2458,-0.6977,-0.0599,0.5354
2081,-0.0411,0.0261,9.7209,0.3299,0.1214,-0.5334,31.4833,-11.2962,40.2767,0.1775,0.1071,0.9547,-0.1778,-0.6067,0.8984,-1.0597,-0.1488,2.2029,0.3837,0.4219,-2.1847,1.5094,-1.7417,-0.6317
2096,-0.0402,-0.0136,9.8328,-0.8688,-0.6391,-0.3429,29.6114,-10.9466,38.225,-0.6108,1.0046,0.4254,-1.1525,0.2228,0.2311,1.8721,-0.8328,-0.8767,-1.6001,0.3799,1.5984,-0.8177,0.1175,0.2938
2106,-0.0457,0.0913,9.7467,0.1482,-0.3082,-0.039,31.8817,-9.5483,40.9158,0.5253,1.1187,0.1977,-0.8229,0.2095,1.2905,-0.4827,2.4738,0.1036,-0.2645,-1.0857,-1.0007,0.0486,1.9049,-1.8702
2117,0.1539,0.0128,9.8688,-0.1194,-0.1434,-0.2637,30.3534,-8.5842,40.7486,-1.2753,0.3244,0.8237,0.6629,0.1612,-1.8669,1.6092,-0.9221,0.0568,0.6028,-0.3005,1.7513,-0.3257,-0.795,-0.267
2127,-0.0712,0.0336,9.7456,-0.23,0.3924,-0.0965,29.0079,-8.6483,40.0005,2.2445,-1.8265,0.0973,2.2584,-1.0061,1.0979,0.4723,-1.0577,-0.0474,-0.0389,0.3609,1.356,0.6585,1.0223,1.0497
2138,0.1735,0.016,9.8354,0.4939,-0.1389,-0.9154,32.0755,-12.0525,39.1648,0.7972,-1.2968,-0.6868,0.251,-1.2087,0.0059,-0.4372,1.0762,-0.9299,0.2037,0.0694,-0.8372,0.6824,-0.873,-2.0907
2148,-0.1471,0.013,9.7901,-1.376,1.5148,0.648,29.7851,-10.3091,41.8244,-1.2168,0.2103,-1.7239,-0.0964,0.3776,0.3475,-0.1552,0.4869,-0.1913,-0.173,-0.3196,1.2032,-0.6232,0.4266,0.1852
2158,0.1707,-0.0481,9.8221,-0.0298,0.7716,0.5496,29.9965,-11.6953,39.3908,-0.5304,1.3538,-0.2863,-1.6722,1.2513,1.4937,0.1919,0.6205,1.1496,0.7078,-0.5456,-0.9234,1.2291,-1.7849,-0.5809
2169,-0.0432,-0.1717,9.7694,-0.3716,-0.36,-0.0904,30.1355,-9.7301,40.3399,0.2234,1.5747,0.9785,-0.6623,0.0978,-3.2442,0.848,1.4197,-0.1493,0.0138,0.9912,-0.0391,2.0171,0.021,0.5713
2187,0.0819,0.0594,9.8088,-0.7829,0.0659,-0.1209,31.1293,-8.6006,39.921,0.8367,-2.128,0.0968,-0.699,-0.4725,-1.2185,-1.0576,-2.3096,0.9371,-1.7382,-0.1061,-0.0637,-1.2184,-0.953,1.0398
2198,0.1707,0.1155,9.8252,-0.469,-0.2592,-0.5657,30.5583,-9.68,38.5587,0.9383,1.3945,-0.0639,1.2659,-0.0873,-0.2664,1.9553,0.0152,-0.3646,-1.1552,0.5737,1.4149,-1.7035,1.1622,-0.0219
2209,0.0922,0.0887,9.8496,-0.4598,-0.9627,-0.5801,31.0128,-9.8538,41.7532,1.2031,0.5904,1.5675,-0.6019,0.5017,-1.3454,0.0903,-1.5785,0.0179,-0.3642,-0.4744,0.1512,2.5582,0.1671,-0.2431
2220,-0.1302,-0.0531,9.8122,-0.5087,1.0616,1.0769,29.5414,-10.6129,40.7318,2.3645,1.2317,0.0498,0.7453,2.3315,-0.5201,0.8093,1.0913,-2.1208,1.8852,0.248,-0.8233,0.6488,0.5964,-2.0605
2230,0.0856,0.0974,9.8563,-0.5285,0.3717,-0.1026,31.0381,-8.7374,39.8408,-1.3142,0.0764,-0.001,-0.0631,-0.6548,-0.925,-1.7397,-0.2691,1.4918,0.4827,0.2601,-2.1337,-0.3591,-0.6773,0.3444
2242,-0.0522,0.0712,9.7774,0.172,-0.1191,-0.188,29.4421,-10.4129,39.5388,-0.6172,-1.8204,-0.0444,-0.3522,-0.7066,-0.6389,0.4732,0.1913,-0.1312,0.0941,0.3723,-0.6654,-1.6285,0.5216,0.5941
2252,0.1055,0.0212,9.8394,0.4112,0.8739,0.7976,29.0869,-10.4414,38.7174,2.1168,0.2239,-0.3545,0.5118,0.6698,0.6058,2.275,-0.5284,0.5995,-0.5603,-0.6991,1.0025,0.2966,0.6951,-1.4803
2263,-0.1213,-0.0844,9.7908,0.3875,0.7387,0.469,31.4811,-10.8837,40.9633,-0.2648,-0.5303,0.2145,2.2718,0.0935,-0.785,-0.0688,1.0961,1.9285,-0.5097,0.5664,1.2288,0.8292,-2.6011,-0.3639
2273,-0.0448,-0.1938,9.8253,-0.0316,-0.2352,-0.3376,30.5785,-10.2001,38.4179,1.299,0.7287,0.3147,0.2762,-0.1962,-2.352,0.0417,-0.8971,0.5804,-0.3863,0.2372,-0.1103,-0.0205,0.8945,-1.7744
2283,-0.0679,0.0295,9.7679,1.0735,0.0658,1.352,29.5308,-9.629,40.0462,-0.0406,0.6295,0.6392,-0.586,1.7493,0.0569,0.6912,1.3633,-1.2999,-1.0314,-0.2321,-1.0142,-0.246,-0.9008,-1.5314
2294,-0.0639,-0.0058,9.7906,-0.441,-0.2078,-0.1402,29.3142,-10.1581,41.2412,-1.7062,1.4108,1.1086,1.5901,-0.941,-0.6205,1.5691,0.5142,0.2222,0.2469,0.4599,-0.9662,-0.6785,1.7472,-3.4153
2308,-0.0269,0.1279,9.8099,0.6796,1.1352,-0.6565,31.0102,-10.6578,41.1097,-0.9258,0.1545,0.2679,-1.3329,-1.7346,-0.129,0.4415,0.4726,-0.6503,-1.2228,-1.2288,-1.4703,0.4329,0.1112,0.3481
2320,0.0412,0.0297,9.8169,0.2346,-0.6627,0.0929,31.8469,-8.9806,39.4211,-0.2323,0.8118,-0.6638,-0.8263,0.3137,1.1063,-0.5761,0.6014,0.605,1.2909,0.7756,-0.4788,0.4537,0.857,0.1687
2331,-0.0759,-0.1786,9.8103,0.2375,0.1868,-0.8883,29.3515,-9.3318,41.2541,-0.9487,-0.5053,0.1402,1.5943,-0.9823,-0.774,2.0284,-0.0012,-0.0339,-0.3671,-0.4252,-0.5133,0.729,0.825,0.6765
2341,0.0384,0.0321,9.8592,0.1283,0.3898,1.2309,30.3352,-9.4217,39.6595,1.4647,-0.8265,1.7825,-0.363,-0.29,1.22,-0.1707,-0.8806,-0.6874,-0.3996,0.1828,-0.2658,0.4583,-0.4109,-0.268
2352,-0.1832,-0.1452,9.7779,0.0353,-0.1886,-0.0307,30.141,-10.2964,40.1217,1.4155,0.5308,-0.8043,-0.48,0.5474,-0.8518,1.2705,-1.3518,1.1487,0.9739,-0.1831,-1.7281,1.2592,-0.021,-0.5154
2362,-0.0049,0.1975,9.8806,-0.6703,-0.4827,0.3244,28.7299,-9.825,37.3586,0.9887,-1.9822,-0.6853,-0.3512,0.2757,-0.8219,-0.737,0.5655,-1.7179,-0.7247,-1.0144,2.5411,-1.4944,0.7023,0.099
2376,0.1591,0.1562,9.8551,1.3853,0.4269,-0.1449,28.9391,-11.9262,41.3394,0.4398,1.2589,-2.21,0.6849,0.4449,-0.5654,3.1102,1.8124,-0.3225,0.0362,0.5191,1.6371,0.4516,0.6671,-0.7471
2386,-0.0889,0.1187,9.9186,0.2205,1.1703,-0.3883,30.764,-8.7739,40.9905,-1.6538,1.6285,0.2302,0.2528,0.4745,1.9785,0.9392,-1.8804,-0.7235,0.2629,1.2052,-0.6024,-0.1754,-0.7234,0.1734
2397,-0.0463,-0.0898,9.8142,0.0657,-0.1904,0.1682,30.2188,-8.643,41.1919,0.9213,-0.5601,-0.8427,-0.5937,-0.9329,1.4137,-0.1233,0.6393,-0.5221,1.0419,0.7043,0.0442,0.5237,-1.4045,1.1371
2407,-0.0381,0.0636,9.7881,0.6644,-0.4441,-0.5511,30.803,-10.3959,41.0129,0.7544,0.5208,-1.7857,-1.731,-0.2901,0.2052,-0.4181,0.9126,0.3259,0.2592,1.7297,-0.0264,1.1617,-1.3367,-1.3041
2418,-0.0675,0.0036,9.8903,0.2456,-0.7592,-1.2211,30.6667,-9.0062,40.8873,-2.682,0.357,0.5211,0.072,-2.6315,1.1044,1.5219,0.0336,0.6714,-1.1553,-0.0991,-1.0168,-1.0957,-0.1388,0.0846
2434,0.067,-0.0641,9.7616,-1.1024,-0.3082,0.8488,29.9992,-9.1979,39.6125,2.3214,1.1544,0.1812,-1.7234,-1.3617,0.8798,-0.6922,2.3254,-0.1848,0.4641,-1.3055,-0.3754,-0.2838,1.0332,-0.4308
2445,-0.0738,0.2432,9.8133,-0.6368,1.0527,0.8081,31.3091,-9.8404,40.5276,0.2864,0.0951,0.3527,-1.8349,0.8338,0.1157,0.7881,1.0924,-0.088,-0.635,-2.1697,0.6026,1.2723,-0.384,0.2651
2455,0.1767,0.3066,9.8349,0.0867,0.8389,0.757,30.3903,-10.6929,40.3623,0.5819,-0.084,0.7374,0.3341,0.7071,-0.8138,0.8648,2.1362,-0.5953,0.1389,-0.8378,-0.2205,-2.1061,-0.3096,-0.3663
2466,-0.0783,0.095,9.715,0.3417,0.5206,-0.5678,30.0397,-9.3193,39.2834,1.6204,-0.7634,1.5225,1.0429,-2.7924,-0.5951,0.5663,-0.5589,-0.3163,0.7423,-0.9136,0.4291,-1.1587,0.8734,-0.2042
2480,0.153,0.0043,9.7589,0.2044,-0.2922,0.2411,30.1756,-9.9888,40.3375,-0.341,1.2369,-0.3702,0.1321,1.6607,-0.5806,1.8901,-1.3863,-0.0089,-1.2116,0.5992,-0.4711,1.6367,-1.1128,0.719
2491,0.0667,-0.0787,9.8739,0.2382,-0.703,-0.2745,29.0782,-8.6424,39.881,-0.096,-1.0163,1.2055,-1.6123,0.4205,0.7606,-2.8177,-1.5847,-0.094,0.3054,-0.5442,-1.5953,-0.6953,0.718,-0.3274
2502,0.1171,0.0881,9.7959,-0.3939,0.3932,0.0164,30.4705,-10.1549,39.6646,-0.2523,0.4584,-1.2058,0.4992,-1.0032,1.727,0.4054,-0.7283,0.2201,-0.563,0.772,-0.308,-0.9483,-0.7088,-0.5366
2512,0.0055,-0.1036,9.7726,0.1228,-0.1786,1.0103,31.3385,-10.5226,41.7666,-0.2045,-0.5039,-0.3525,-0.0308,0.3087,0.0001,1.1807,-0.5847,0.2849,0.7479,-0.461,-0.908,0.2498,1.9546,-1.4276
2523,0.1263,-0.0011,9.7765,0.3976,0.0748,0.1243,31.5811,-10.2209,39.4023,-0.4023,-0.305,-0.0909,-0.2446,-0.6098,0.819,-0.4499,0.3492,0.1616,-1.0673,0.0119,0.1493,0.6039,-0.4864,-0.8412
2534,0.0055,-0.0331,9.8585,-0.0533,-0.7751,0.0195,29.7165,-9.9717,40.7011,-0.005,-2.6609,-2.3254,-1.6013,-0.1013,1.2122,-1.3835,-0.0389,0.5539,0.9399,0.0993,0.3684,-0.7897,-1.0522,-0.6662
2544,0.0756,-0.0761,9.7503,0.0169,-0.1361,-0.2808,31.0865,-10.719,39.0348,-0.4558,0.2971,-1.7669,-0.3609,1.4762,-1.341,-0.8245,0.8905,-0.4095,-0.5519,0.3819,-0.1711,0.0401,0.3795,1.6362
2558,0.2107,0.0132,9.756,0.3264,0.5278,0.0223,28.2557,-10.9274,41.261,-0.7054,0.0189,-0.0693,0.3066,1.0148,-1.8652,0.9642,-1.214,-0.4101,-1.4795,1.1398,1.2241,1.142,1.0638,-0.8947
2571,-0.1838,-0.0005,9.8483,-0.4519,0.6827,0.5695,29.1952,-12.7188,40.4826,0.6926,-1.0048,-2.4834,1.4699,-0.1021,0.6327,1.2303,0.1033,1.084,-0.5007,0.6326,-0.3379,-0.5583,2.0346,1.5805
2583,-0.0509,0.0999,9.7836,0.4779,-0.2026,-0.6381,30.9583,-9.0974,39.1656,-0.5422,-1.9341,-1.1688,0.4267,-0.5635,1.4126,0.4874,-0.4061,0.7691,-0.2394,1.0194,0.1292,1.4225,-0.7466,-0.0396
2594,0.0007,-0.105,9.7741,-0.2428,-0.037,-0.2782,30.4071,-8.5521,40.8589,0.6691,0.1427,-0.4272,-0.3679,-1.585,1.434,0.5604,-0.3833,-0.032,-1.1106,-0.8715,-1.2839,0.2894,-1.7591,0.9186
2610,0.1943,-0.0737,9.7925,0.2054,0.2721,-0.4954,30.3518,-9.3826,39.7735,0.4095,-1.061,-0.3944,-1.1688,-0.7905,-0.5952,-0.7933,2.255,-1.626,0.448,-1.6178,1.2285,1.0203,0.4804,1.1242
2621,0.1388,-0.0774,9.7659,0.0127,-0.047,-0.2218,30.4929,-10.3778,41.4846,0.7164,1.2893,0.2171,1.5702,0.6814,0.498,-0.582,-0.1421,1.4025,0.3491,0.4968,-0.4632,0.2908,-2.8797,-0.5455
2631,0.0511,-0.0318,9.7508,0.2615,-0.163,0.1132,30.9708,-8.8197,40.9212,2.1335,0.3937,0.575,0.9458,1.5021,0.1004,0.4491,0.0272,-0.2796,-0.5154,-1.5813,0.4705,0.5059,0.5184,-0.1909
2642,0.1304,-0.2107,9.7515,-0.3754,0.0518,0.9932,29.9653,-9.0815,39.5568,-0.4185,0.3008,-0.4149,-0.5347,-0.8301,0.666,0.6944,0.5916,0.5863,-0.5157,-0.097,0.6946,0.8184,-0.756,-1.0916
2652,-0.0046,0.0025,9.8082,-0.6868,-0.319,0.6593,29.0725,-11.1166,40.9703,-0.4265,1.0173,-0.3658,-1.4389,-0.3013,-2.3234,0.0456,0.5312,-0.4704,-0.8479,1.4636,-0.7328,0.0165,-0.1767,-0.3048
2662,0.1176,0.1538,9.8198,0.3634,0.2367,0.1408,29.276,-9.6625,40.2566,-0.9563,0.9262,0.977,-1.5054,3.0396,1.1362,-1.1036,-0.3638,-0.9168,-0.4817,-0.6568,-0.5184,-0.8271,-0.7654,-1.4265
2681,-0.0705,-0.0556,9.7824,-0.0557,0.4389,0.0574,30.8063,-7.8996,40.0281,-1.4602,-1.5145,-0.959,0.7258,1.4059,-0.6033,-1.9514,-1.1388,1.9777,0.2943,0.874,0.7491,-0.084,-0.57,-0.3935
2695,-0.0103,-0.0387,9.7689,0.5444,-0.495,0.19,29.7688,-10.0865,39.5914,0.0641,-0.3449,-1.8798,-0.1303,0.3165,-0.3822,-0.7652,0.0495,-1.7416,-0.0359,-2.4203,-0.0111,-1.1099,0.9231,0.6553
2707,0.0831,-0.0231,9.8707,-0.4887,0.4419,0.4367,31.0392,-10.3198,40.0209,-0.9404,-1.0373,-0.5147,1.0919,0.4413,-0.4409,0.6551,-1.5678,0.1,0.8585,0.3256,-0.8904,-1.2007,1.6848,-0.3781
2718,0.0279,0.1034,9.7558,-0.4655,0.5402,0.2656,29.5037,-9.8621,40.9086,-1.3585,1.779,-1.0785,-0.0912,-0.1482,1.4545,0.8298,2.3145,-0.412,-1.3933,-0.4638,0.8299,-1.8811,0.9485,0.3063
2736,-0.1797,0.0131,9.7706,-0.834,-0.6151,0.0744,28.9634,-10.171,40.7057,-0.5417,-0.4559,2.291,1.9015,0.4354,0.193,0.195,0.3799,0.3212,0.311,0.8893,0.604,-0.7158,-0.7326,0.1938
2747,-0.0097,0.0088,9.7603,0.2234,0.0088,0.267,30.0474,-10.5891,39.3614,1.0043,0.3423,-0.165,-2.6196,0.9353,1.1587,-0.001,-1.3493,-0.1603,0.2297,-0.8083,0.8114,1.6138,-1.2062,-1.4303
2758,0.037,0.0662,9.8279,-0.2641,0.4496,-0.021,30.084,-10.087,40.2002,0.6258,0.9011,1.8339,-0.6372,0.2529,1.2973,0.1597,-0.3209,0.2949,-0.466,0.2849,0.7796,0.7547,0.8893,-0.0483
2768,0.1122,0.045,9.7413,0.3037,-0.9285,0.1536,31.3436,-10.8523,39.3161,-0.2723,0.6413,1.1054,-0.34,1.093,-0.785,-0.6485,-0.8026,-1.2849,-0.6742,0.1515,0.0106,-0.2128,-0.5418,-1.2276
2779,-0.0649,-0.1994,9.7477,0.0091,0.8586,0.1163,30.9326,-10.5418,41.9885,-0.2823,-1.3282,-0.3164,0.1521,-2.1609,-0.3734,1.4115,-0.4154,0.0149,1.0652,0.334,-1.8298,0.2345,-0.4083,-0.0905
2789,0.0921,-0.0066,9.8142,-0.3039,-0.0862,-0.1122,32.0876,-10.1668,41.6837,0.226,0.0588,0.0903,0.0258,-0.0935,-0.5113,-0.5685,2.5383,-1.0879,-0.3638,-0.2761,-0.3227,0.94,-0.889,-0.6265
2805,0.115,-0.097,9.9357,-0.1216,0.225,0.5496,29.8971,-8.9879,40.4113,0.0479,0.8918,0.6313,0.0192,-0.2437,0.2335,0.5672,0.7286,-1.6047,3.1106,-0.2259,-1.5501,1.6573,0.8587,0.5559
2816,-0.0927,-0.1627,9.861,-0.1113,0.2977,-0.2192,30.282,-10.4742,39.0394,-0.9645,0.1352,-0.8353,-0.3064,-0.3123,-0.3368,-1.1292,-0.1013,-0.3285,0.9591,0.463,-0.4677,-0.3331,-0.5081,0.2532
2830,-0.0814,-0.1981,9.8124,-0.0421,0.4927,-0.7184,31.046,-9.1751,41.3319,1.5261,0.1842,0.2397,-0.5542,-2.0753,-1.2379,0.4612,0.7566,-0.8898,0.8925,0.1351,-0.6039,-0.2022,-0.2887,-1.889
2841,-0.0591,0.0359,9.7601,-0.081,0.1731,0.9605,29.279,-7.8363,38.3219,0.0384,-1.7773,0.4944,1.6616,-0.2293,0.9676,-0.4343,-0.6734,-0.3774,-0.7479,0.7656,0.6571,-0.187,0.2189,0.4854
2857,0.1157,-0.0639,9.8354,0.6741,-0.1971,0.6752,29.4759,-8.8772,40.6145,-0.5223,0.6691,-1.6633,-0.1794,-0.0177,1.4826,1.8728,-0.8856,0.6573,-0.198,0.5684,0.874,1.0196,-1.4624,0.2568
2867,-0.1079,-0.0256,9.7107,0.5745,-0.2268,-0.146,29.6568,-9.5804,40.7425,-1.2909,1.8238,0.6262,-0.9393,1.5788,0.5132,0.831,-1.0639,0.6903,-0.941,-0.1076,0.1783,0.6357,-1.3022,-2.9359
2878,0.1703,-0.02,9.7953,-0.4211,-0.4087,-0.0837,29.7558,-10.1885,40.0913,0.2295,-1.7392,0.8047,0.233,0.0348,1.1685,-0.2159,1.3966,0.0324,0.0332,0.2059,-0.2854,1.3459,1.8541,-0.9707
2888,-0.0919,-0.0915,9.7903,0.4382,0.2762,0.0525,29.605,-10.1218,38.9846,-0.2647,-0.2405,-1.0567,-0.5607,0.3457,1.0388,-0.4164,-1.2535,-0.589,1.2349,-0.8335,1.4845,-0.1597,0.5798,2.4989
2898,0.0443,0.0602,9.7719,0.4002,0.4222,0.7501,29.8912,-11.1559,40.0778,-0.7489,0.514,-0.477,-0.3461,0.4597,0.1916,-0.6815,-2.1645,-0.4141,2.5138,0.8834,-0.196,0.8937,-0.2094,-1.6389
2908,0.1351,0.0376,9.7308,-0.1511,-0.2044,-0.0664,30.069,-9.7594,39.139,0.7131,0.1309,0.2638,-1.9491,-2.4495,-1.2351,-1.6606,-0.1837,-0.3906,-0.9824,-0.4282,0.7532,0.3006,-0.85,-1.318
2933,-0.0533,-0.0191,9.836,-0.4812,-0.4723,-0.1294,30.8445,-8.7043,39.1055,-0.1321,0.3551,0.6787,1.2457,0.7156,0.8914,0.8808,1.0204,-0.4061,0.4697,-1.1564,0.6155,0.5891,-0.7928,-1.0003
2944,0.025,-0.1149,9.8014,0.796,0.6746,0.4445,32.2702,-9.8736,38.7519,0.2278,1.1256,-2.4997,-0.7634,-0.3339,-0.2806,0.5756,-1.3013,-0.1267,-0.8708,-0.8988,0.0716,0.8729,-0.3163,0.269
2954,0.0186,0.056,9.7684,0.6633,0.5404,0.2999,29.5448,-8.7203,37.5121,1.2222,-1.0901,-1.5154,0.8527,1.6454,-1.061,0.2454,0.2563,0.4173,0.2264,0.837,-1.2339,0.2128,0.9326,0.5698
2965,0.0598,-0.0842,9.811,-0.1936,0.6945,-0.2657,31.9655,-8.9085,39.1327,0.6084,-0.9326,2.0111,0.7139,0.0386,-0.0688,0.7035,0.0405,1.1113,-1.5396,-0.0782,0.1406,0.2095,-1.0779,-0.413
2982,0.0623,-0.1044,9.8348,0.4308,0.3267,-0.7932,29.2812,-10.1793,39.6443,-1.5385,-0.4127,0.1982,-0.2289,-0.1946,-0.0813,-0.099,0.6976,0.6226,-0.9449,0.7162,0.3416,1.2412,0.4426,-0.1735
2992,0.1117,0.0215,9.7428,-0.0701,0.0869,-0.7867,29.4457,-9.5981,40.0159,-0.4438,0.2914,-1.3302,-0.514,0.661,-0.1245,0.2194,0.5041,1.3098,-0.7844,0.4402,0.0301,1.5673,0.3077,-0.8261
3003,-0.1313,0.0482,9.6855,-1.405,-0.0813,-0.1513,30.5359,-11.4907,39.3169,1.0259,-0.4498,-0.1599,1.4347,-0.4314,0.5614,-0.7077,0.1211,1.1641,-0.4637,0.881,1.1395,-0.31,0.1152,1.4191
3013,-0.0176,-0.094,9.8447,-0.3349,0.3064,-0.6412,30.0135,-10.4401,42.3042,1.5088,0.4976,-1.6218,-0.7005,0.7268,0.41,0.1184,0.5381,-0.0373,-1.7704,0.5539,-0.6337,-1.1185,0.3527,-0.784
3024,-0.1309,0.1071,9.8016,0.0434,-0.7156,0.4923,29.8247,-8.3897,39.2221,-1.1423,1.1459,-0.4341,-0.9458,0.3415,0.9184,-2.5198,-0.6661,-1.3287,-0.4329,-0.5285,0.7358,1.9508,0.4308,-0.1433
3034,-0.1303,0.0704,9.7901,0.2974,-0.3926,-0.4205,28.8933,-10.8954,41.5312,0.7137,0.4455,-1.0322,-0.7434,0.4411,-0.5393,-0.4862,1.0559,0.0509,-1.2584,-0.729,0.9935,-0.9179,0.1147,0.8005
3054,0.1983,-0.0191,9.759,0.375,-0.6173,-0.8005,28.9055,-9.8119,37.6902,-0.3471,-0.0632,-1.1435,2.3393,-0.5752,0.8472,1.6127,-0.1719,1.8457,-0.7065,-0.908,-0.103,2.414,-0.1409,-0.4449
3066,-0.0779,0.0022,9.8006,-0.759,-0.1536,-0.0728,30.0375,-9.9781,40.4493,-0.8438,-0.9403,-1.2004,1.2618,0.8419,-0.6919,0.1458,0.4599,1.6297,-1.406,0.9942,-1.2694,-0.3182,-0.6828,0.2061
3078,0.0492,-0.0857,9.9051,0.2584,0.3854,-0.4374,30.0388,-8.692,40.3315,-0.9082,-0.5301,-0.9023,-0.011,2.8102,-0.369,-0.9992,0.9638,-0.3318,0.7193,0.7198,1.076,-0.0446,-0.5249,-0.9263
3090,-0.144,0.0002,9.7771,0.3086,-0.6303,0.3445,28.2816,-11.0047,42.2798,-0.9608,1.5769,0.1193,-0.3113,-1.2615,-1.0561,0.1023,-1.1179,-1.245,-1.1004,-0.6781,0.9455,-0.6518,-1.4554,-1.8228
3107,0.1373,-0.1297,9.7552,-0.4111,0.291,-0.3348,29.7196,-9.8788,39.0898,-1.3244,-0.044,0.4604,1.7235,0.2725,-0.6909,-1.0217,0.5012,0.9175,-0.9824,-0.5503,-0.6232,-0.0825,-0.7581,0.3854
3117,0.013,0.0444,9.7221,0.1762,-0.6004,0.3165,29.8594,-9.4463,39.4347,-1.2773,-0.3732,-0.7387,1.7007,0.0207,-0.5829,-1.3623,0.904,0.2579,-0.0953,1.7544,-0.6128,-1.6602,0.4905,-0.4816
3128,0.167,-0.0084,9.8056,0.3672,-0.5227,0.4066,29.6111,-10.4789,40.7377,-0.4839,-0.5859,-0.781,0.3343,-0.5444,1.2756,-0.0903,-0.2595,-0.5695,0.1285,2.1125,-0.3642,0.0088,-1.878,0.4709
3140,0.1662,0.0952,9.7934,0.9294,-0.132,0.5698,30.0609,-9.9721,41.1073,-0.4847,0.0523,-0.9975,-0.2931,0.4444,0.3908,0.5005,-0.6461,0.2527,0.8337,1.5586,-1.0085,0.0542,-0.2376,-0.1121
3152,-0.0768,-0.0358,9.7548,0.2177,0.1954,0.8073,31.235,-10.54,40.8201,1.0751,1.0158,-0.5047,-0.9256,0.6314,0.1106,-0.8918,1.4307,1.7075,-0.7656,-0.0005,0.4754,0.4955,1.8751,0.4246
3163,0.014,0.1163,9.726,-0.1149,0.0181,-0.0732,30.395,-9.4337,40.2939,-0.1057,-0.1016,0.0145,-0.0933,1.6808,-1.6196,0.5759,-0.5192,-0.1501,-0.3957,-1.2403,-0.3654,-1.1227,0.3244,0.7277
3180,0.027,-0.0049,9.8,-0.3529,-0.2918,-0.2776,30.7659,-10.6094,39.942,-0.7743,0.7887,-0.4622,-0.8893,-0.2783,-0.7156,0.0219,0.9045,-0.8721,0.5394,-1.8197,0.6082,-0.8973,-0.3945,-0.7457
3190,0.0423,0.0266,9.7989,0.0197,0.529,-0.4759,28.7122,-11.2059,39.8816,0.2431,-0.6049,0.1448,-1.2561,-0.7235,0.1121,-0.3737,-0.2184,-0.7273,-0.768,-1.6631,0.5628,-0.8674,1.3385,-1.1068
3201,-0.1847,-0.0799,9.7814,-0.0693,0.0348,-0.8906,32.0338,-8.5298,39.7714,-0.4365,-1.2875,0.8913,0.1549,-0.9919,-1.0568,0.0883,0.1913,0.6853,0.3955,-0.4855,2.5505,0.3707,1.0889,0.3176
3222,0.005,-0.0455,9.7663,-0.3374,-0.1896,1.032,31.06,-9.4628,40.3811,-0.0405,0.5369,0.4886,-0.9799,0.8059,-0.6928,0.9356,0.748,0.4368,-0.1138,1.0437,0.1405,0.7183,0.925,1.8012
3235,0.1013,0.1047,9.7981,0.1416,0.1769,-0.4803,30.2378,-10.4355,41.7757,1.0754,0.5506,-1.3641,0.2956,0.6976,-0.0154,0.6976,0.3756,-0.9217,0.291,-0.7059,-0.7635,0.0387,-0.2135,-0.4481
3246,0.0426,0.2047,9.8073,0.5833,-0.1867,-0.2187,27.7299,-10.288,39.2177,-0.9245,-0.2279,-1.5278,-1.331,-0.7192,0.0791,0.4005,-0.7858,0.474,-0.7347,-0.2216,0.5805,-0.6862,-0.7351,0.355
3257,-0.0117,0.0944,9.8272,-0.3046,-0.0957,0.8071,29.8429,-9.7693,41.38,1.5287,-0.8655,0.1993,0.0007,0.5172,1.1518,-0.2429,0.232,-0.3981,0.0363,0.4751,-0.5695,-0.9505,0.4444,0.5634
3267,-0.024,0.045,9.7338,0.0936,-0.4173,0.2692,28.7954,-7.7255,41.1157,-0.6205,-0.4764,0.0739,0.0065,0.1337,-1.1585,0.9408,-0.5202,0.0215,1.1174,0.936,-0.1175,0.571,-0.2212,-0.7639
3277,0.0735,-0.1225,9.8271,-0.778,0.6037,0.1626,29.0478,-10.0473,40.6087,0.6299,1.4091,-0.4638,-0.7597,2.5299,0.386,0.1371,0.4516,-0.5978,1.8078,0.7487,-1.1525,-1.0341,-0.9561,-1.8649
3293,0.0246,0.1348,9.7432,-0.6538,0.9876,0.3571,29.5089,-10.8333,38.0715,-0.5136,0.4918,-0.7976,1.7771,1.2037,0.581,0.1457,-0.4237,0.25,-0.9628,1.1415,-0.672,0.6672,-2.1888,0.5424
3304,-0.0003,0.1212,9.7708,0.4361,0.0777,0.7852,28.881,-9.4142,41.6326,0.9198,1.2887,0.7022,-1.3361,1.2266,0.3951,0.418,-1.6788,-0.6334,0.4102,0.4655,-0.3267,-0.6324,-0.3501,-0.2842
3321,0.2491,0.1274,9.811,-0.5389,0.5271,-0.0217,29.0754,-8.2669,40.5135,0.559,-0.7709,0.4554,1.0557,0.5776,-1.4095,0.4002,0.3111,-0.4132,-1.7334,0.1411,0.1871,1.2281,1.5483,0.1581
3331,0.0714,-0.0598,9.8532,0.3317,-0.5446,0.2587,30.9695,-10.5605,40.9711,1.0671,1.0795,0.5577,-0.7814,-1.825,0.9348,0.8757,-1.5607,2.4558,0.0277,0.0242,0.2301,-0.7724,1.7117,0.037
3346,0.0431,-0.0773,9.8278,-0.2096,0.3093,0.1492,28.798,-9.5203,39.6172,2.1579,-0.5978,-0.2104,0.5932,-1.2363,0.8049,-1.0396,0.4467,-0.821,-0.481,0.0846,-1.4166,0.9015,0.7025,-2.816
3357,0.0612,0.0661,9.7732,-0.3892,0.6137,-0.0736,30.56,-9.8381,39.4891,0.5734,0.5947,0.1421,-0.0587,0.3384,-0.3134,0.4799,0.5221,-0.4511,0.0514,-0.8941,0.6059,0.1685,0.5411,-0.4392
3369,0.0497,0.064,9.7208,0.2289,-0.5363,-0.2744,29.0569,-8.6988,40.1389,-0.192,-0.1072,0.2434,-0.4838,0.3606,-0.6562,-0.3426,3.5979,-1.9785,-0.0261,-1.1721,0.3223,-0.2019,-1.7149,-0.4196
3390,0.0062,-0.1675,9.8614,0.8652,0.3186,0.7801,29.8718,-8.7635,38.5683,2.1656,-0.3709,1.1088,0.6856,1.2032,-0.1066,0.1864,-0.5459,1.8022,0.3662,0.1928,-0.9127,1.3392,-0.5975,-0.53
3404,0.0194,0.1797,9.8107,0.344,0.7503,-0.8731,29.625,-9.3388,39.4088,-2.3475,-0.2781,0.7988,0.2434,1.766,0.0157,-0.0744,-0.4265,-0.0242,-1.2212,-2.0062,-1.1456,-1.0669,0.2172,-0.5454
3414,-0.02,0.0265,9.8073,0.6032,0.1717,-0.1517,29.8571,-8.99,39.926,-1.4022,0.2311,0.7756,1.1136,-0.4943,0.259,0.0,0.3838,1.0796,0.6766,0.0927,1.4636,-0.0498,0.0788,0.4642
3425,0.0122,0.0925,9.9156,-0.2575,0.0256,-0.6925,30.9925,-8.5172,38.0748,1.0317,1.4626,-0.4655,-0.0881,0.3933,0.1313,0.0487,0.2321,0.3429,-1.0525,-0.7441,-0.2525,0.4251,-0.4888,-1.456
3440,0.0842,0.1461,9.7898,-0.2648,-0.1164,-0.6834,30.7266,-11.3066,40.8109,0.033,0.9223,-0.8768,0.3887,1.9958,-1.569,0.96,-1.0544,0.2802,0.4954,-0.5787,-0.3912,-0.1238,1.1928,-1.3274
3450,-0.0683,0.1178,9.8157,-0.3632,0.5819,0.4562,30.3735,-9.1941,39.0568,-0.3248,1.0325,-0.003,-0.7146,-1.1162,0.3844,2.0968,0.6197,0.1003,-0.0423,-0.1591,0.8611,1.7783,-0.4849,-1.7028
3461,-0.0612,0.0607,9.7768,0.1689,0.1399,-0.0185,29.982,-10.7565,39.7773,-1.5432,1.1943,-0.5514,1.3371,-0.481,0.4512,0.0042,0.7791,-1.084,1.4866,-0.3955,2.0358,-0.6945,-0.5061,0.2973
3473,-0.1636,0.0464,9.8027,0.3269,0.5518,-0.0282,30.5345,-8.5208,41.5572,0.3964,-0.3027,-2.9256,0.4282,-2.2963,-1.1251,0.3115,-0.0848,0.649,1.2068,-2.1005,0.8397,-0.381,-0.2532,1.2281
3487,-0.0347,-0.068,9.8237,-0.9957,0.0374,0.0642,29.017,-10.6096,40.731,-0.4557,-1.7464,0.076,0.4769,0.5499,1.2617,0.0711,-0.1243,1.7511,0.4258,0.7557,-0.9534,-0.1699,1.1077,-1.7064
3497,-0.0872,0.0619,9.741,-0.2657,-0.7347,0.2242,29.2491,-10.6444,38.646,-0.2466,-0.3208,-0.3263,0.8193,0.9252,0.5894,-0.4473,0.0482,-0.3833,1.072,-0.337,1.5845,-0.2226,2.1215,1.1325
3515,-0.1126,0.0182,9.9074,-0.3144,0.158,0.3083,28.7115,-10.8739,40.6258,0.3216,0.8317,-0.4493,0.3637,-0.8843,0.3052,-0.9424,2.4071,-0.2056,-0.3202,-0.5242,1.189,-0.5276,-0.1471,1.0244
3526,0.1555,-0.1552,9.802,-0.4895,0.3332,-0.6867,29.6907,-9.4035,40.7586,0.6795,1.9242,0.1447,-1.2943,-0.2779,-1.5529,2.6632,-0.0877,1.1457,0.2012,1.2557,1.0699,-0.0439,2.6678,-0.0135
3536,-0.047,0.0461,9.7028,0.8744,-0.2218,-0.3401,32.0307,-8.9355,39.4731,-2.1201,-0.8809,-1.2166,1.4421,-0.5192,0.5926,1.0257,0.7135,1.5149,-0.0791,0.8821,-0.9144,-0.6147,-0.804,-0.0436
3556,0.1776,0.0371,9.8355,-0.074,0.4477,0.7589,29.0837,-10.3611,41.3094,-0.7208,-1.419,0.0121,-0.2068,0.3114,-0.8002,0.281,-0.6424,-1.1007,-1.2172,-0.8028,0.6457,-0.4604,1.4022,-0.2951
3568,-0.0844,-0.026,9.8348,-0.0052,-0.8521,0.1326,29.1078,-8.4541,40.5372,0.3126,-1.7275,-1.3714,0.3887,-0.1153,1.1866,0.609,-1.2078,-0.0989,-0.9183,0.1446,1.1517,1.4011,-1.335,-1.4693
3580,-0.0823,-0.0912,9.8259,0.1384,-0.1304,-0.9586,30.5476,-8.837,42.9364,0.768,1.9393,-0.195,1.6245,0.7858,0.0151,-1.4749,0.8834,1.0394,-1.1389,-0.5707,0.6537,-1.2061,0.1708,-0.2002
3590,-0.0333,-0.008,9.7604,1.053,0.121,0.2518,30.3095,-10.7346,38.3068,0.8057,-0.5093,1.2825,-0.3408,-0.0826,1.4649,0.9212,-0.8139,-0.8753,-1.3335,-0.5935,0.8696,0.856,-0.886,0.1968
3606,-0.023,0.0432,9.7594,0.2945,-0.5517,0.9052,29.1852,-11.7995,39.958,1.1778,-0.1266,0.2262,-1.7397,0.0066,0.7388,-1.2967,-0.3554,0.8859,-0.7493,0.9008,-0.4973,1.7863,0.0948,-0.0931
3617,0.0566,-0.2171,9.8735,-0.1441,-0.2262,0.8168,31.423,-10.3974,39.5864,-0.3651,0.1719,-1.0654,0.4548,-0.4782,0.2103,-0.3195,-1.7465,-1.3684,0.3333,-0.6351,0.7594,-1.8815,0.3457,-0.6429
3628,-0.065,-0.0145,9.8567,0.0253,-0.0911,-0.1787,30.5199,-11.7501,39.9168,-0.2631,0.7913,0.1816,0.0518,-0.3829,-0.229,-1.3077,-1.126,1.4803,-1.0739,-0.4573,-0.7432,-0.8653,-0.4312,1.9164
3645,0.1693,0.0516,9.7638,0.4681,1.3115,0.2912,30.83,-9.3879,39.9986,-1.6023,1.9333,-0.3802,1.2751,0.1854,0.0693,0.065,1.594,0.2269,0.6517,-0.2555,-0.0868,0.0186,0.0459,1.0498
3656,0.0713,-0.1397,9.7886,-0.5184,-0.0061,-0.7811,30.5071,-10.155,40.6087,-0.4868,0.8726,-0.4202,2.7023,-0.1102,-0.6833,0.16,0.3752,-0.0401,2.1125,-0.4498,0.1702,-0.1144,1.069,-3.4978
3668,0.0209,-0.086,9.7815,0.1947,0.2768,-0.0879,30.4744,-9.1435,37.4163,-0.112,-0.7308,0.7121,-0.6118,-0.2774,0.6836,-0.2755,0.4027,-0.9084,-0.4795,-0.0192,1.2748,2.0623,-0.9998,0.9486
3678,0.0108,-0.0807,9.83,-0.16,-0.6984,0.1145,28.8523,-12.2696,39.7983,-0.0275,0.4774,0.0261,1.9481,0.1851,1.116,0.5212,-0.1957,-0.3934,0.3217,0.1673,1.2302,1.4379,-1.7128,0.3357
3689,0.0725,0.0518,9.7836,0.0875,-1.8277,-0.1013,28.0915,-10.2925,41.3517,0.5495,-0.3415,2.3074,0.3793,-0.1561,-0.7419,-0.8241,-0.934,0.8571,0.2658,-0.0116,-0.2921,1.8622,-0.7069,0.6299
3700,-0.097,0.0552,9.9119,-0.4478,0.3547,-0.7574,31.4662,-8.9705,39.5998,0.6623,-0.0717,0.3504,0.747,0.1003,2.1134,-0.6045,2.9224,-1.2271,2.0141,-0.2911,0.7159,-0.6832,-0.7276,-0.2794
3711,0.0926,-0.0738,9.7428,0.0671,1.0281,-0.452,29.9242,-9.4583,40.1037,-0.9945,0.5099,-3.773,0.6448,-0.0856,1.5381,-1.4489,-0.0276,0.2055,0.0161,0.9869,-0.8822,0.7478,0.1409,-0.2819
3726,-0.0827,-0.0806,9.8422,1.2402,-0.1739,0.5019,31.9006,-10.4277,39.1068,-0.7849,0.0073,0.1834,-0.1764,1.9704,0.7418,-1.845,1.4498,-0.3345,0.8633,-0.8153,-0.8919,1.9667,-0.9623,0.5234
3739,-0.0361,0.0372,9.747,-0.5785,0.3148,0.2337,32.2631,-10.4616,41.9204,0.7488,1.5375,-0.5607,1.0884,0.1536,1.1749,0.28,-1.6044,-0.1178,1.1093,0.0319,0.8509,-0.0762,0.9432,-0.223
3749,0.0835,-0.1571,9.8615,-0.5431,0.6076,-0.155,29.7983,-10.1571,41.0276,-0.385,2.0001,-0.2619,0.5782,-0.6061,0.2591,-0.9275,-1.4789,-1.0734,-0.0738,0.6094,0.2416,1.7642,-1.0251,-1.5628
3768,-0.0686,-0.0769,9.7651,0.2264,0.4962,-0.1702,29.4595,-9.7259,40.3547,0.6382,-0.2778,0.5472,-0.2703,-0.2401,2.5073,-0.5354,0.4366,-0.3554,0.2244,-0.5298,0.4431,-0.2845,-0.615,1.1483
3783,0.0654,-0.1476,9.7134,0.517,-0.1876,0.4087,29.8579,-9.316,39.8312,0.117,0.6847,0.8062,-2.5241,-0.4503,-0.606,1.0852,1.1257,-1.1774,-0.7903,-0.0266,0.8244,-0.2818,-0.6933,-0.0564
3794,-0.1011,0.0015,9.8046,0.0684,-0.0705,-0.3409,31.4169,-10.3696,39.1224,-0.6582,0.2557,0.3631,0.4699,-0.0593,-0.505,0.088,0.5463,0.5436,0.5825,-0.6784,-1.293,-0.3042,1.2141,-0.1816
3804,-0.0187,-0.1152,9.8112,-0.6773,-0.6488,0.2459,29.6075,-9.8755,40.2961,-0.5081,1.136,-0.171,-0.8192,-1.7237,-0.2501,1.8586,-0.8885,1.7458,0.8759,-0.9693,-0.4084,0.6412,0.9115,0.1577
3814,-0.0994,-0.0291,9.7949,0.6399,0.9951,0.2287,29.8031,-11.9348,40.0012,-2.1551,-0.7634,-1.2192,-0.8753,-0.8108,1.7408,-0.481,0.3742,1.018,-1.4191,-0.4128,-0.7801,-0.8191,-0.3107,0.5316
3827,0.1461,0.0933,9.7657,0.3633,-0.0784,0.0874,29.6962,-8.9804,39.4838,0.7707,1.8151,0.1262,0.6193,-0.7155,-0.2294,-1.9225,0.5714,0.2535,0.5756,1.3513,-1.6894,0.0697,1.1449,-0.1765
3838,0.0659,-0.1751,9.7844,-0.9951,0.1494,-0.0788,29.8988,-8.9836,38.4187,-1.2135,-1.4975,0.4245,0.1021,1.2212,0.898,-0.6814,-1.1798,-0.2459,-1.8756,-0.3298,0.0062,0.0484,-1.9968,0.7581
3849,0.2149,-0.1972,9.7504,0.6194,0.3387,-0.2146,30.2265,-9.788,40.5397,-0.0527,0.9878,1.2203,-0.5336,0.0967,2.2358,-0.4244,-0.9883,-0.5258,-2.2244,-1.1547,-0.7782,-1.198,0.4142,0.4598
3863,0.0526,-0.0047,9.8555,0.2892,0.3455,0.0564,29.7914,-8.8426,40.7818,1.7328,-1.1788,0.166,1.2519,-1.6721,-0.9827,1.0207,-0.0707,0.7444,0.3922,-0.6266,0.8628,-0.2542,0.0885,1.6127
3876,-0.0301,0.0192,9.8561,-0.1617,-0.7746,-0.686,28.7496,-12.3775,39.4846,0.1459,-0.4771,-0.514,-0.582,0.6697,1.2828,0.0419,1.4784,1.0821,-0.8226,0.9934,0.7252,0.1778,1.0314,-1.6666
3886,-0.1865,-0.101,9.8254,-0.7613,-0.5111,-0.6282,29.6948,-10.3459,38.273,-1.6368,1.3174,0.4238,-1.1779,0.4935,1.1467,0.0876,0.8723,-1.2911,-0.9827,1.0801,-0.2837,0.4016,-1.3676,0.2283
3897,-0.0216,0.0157,9.7504,-0.4293,-0.0729,-0.0996,30.9607,-9.03,39.6927,0.8059,-0.5842,0.2082,-1.1922,-0.2387,-0.0785,1.2298,0.065,0.571,0.4401,-1.5444,1.2142,-1.4018,0.8558,0.7032
3921,0.0977,-0.1055,9.8533,-0.0662,-0.629,0.6586,31.1441,-11.2859,39.7412,0.5101,0.0874,0.2923,-1.4942,0.0964,1.1209,0.945,1.3834,0.5006,0.9007,-0.2381,-0.5348,1.1994,-0.6408,-0.2878
3933,0.0434,0.1212,9.8205,-0.4567,-0.6534,0.3896,28.2271,-8.2445,38.9197,-0.1226,0.5246,1.8533,0.2061,0.3607,-0.6745,-2.3242,-1.1539,0.5909,0.9512,0.9233,-0.2862,-1.1472,-1.4518,-0.8354
3944,0.0924,-0.0037,9.8205,-0.6491,0.2515,0.2184,29.2438,-9.1675,40.8361,-0.7833,-0.6782,1.1822,-0.0871,0.0615,-0.7187,-0.1819,0.1764,-2.579,0.4295,0.1001,1.3813,0.3255,-0.658,-0.5653
3955,-0.1276,0.0856,9.7519,0.1064,-0.2845,-0.1139,30.6148,-10.09,40.0272,-0.7622,-0.2528,-0.7339,-1.4183,-0.3817,0.2347,1.7657,1.6704,0.4731,0.4569,-0.3543,-2.0465,0.9633,0.0114,0.0069
3966,0.0287,-0.039,9.8155,0.1416,-0.2292,-0.2572,31.5083,-9.2567,39.7904,-0.6663,1.6369,-0.6161,0.5813,0.6346,-0.7945,0.9465,-0.4382,0.3356,0.2225,-0.0125,0.428,0.9812,0.6874,1.2301
3977,0.1487,-0.0336,9.782,0.6458,0.482,-0.0645,29.806,-12.1859,40.4888,-1.5691,1.1582,-0.593,1.0487,-0.019,0.7964,0.5759,-0.9076,1.108,0.04,2.0945,-0.5126,-0.3473,-0.0337,-0.9871
3988,0.1246,0.1813,9.8165,-0.0339,0.0038,0.7232,29.3326,-8.1884,38.6263,0.8573,-1.6645,0.4694,0.4268,0.2885,-1.1864,-0.5321,-0.8342,-1.0078,0.1164,-1.4687,-0.7718,-0.5708,0.1613,-0.8776
3999,-0.0252,0.0022,9.862,0.3443,0.2692,-0.5591,30.6054,-10.793,41.6951,1.6673,-0.101,-0.2333,0.3281,-0.1775,-0.2031,-0.3515,-1.8377,-0.8599,-0.4572,0.0225,-1.5054,0.9363,1.8971,0.7866
4010,-0.1065,0.0658,9.7325,-0.2367,-0.1055,0.2206,30.2921,-11.1304,40.4495,1.2335,0.4347,2.4172,0.5538,-0.6307,-0.5289,0.084,-0.4963,1.1356,-0.1914,0.1948,0.0535,0.3108,0.389,0.1718
4021,-0.1188,-0.0776,9.8015,0.2476,0.0484,0.0386,29.8453,-10.2544,38.7591,-1.0805,-1.2207,1.5017,-0.3965,0.7551,0.0629,-0.457,-0.9896,1.8789,1.0245,-0.667,1.1207,0.3109,-0.3408,0.273
4032,0.1841,0.08,9.7772,0.5548,0.1822,0.6941,30.6744,-9.4447,39.3425,-1.2419,1.1685,-0.5582,0.0009,0.577,0.0173,0.0028,0.3512,-1.4344,0.9358,-0.5347,-0.7944,0.5837,0.7761,-1.4573
4042,-0.0687,0.0006,9.8054,0.8397,-0.1079,-0.2792,28.8488,-9.7021,38.7193,-0.3607,-0.1052,-0.5142,0.128,-1.0161,-0.7504,0.1994,-1.1233,-0.8665,1.5809,-1.159,2.2797,-0.8099,-0.3982,0.2753
4055,0.0009,0.0116,9.7213,0.319,0.2048,0.3327,30.295,-10.4115,36.7673,-0.4203,-0.0476,1.4663,1.7124,0.6297,0.7677,1.8416,-1.8983,-1.1201,0.4374,1.9763,0.5421,1.4017,1.992,-1.4916
4066,-0.0366,0.1767,9.9063,-0.1867,-0.2215,-0.7395,30.5531,-11.4107,39.6384,-0.0854,0.9675,2.7642,-2.1473,0.445,-0.2444,0.0176,-1.4755,-0.7345,-1.132,1.0005,-0.3639,-0.1952,-0.2555,-0.5723
4077,-0.0718,0.0566,9.7725,0.1927,-0.0935,-0.2042,31.9849,-9.6207,38.1931,0.4801,0.2582,1.0442,-0.3083,0.1707,0.4527,-0.4093,1.3238,1.275,1.5069,-0.398,1.1889,1.0822,-1.1877,-1.1919
4094,-0.0198,0.1338,9.8204,0.1531,-0.0101,0.3096,31.4788,-10.5035,39.6991,2.2328,0.6993,-0.5663,0.1802,-0.9687,-0.3225,0.4772,-0.6029,-0.2171,-0.7306,1.3295,0.4666,-1.9445,-1.1962,-0.1565
4105,0.0135,0.0313,9.8364,0.7589,-0.7495,0.817,29.7034,-9.5421,39.524,-0.1997,-0.1389,-0.0709,-0.3961,-0.7853,-0.1889,-1.0186,-0.0075,0.7255,-1.9583,0.5627,-0.3191,0.3814,-0.5765,-0.523
4120,0.2244,-0.0077,9.7293,0.6138,-0.5439,0.3399,30.0417,-11.1309,39.1976,-1.1741,1.1073,-0.4813,1.4402,-0.2902,0.764,0.5617,0.013,-0.4448,-0.456,0.1448,0.8575,0.363,0.5149,2.1956
4132,-0.0129,0.2463,9.8049,-0.1098,0.4271,-0.0233,30.4056,-11.2709,40.7326,1.2915,0.4447,0.6227,-0.4914,1.7796,-2.3967,-1.5992,0.2947,-0.5889,1.2736,-0.8704,-1.2943,-0.1732,-1.481,0.1567
4148,-0.2614,-0.1203,9.8248,-0.7119,-0.2365,-0.1283,29.758,-10.0666,39.0036,-1.3558,1.2162,-1.5203,-1.5012,0.3792,0.3277,0.1551,0.7744,0.4239,-0.7093,2.0422,-0.6161,0.4051,0.3924,0.5143
4159,0.128,0.0762,9.7664,-0.8033,0.7762,-0.253,30.7284,-11.081,40.2393,1.3509,-1.6513,0.7871,1.3187,-0.0655,-0.196,1.7218,0.6958,0.7052,-1.2571,0.0012,1.3698,-0.0656,0.2107,0.5828
4170,-0.0352,0.0496,9.7811,-0.0525,-0.5687,-0.0832,27.8707,-11.971,41.1286,0.8184,-0.0938,1.5758,-0.6645,-2.3858,-0.7576,-2.4401,0.7275,-0.6354,-0.863,-1.8535,-1.1944,0.7152,0.2494,-0.4775
4183,0.0407,-0.1819,9.7956,-0.3376,0.246,1.2844,30.1135,-10.1227,39.2044,-0.1188,0.2114,-0.7968,0.23,2.1817,-0.9788,0.3526,0.9247,-0.5723,0.3046,-1.3193,-1.551,0.9289,3.5665,-0.8126
4195,0.001,-0.0563,9.8194,0.1969,-0.0754,-0.1758,31.103,-11.6161,40.592,0.0411,0.1178,-1.2291,0.843,0.4736,0.6106,0.4234,1.1696,-0.0601,-0.5741,0.1308,0.1666,-0.2803,0.3461,-0.0201
4210,-0.0105,-0.1479,9.7955,-0.6605,-1.412,-0.7835,28.3424,-9.6177,40.7037,-0.4667,0.1893,-0.9849,-0.1974,0.1933,0.8898,-0.3411,-0.2471,-0.2241,0.5619,0.8409,-0.797,0.7097,2.5892,0.4126
4221,-0.1585,-0.0014,9.7636,-0.0572,-0.6438,-0.3141,30.7081,-11.0636,40.0407,0.0946,1.3945,0.6668,1.6697,-0.2948,1.7993,1.3923,-1.4574,-1.1995,-0.6645,1.265,2.2709,0.0765,-1.6802,0.8473
4233,0.2276,-0.0397,9.8006,0.2158,-0.3801,-1.2049,31.6255,-8.6559,40.7873,1.0045,-0.8524,-0.0579,0.0721,-0.4725,0.2703,0.315,0.4803,1.8105,0.6402,-0.1557,-0.6007,1.4307,-1.2477,-1.1789
4245,-0.0583,-0.122,9.7611,0.831,0.3426,-0.053,30.7173,-10.1106,39.6514,-0.0004,1.4252,-1.5644,-1.9584,0.3278,2.0735,0.7508,-1.5647,-0.5587,0.5591,0.41,-1.0355,0.9659,-0.0933,-1.9267
4255,-0.045,0.0323,9.8522,0.5553,-0.2874,0.3815,29.7304,-9.9512,38.8936,-1.0786,-1.0751,-1.427,-2.1232,-0.4866,-2.8248,-0.5041,0.9402,0.874,-0.487,0.0324,-0.1372,-0.4913,0.7925,-0.0117
4275,0.1159,0.0568,9.8255,-0.4489,0.1421,-0.7725,31.9889,-11.7828,40.279,-0.1941,0.5476,-0.1082,-0.7368,1.1193,1.785,0.9219,0.3065,0.1146,1.2739,0.0452,0.7926,0.218,-0.4076,-1.9564
4286,0.059,-0.2266,9.6718,0.314,-0.1596,-0.7178,31.2523,-10.1124,40.7936,-0.1408,0.6505,-0.6292,-0.0168,-0.8461,-0.4401,-0.2393,0.487,1.0857,-0.077,-0.0331,-0.9008,-0.7787,0.5543,-0.0314
4305,-0.1223,-0.0883,9.8416,-0.0642,0.1219,0.1521,30.6247,-10.8072,39.9726,-0.2894,-0.2809,0.3682,2.5383,2.1166,0.2557,-0.8203,2.0962,0.2108,0.1108,1.7201,-0.4227,-0.9553,-0.1795,-0.4638
4323,0.0187,-0.0294,9.7501,0.6015,-0.3132,-0.7668,30.1873,-9.6934,39.3115,-0.5935,-2.2708,0.4425,-0.2667,0.3412,-0.0053,1.1433,0.9813,0.5583,-0.5328,-1.074,-0.3203,0.3388,-0.9861,-0.0878
4334,0.2636,0.0074,9.7567,-0.3332,-0.6136,-1.2475,29.0162,-9.7554,38.9903,-0.0718,-1.3068,0.6031,-0.3124,-0.5575,-1.3591,-0.2002,1.2679,-0.4262,-0.9177,-0.57,-0.1113,-1.4193,1.1548,0.059
4345,-0.2439,0.1324,9.8107,-0.7868,-0.3951,0.274,30.3604,-8.2093,39.4922,-0.0467,-0.2145,-1.3363,0.1605,-0.7511,-0.3511,-2.0544,0.1016,0.6422,0.3725,-0.647,2.9692,0.3803,0.7848,0.3706
4355,-0.0838,0.0562,9.8061,0.1106,0.6554,0.0815,31.1035,-10.175,40.1366,0.7947,1.8509,1.3203,0.6748,-0.0986,-0.325,0.0214,0.2426,1.4476,-0.5324,0.0435,-0.94,-0.479,-0.7485,0.3971
4371,0.1712,-0.0649,9.8379,0.7019,-0.0323,-0.0025,30.2006,-8.8401,40.3291,2.6392,0.4992,-0.1489,1.5384,-0.161,-0.2611,1.8395,-0.4998,0.9802,-0.8147,-0.5231,1.7944,-1.8723,0.2297,-0.8056
4382,-0.1355,-0.1905,9.8416,0.5551,-0.2174,0.1001,30.1325,-10.8638,38.4077,-0.4273,0.4177,-0.7965,1.2675,0.8432,0.9378,-0.7877,-0.1291,-0.5688,-1.0751,1.5967,1.6311,-0.4097,0.2058,1.1766
4393,0.0062,0.0511,9.7643,-0.7832,0.6561,-1.1713,29.9018,-9.881,40.6139,-1.9966,-0.429,-0.127,1.3035,-0.0822,-0.0765,-1.2849,0.0638,-0.7128,-0.6033,-1.1741,0.5721,0.8744,0.5077,0.0383
4405,-0.1687,-0.0352,9.7663,0.478,-0.0226,-0.0127,30.6494,-9.8466,38.0476,-0.5283,-0.6513,-0.5811,-0.0236,0.2524,-0.4233,-1.3159,-0.839,-0.2948,-0.6184,-0.1254,-0.1066,1.049,0.8205,-0.2638
4415,0.0433,0.0402,9.8267,-0.6316,0.7443,-0.2503,30.3426,-10.7179,38.787,0.3599,-0.6434,-1.2299,-1.5203,-0.5508,-2.0628,0.9003,0.9941,-0.6653,1.4023,0.1616,1.0367,0.1011,0.3496,-1.3387
4425,0.0432,-0.0462,9.7781,-0.247,-0.1536,-0.0807,30.3008,-11.2007,39.8341,-0.568,0.5955,-1.0446,1.2118,0.2434,2.0182,0.7395,-0.0538,-0.7624,-0.4993,-0.8179,0.2671,0.8834,0.324,2.1503
4446,-0.1079,-0.0969,9.785,1.0243,-0.0649,0.0735,29.6318,-11.3226,41.2614,-0.9153,0.9975,-0.7197,1.2467,0.5071,1.2441,0.6046,0.0008,-0.0442,0.1214,-0.072,-0.7026,0.1549,0.5704,-0.8416
4458,-0.0331,0.0389,9.8804,-0.1229,0.022,-0.3982,30.966,-9.4542,40.4129,-1.0334,-1.3077,-1.1099,-1.0789,1.7015,-1.3097,-1.5945,-0.0306,0.2307,-0.9413,0.0386,0.1395,0.2326,-0.2652,-0.3314
4468,0.0059,-0.0044,9.7658,-0.2123,-0.1796,0.3567,28.6877,-12.0236,39.4703,0.008,0.4453,1.1537,0.7277,0.2817,1.5479,0.1436,-0.9541,0.531,-2.3894,0.8528,1.9771,-0.6913,0.6064,0.2094
4480,-0.149,0.0947,9.7953,-0.1772,-0.0085,-0.4,27.8333,-11.4562,39.4759,1.566,0.298,0.2351,0.29,0.0585,0.5025,-1.0722,1.2428,-0.5801,-0.8179,-2.399,-1.5983,-0.6376,1.1279,-1.3272
4490,-0.0693,-0.0195,9.776,0.0686,0.004,-0.4676,29.0136,-11.2369,38.7684,-2.9631,-0.4316,0.4115,0.9702,1.3713,0.959,0.5704,0.4939,-1.3644,1.6203,1.7246,-0.1765,0.0165,0.0608,0.8386
4501,0.1033,-0.0993,9.7613,0.0268,-0.7875,0.273,29.7319,-10.7574,39.4124,-0.7487,1.0662,0.1075,0.5411,-2.2128,-0.5919,0.4805,1.8268,1.5383,0.0072,-0.0708,0.0491,-0.1951,-1.3019,-2.2471
4520,-0.0484,-0.2101,9.8344,0.2204,0.354,-0.4895,29.6323,-10.0435,39.6042,-0.8489,-0.4481,0.1952,2.1695,-0.0145,-0.8734,-0.7708,0.0666,-1.7837,0.2256,-0.6306,0.5255,0.771,-0.1316,-0.1565
4531,0.0176,0.0468,9.8116,-0.0628,0.3548,0.0481,30.6905,-11.5023,40.0765,-0.7973,-0.5275,-0.4816,-2.2884,-0.0063,0.8879,0.301,-1.1792,0.3545,-0.4111,-0.2049,-0.6634,-2.6075,-1.2183,-0.9654
4544,0.0024,-0.0183,9.7712,-0.8444,-0.2466,-0.7319,31.5137,-9.2861,40.0604,-1.5118,-0.7192,-0.4212,0.4569,-0.3883,1.2311,0.1463,-1.3005,0.491,0.8192,0.2448,1.2294,-1.0353,1.3518,0.3273
4555,0.0263,0.0277,9.8127,0.5096,0.0149,0.9441,29.6825,-10.8464,38.4255,-3.0442,2.1671,-0.5576,-0.1944,-1.4647,0.2852,-0.2967,-1.7773,-0.2651,-0.0913,-0.1875,0.4788,-0.0834,-0.0805,1.32
4566,0.0363,-0.1068,9.7823,-0.3495,0.6276,0.8331,30.948,-9.2967,38.0476,-0.2397,-0.7225,0.0396,-0.5567,-0.3986,-0.2799,-0.1721,-2.1992,-0.1587,0.1638,-0.4489,0.1177,0.039,-0.7925,1.6647
4576,0.146,-0.2103,9.7957,1.3602,0.556,0.1622,31.8017,-10.207,40.3487,0.4196,-1.1355,0.2698,-1.0728,1.7641,-2.1504,-0.3465,0.0707,-0.498,0.1197,-0.5462,0.0093,0.1218,-0.0459,0.1
4587,0.1086,-0.1046,9.7905,-0.6975,-0.7188,0.8858,30.7494,-8.7686,40.5628,1.7098,0.5281,0.7046,0.9521,-0.2388,-1.7313,1.0641,1.1934,-1.1811,-0.1031,-0.1552,-0.6196,-0.2829,-0.098,2.2663
4602,-0.1198,-0.1326,9.8631,-0.3883,-0.1751,-0.2099,31.4233,-9.363,39.3246,-0.7981,-0.4911,-0.1651,1.3008,0.1743,-0.5116,1.9419,1.3389,0.3959,2.3639,0.088,1.48,-0.6698,1.1137,0.44
4614,-0.14,-0.0874,9.8785,-0.2182,0.3893,0.4267,31.8745,-10.481,39.9134,-1.1035,-0.1858,1.5854,-1.2441,1.4288,-2.3918,0.0296,-0.3089,0.5237,-1.1876,-0.7911,0.3554,0.6453,3.0543,-0.5252
4628,0.0831,0.1455,9.7833,-0.1042,0.1871,-0.9903,29.6049,-9.0143,39.6067,-0.1017,-0.6333,1.2725,2.3045,0.2436,-0.2531,0.2105,0.5339,1.7647,-0.181,-0.1398,-0.3179,1.1121,1.4042,1.0614
4639,0.0908,-0.0458,9.7965,0.769,0.579,-0.0227,30.6921,-10.6106,39.8714,0.4301,-0.57,-0.8458,0.14,0.2002,1.151,-1.4192,0.0847,1.4262,-0.3608,0.5165,-2.1951,-1.466,-2.0999,0.0589
4651,0.0867,-0.0669,9.8855,0.5455,1.0823,0.6265,29.9052,-10.2078,39.2879,0.2087,1.7211,-0.1959,1.366,0.0093,0.3887,-1.3716,-0.495,-0.1619,0.8534,-1.5293,0.6798,0.2171,0.1553,-0.5038
4662,0.0216,0.1531,9.8005,0.132,-0.09,-0.1932,29.3573,-11.7743,39.8606,-0.3969,1.304,0.2405,1.4793,-0.3142,1.6244,-0.5898,-0.8741,0.517,-0.8303,1.3838,-0.4885,1.0632,0.4143,-2.0707
4673,-0.0307,-0.0316,9.8183,0.5855,0.4069,-0.8848,30.2776,-11.0638,41.2354,-1.2558,0.5202,-0.3393,-0.0373,0.0283,-0.7042,0.3068,0.652,-1.0425,-0.4065,0.6632,-0.5452,-2.2133,-0.9055,-0.3484
4691,-0.0274,-0.0227,9.729,0.6213,-0.2084,0.0388,31.3821,-11.3199,40.0411,-0.3658,-1.9848,-0.2634,-1.0351,0.8334,-0.8716,-0.3144,0.9829,-0.153,1.1532,-0.8419,-1.2367,0.0302,0.7285,-0.034
4703,0.005,0.1042,9.8215,0.4811,0.2436,0.2088,28.9806,-8.8533,39.3737,0.5251,-0.8004,-0.4374,0.2767,-2.2898,-0.5692,1.2766,-0.4443,0.5058,1.706,-0.8208,0.543,0.0305,0.6771,-0.8695
4715,0.2183,0.0255,9.7549,-0.7699,0.8044,-0.8037,29.0833,-9.1131,38.6914,-0.3834,1.8895,-1.0723,-1.6526,-0.3677,-1.8976,-0.9047,-1.4029,1.6559,0.1602,1.0184,-0.6075,-0.6082,-1.2944,1.6733
4727,0.0434,-0.021,9.778,0.2764,-0.072,-0.2733,29.9214,-10.4832,39.3597,-0.1853,-0.775,-0.1687,-0.2695,0.8907,0.7843,-0.3239,1.0142,-0.3952,0.2868,-2.0142,-0.0668,-0.7871,-0.7624,0.079
4741,-0.1285,0.2095,9.6881,-0.2413,0.7025,0.5563,29.0678,-11.8785,40.5759,-0.3705,0.7313,-0.4014,1.9138,-0.3051,-1.5644,0.7148,-0.37,1.2036,-0.1841,0.8527,-1.4721,0.4571,0.6957,1.0237
4752,-0.0546,-0.1291,9.7985,0.2678,0.6099,-1.3348,29.3647,-9.5408,40.3879,1.4495,-0.2851,1.3974,-1.3825,0.4925,-0.0894,-0.1084,-1.7514,1.3835,-0.3199,0.0908,1.1321,0.3439,1.9636,0.4837
4762,-0.003,-0.0828,9.8163,0.1132,0.0682,0.3419,29.7163,-10.373,41.3537,1.2711,0.5951,-0.077,-0.0704,0.2853,1.137,1.6282,-1.0792,0.0831,0.5434,-0.8065,0.9385,-0.8461,-1.5641,0.2711
4782,-0.0137,0.0199,9.817,0.1598,-0.956,-0.0143,30.9174,-9.4866,37.2531,0.4953,-1.4823,0.9174,-0.9768,-0.4987,0.3639,-0.246,-1.1863,0.503,0.6372,-0.733,-0.0983,0.4807,-1.101,-0.1072
4793,-0.012,0.0639,9.8301,0.1307,0.2678,-0.1759,29.4175,-10.3526,39.3904,-0.6181,0.194,-0.0815,-0.8911,0.0178,-0.1786,-3.0911,1.181,0.9175,-0.318,0.3927,-1.4736,-0.4026,-1.3636,-0.7692
4804,0.0822,-0.0383,9.9186,-0.0158,0.2819,0.1153,29.3834,-8.322,40.6667,-0.2745,0.9047,-0.122,-0.2612,-1.0468,0.5234,0.4773,1.8477,0.6982,1.1993,0.0805,0.5321,1.188,0.767,0.8878
4815,0.0686,-0.0334,9.7481,0.6462,0.4715,-0.1205,29.2042,-9.0303,39.1315,0.4053,1.0666,-0.1395,-1.3299,1.5184,-0.4553,0.554,-0.5003,-1.6697,-0.0926,-1.0683,-0.1451,-0.2135,-0.0492,-0.5636
4831,0.1543,0.1925,9.843,-0.4834,0.2612,-0.348,30.6817,-9.7723,40.2932,0.5926,0.3078,-0.0598,-0.3677,-0.6561,0.7185,0.6325,-0.1854,1.7797,0.6565,-0.0504,0.4913,0.2673,-0.6023,-0.079
4842,-0.1297,-0.0691,9.7099,-0.0567,-1.168,0.4441,30.604,-10.9615,38.8892,-1.2217,1.4229,0.0755,0.1625,0.3607,0.5592,-0.4073,0.8556,0.8132,-1.054,1.9403,-0.6153,0.7138,-0.503,1.5528
4853,0.0848,0.0364,9.8054,-0.1029,0.3916,0.5412,30.5987,-10.5824,38.0004,0.0595,2.0857,1.2125,-0.2678,-0.0654,0.3786,-0.6712,-0.6331,0.9395,0.0083,1.0041,0.2558,-0.6603,0.978,-0.23
4866,0.024,-0.0086,9.7877,0.6373,0.9809,0.2233,28.7338,-11.4516,40.1207,-1.5636,0.4176,0.5602,-0.1666,0.5121,-0.377,0.636,1.748,0.2581,1.5903,0.1208,0.3605,1.5352,0.6877,-0.7796
4879,-0.122,0.0248,9.7382,0.2116,0.9038,-0.5637,31.2426,-6.87,39.9572,-1.1091,-1.0211,2.1494,-0.1023,-2.1525,0.4534,-1.3224,0.5043,0.263,-0.4545,-0.8557,1.1005,0.0774,0.3594,-0.424
4893,0.0318,0.0006,9.7428,-0.4574,0.7296,0.42,31.3961,-10.9543,40.4205,-0.3863,-2.2582,1.7318,-0.4617,2.3341,1.1187,1.9096,0.9217,1.9643,-0.1043,0.7026,-0.2279,-0.6944,-0.9742,1.2151
4906,-0.1484,0.2277,9.8751,-0.3324,0.7233,0.1186,30.2108,-10.464,38.9634,-0.8704,-0.6556,-0.2198,-0.8702,-1.6069,-0.2345,0.2983,1.7076,-1.0856,-0.3705,-0.7173,-0.0981,-0.0293,0.1246,-0.2818
4916,0.0252,0.0259,9.8528,0.4964,-0.116,-0.0102,31.2461,-11.2608,39.2421,-0.8424,0.8482,0.1803,1.5844,-1.0302,2.4895,-0.3979,0.5691,0.0706,-0.7505,1.9337,0.8062,-1.748,0.2279,-0.6656
4928,0.1661,-0.0785,9.7874,-0.1072,-0.4334,0.2224,28.6258,-10.0041,40.012,0.5049,-0.9003,-0.0601,1.5937,-0.2363,-2.2371,-0.8936,-1.9061,0.4356,-0.766,0.0727,0.1569,0.4974,-0.3497,1.3025
4948,0.0353,0.1527,9.8576,-0.7162,-0.4272,-0.3124,30.4359,-10.0846,40.0766,-0.6659,0.086,0.2536,-0.1188,-0.317,-0.523,1.0389,0.6045,-0.524,2.008,-0.2067,0.4562,-0.5351,-0.9132,-0.0114
4958,0.0641,0.0229,9.8865,-0.5301,-0.4569,0.681,30.4802,-12.3265,40.3866,-0.168,1.0478,1.099,-0.6868,2.3897,0.7859,1.1144,-0.8738,-0.9058,0.572,-0.975,0.0275,0.4195,-0.2976,1.2809
4969,0.0841,0.1223,9.7192,0.8069,0.0974,-0.1467,29.0709,-11.7064,40.2918,0.9594,-0.1223,-0.6908,-1.0308,0.0821,0.9373,2.0982,-0.828,-1.1355,-0.004,0.0805,0.4744,-1.6594,0.0678,-1.4919
4979,-0.0379,0.0012,9.7725,-0.0043,-0.2266,0.2439,28.5291,-9.2996,39.2117,-0.0537,1.3646,-0.3198,-1.4423,1.3143,0.8221,-1.105,-0.102,-0.0385,1.2921,-0.8109,1.7723,-0.526,-3.1681,-0.9994
4996,0.0335,-0.053,9.744,0.2506,-1.0314,0.4646,30.0542,-9.6124,40.0635,0.0047,0.2792,-2.1669,-0.5276,-0.1115,1.4213,0.0259,0.529,-1.5779,-2.2862,1.2926,1.0621,0.3276,-1.8797,-1.5368
5006,0.0475,-0.128,9.8056,-0.4156,0.1238,0.5893,30.1907,-10.6161,40.3757,-0.6236,-0.0707,-0.1511,-1.2376,-0.3118,-0.6933,-1.2982,0.0714,0.0606,0.3872,-1.7179,-0.3205,-1.4664,-0.2428,-0.0876
5017,0.0342,-0.1129,9.7716,0.3875,0.6817,-0.6952,29.8858,-9.2144,38.9125,0.0285,-1.2005,1.8624,-0.7478,-0.0881,-1.0249,-1.0067,0.1211,-1.7135,-1.6139,0.1057,1.2205,-0.5793,1.2653,0.1375
5034,0.0852,-0.1373,9.8414,0.1067,-0.3927,-0.286,32.2093,-9.6506,39.8535,0.1725,-1.0618,0.0992,-1.5933,0.0176,1.2912,-1.0939,-1.1441,0.5806,0.5089,0.1266,0.7695,0.296,-2.6772,0.4685
5045,0.019,0.0522,9.7984,0.483,-1.107,-0.2696,31.8394,-10.9595,38.9222,-0.4495,-0.8623,-0.7812,0.6334,-0.129,0.7714,1.0097,0.8724,1.3007,1.3272,0.6429,-0.7572,-2.4411,1.7136,-0.8316
5055,0.0216,0.0392,9.7995,0.3575,-0.0883,-0.4724,28.8877,-10.7278,39.7973,-0.7757,-0.4698,-0.0608,-0.2347,0.9386,1.0092,0.2109,1.7441,-1.0411,0.1859,0.4267,2.0059,0.7864,1.2796,0.3725
5078,0.0094,-0.1167,9.8031,-0.1525,-0.6971,0.2675,29.6637,-11.0487,37.4519,0.0907,0.194,-0.7212,0.8306,0.6135,1.7652,0.6693,-1.7848,1.551,-1.1045,1.3568,1.099,1.5563,-0.0487,-0.5488
5088,0.0796,0.1326,9.8313,-0.1487,-0.61,0.7266,31.4508,-9.2748,39.3564,-0.075,1.2488,0.7844,1.1864,-0.1951,0.8006,-1.7689,-0.9609,-0.4227,0.5308,-0.4835,-1.0264,-0.2464,-1.2952,-1.2502
5099,0.0738,0.013,9.796,-0.4107,0.0368,0.1102,30.0359,-9.8959,41.6368,0.8177,0.6788,2.4214,0.2801,-0.9183,-0.0982,0.1304,0.2018,-0.1982,0.4434,-1.2833,1.5675,0.5327,-0.776,0.6065
5117,-0.0309,0.1902,9.7349,-0.1562,-0.2755,0.0428,30.4661,-10.015,39.4043,-0.5783,1.0007,0.19,2.4606,2.0691,-0.0677,-1.5606,-0.4551,0.2327,-0.4987,0.1123,-0.5029,-0.3772,1.2998,-0.0543
5129,-0.0095,-0.024,9.8156,-0.1749,-0.9406,-0.5104,30.8436,-9.4103,39.4581,0.7399,0.3136,0.4226,0.4456,-0.2667,-1.7242,-0.5338,-0.2333,-1.1292,-0.6359,0.6435,-0.4909,0.7968,1.3807,-0.0155
5140,0.0427,0.0187,9.8581,1.028,0.2461,0.5534,31.0058,-10.7897,40.6074,0.1422,0.1767,-2.0591,-0.2192,0.0557,0.253,0.6334,-0.7459,0.3143,0.3839,-2.2306,-0.1851,-0.4967,0.1451,0.1643
5154,0.0302,0.0129,9.7926,0.571,-0.3445,-0.1661,30.7091,-10.0359,39.0096,-0.0795,-1.5108,0.7949,-0.3277,0.6535,-0.9669,-0.7912,1.201,2.0159,0.8764,-0.2648,-0.1951,1.1948,1.9611,0.1153
5165,-0.011,-0.0921,9.8324,-0.2713,-0.0315,0.908,29.9118,-8.374,38.4858,-0.2343,0.6375,-1.0959,-0.6195,-0.7496,1.1059,1.6925,-0.396,2.531,-1.6216,-1.2637,0.4446,1.4415,-0.4433,1.4154
5175,-0.0016,0.1059,9.8683,0.5304,-0.5193,0.6093,28.5634,-10.6502,41.026,0.5913,-1.2149,0.108,-0.9439,1.3966,-0.8753,0.8597,0.0041,-0.1877,0.5911,0.3759,-1.7506,2.0258,-0.3984,-0.2908
5187,-0.1636,-0.0373,9.8012,-0.4939,-0.6071,-0.4324,28.554,-11.5238,40.0294,2.1004,0.9327,-0.9183,-0.2432,0.0926,-1.3241,-1.6049,0.6782,1.831,0.7377,0.8806,-0.1203,0.9459,-0.4694,-1.3398
5203,-0.1265,0.0356,9.7677,0.3185,0.9396,0.0102,28.3881,-10.6688,41.4734,-0.7472,-0.4547,-0.1826,0.525,-0.2367,-0.2432,2.8194,-0.2998,-0.392,-0.1759,-1.4547,-0.4052,0.2091,1.0579,-0.3615
5213,0.0286,-0.04,9.7659,-0.2581,0.2155,-0.4431,31.4199,-10.6155,39.6847,1.0464,-0.1786,1.0951,-0.2865,1.0166,0.5953,-0.2605,-0.0763,-0.5884,-1.0206,0.9302,-1.5624,1.8066,-1.3505,-1.0429
5224,0.0191,-0.0284,9.7906,-0.1418,0.7854,-0.2261,28.5139,-9.7809,38.5811,0.5034,-1.3326,1.4413,0.4837,-2.043,1.2441,0.3118,-0.8466,-0.3954,0.2794,-0.2132,-0.3525,0.8978,1.2727,-0.5893
5235,0.1087,-0.069,9.8068,-0.076,0.3706,-0.1981,30.4193,-10.1834,41.487,0.0623,0.156,1.1585,0.1712,-1.2614,-1.1759,0.1563,2.0812,-2.1798,-1.0381,0.4089,-1.0781,-1.4646,-0.8179,-0.3244
5245,0.1041,0.1474,9.7797,-0.3266,-0.0739,1.0353,29.2576,-9.5915,39.9418,-2.0694,-0.1818,0.4775,-0.4443,1.2348,-0.8821,0.5407,0.4339,-0.0825,-0.3122,2.6103,0.7445,-0.3791,-0.8247,0.0416
5256,-0.0166,0.0175,9.8592,0.4665,0.1344,-0.021,29.4588,-10.5628,39.1781,0.7024,0.2504,-0.1327,-2.16,-1.4711,-0.1062,-1.9443,1.3808,-1.0355,-0.3292,0.7488,-0.4501,1.2359,0.5029,-0.4748
5267,-0.1227,-0.0028,9.8322,0.2354,0.3014,0.253,30.34,-9.6703,40.6152,-0.468,-0.1536,0.1983,-1.188,-0.2488,-1.546,-0.7058,-1.0667,-0.0221,1.0352,1.0862,0.557,-0.2834,1.1961,-0.5301
5288,0.1463,-0.1098,9.8049,0.1077,0.4476,-0.232,29.8754,-9.1065,38.9196,0.6268,0.8307,-0.9296,-0.8427,-1.2802,-1.1688,1.4946,-1.6163,2.602,-0.9444,-0.4781,-1.2145,0.1058,0.6445,0.1772
5298,-0.0441,0.0492,9.8021,0.2256,0.5686,-0.2989,30.1685,-9.7804,41.0185,1.5066,0.8573,0.4548,-0.5356,0.1249,0.5066,-0.4387,0.5452,-1.162,-0.6583,0.1382,-0.9349,-1.3614,0.9421,1.0688
5309,0.1051,-0.0449,9.7919,-0.0402,0.2616,0.5413,29.4661,-9.9929,40.8487,-1.1885,0.3923,0.9331,1.5531,-2.3911,1.4114,-0.2801,1.544,0.5323,-0.4753,-1.5845,-2.3072,1.5682,0.3966,-0.3733
5320,-0.044,-0.1598,9.702,-0.3982,-0.5207,-0.1191,29.9277,-10.2975,38.2976,-0.6773,0.2376,-0.493,-1.2741,-0.1797,-0.4939,-0.0596,1.0431,0.1161,0.2839,0.8806,-0.3554,-0.159,-1.0442,-0.6689
5335,-0.0986,0.0012,9.7935,0.1841,0.6741,-0.6696,32.0998,-9.2816,40.7884,0.3918,0.2712,-2.3069,-0.425,0.736,-0.5798,0.8238,0.9368,0.5097,-0.686,-0.6469,-0.2867,-1.7888,1.4681,0.0735
5346,-0.0142,0.0161,9.8548,-0.4232,-0.6806,-0.0516,31.0814,-10.2494,39.3243,-2.3264,0.9236,1.4685,0.8138,0.4452,-0.0601,1.5457,0.5679,-1.5661,1.4828,0.5834,-0.59,-0.6664,0.5132,-1.4917
5357,-0.1671,-0.0385,9.837,-1.3054,0.3967,-0.2617,31.2942,-10.7494,39.2726,1.1435,-0.6057,-0.6037,-0.5092,0.1146,-1.9666,0.1266,-0.3568,-0.4685,0.6453,-0.378,0.4419,-0.9455,-2.9138,-1.1759
5371,0.019,0.1386,9.8787,0.4723,0.1797,-0.517,30.993,-9.9332,42.1369,0.6952,-0.027,2.2802,0.3884,0.9533,0.8256,0.2082,0.8258,-1.6638,0.3624,-0.5537,1.3282,0.0521,1.183,-1.063
5382,0.0425,-0.1118,9.6794,0.1726,-0.0135,-0.0065,30.6916,-9.7422,39.1869,-0.242,0.0886,-1.0003,0.4649,-0.6048,-0.7765,-1.1879,0.7274,0.2096,0.3895,0.5106,-0.4524,-1.7942,0.7963,-0.7862
5393,0.1306,-0.0348,9.8395,-1.1129,-1.1034,-0.1076,31.5112,-12.0871,39.3694,0.6879,1.5019,-0.4003,-0.5517,-0.3371,0.3114,2.0272,0.1453,-0.5229,0.4136,-0.4582,-0.0199,-0.296,-1.9186,-0.4775
5404,-0.1683,0.0221,9.7345,0.0458,-0.1915,0.3595,30.6365,-9.5642,41.1231,-0.2948,-0.9218,0.0937,-0.2405,-1.929,-2.5872,1.3538,-1.3122,1.0659,-0.334,-0.8624,0.9132,0.3095,-0.5515,-0.9637
5414,-0.0042,-0.0512,9.8528,0.5462,0.537,0.156,30.0233,-8.334,39.0766,-1.0561,1.5829,-1.2974,-1.7792,-0.9456,-0.2627,1.1565,-0.3064,0.3514,0.0545,0.6245,-0.2551,0.1469,0.3565,0.0618
5425,-0.1635,0.1181,9.7384,0.1708,0.0776,0.6929,29.8434,-11.3582,38.2056,-0.6734,2.0415,-1.0082,0.6358,1.3767,0.3569,0.3294,0.3639,-0.8284,-0.2025,1.2818,-0.0977,0.0016,0.1221,0.7221
5437,0.0692,0.1407,9.8455,0.1159,-0.6672,-0.091,29.5773,-7.8469,40.8734,0.4626,2.1058,-1.1656,0.3643,0.3606,0.3186,-0.3381,-2.8426,0.0654,-1.4519,1.0993,-0.7709,2.002,-1.2177,0.4199
5454,-0.0145,-0.058,9.6251,-0.3219,0.2883,0.6793,29.0754,-8.9,40.1563,-0.3166,-1.3111,-1.3435,0.7928,-1.4001,1.8263,0.5626,1.7946,0.9348,0.0172,-2.5324,0.0937,0.5048,-0.064,0.8194
5465,-0.0543,-0.1142,9.8189,0.3867,0.3281,-0.1129,29.0632,-9.6284,40.0308,-0.4727,-1.6598,-0.8992,0.3884,-1.8822,-0.0598,0.485,0.693,-1.0922,1.823,-1.1005,1.2989,1.5456,-0.7334,0.5701
5478,-0.1085,-0.0194,9.9164,-1.1246,-0.7999,0.2347,29.8042,-10.3459,40.7416,1.407,-1.4846,-0.0213,0.9865,-1.3616,0.0447,0.8054,0.5747,0.01,0.2257,-0.4407,-0.8203,0.9152,-0.9745,0.4317
5490,-0.0558,-0.0365,9.8297,-0.759,-0.3651,-0.3297,31.1699,-11.0582,41.0249,0.8554,0.591,2.3182,1.5715,0.9675,1.3562,-0.5642,1.0911,0.1857,-0.576,-0.5762,1.4548,0.0344,1.0569,-0.0756
5508,-0.0635,0.04,9.8133,-0.5411,0.4243,0.1117,29.3205,-11.4084,38.0855,0.0581,-0.3901,0.4139,-0.0456,-0.6571,1.8699,0.8192,1.2752,0.8192,-0.805,-1.4005,0.4799,-0.1395,-0.6175,-0.2231
5519,-0.1373,-0.1626,9.7555,-0.2602,-0.6026,0.286,30.5391,-10.7156,39.4173,-0.4481,0.2741,1.277,0.5041,-2.3089,-0.814,0.2974,0.1432,2.3318,1.5719,0.808,-0.0966,1.2274,-0.6907,0.9927
5531,-0.1772,0.0345,9.829,0.5991,0.0588,0.7199,31.07,-8.8968,41.4899,-0.6948,0.4093,-0.3628,-1.9762,0.7408,-0.7098,-1.4662,0.2945,-0.6133,-1.2164,0.2017,-0.2766,0.3822,1.3939,-1.0413
5544,-0.0911,-0.1768,9.7456,0.278,-0.5304,0.4967,27.35,-9.8008,40.8799,-1.0256,-0.3094,-0.3403,1.5843,-0.4414,-0.9502,-0.9321,-0.3528,-0.2321,-0.4353,-1.1421,0.1689,0.5932,0.0404,-2.6351
5557,-0.0596,0.2398,9.7635,0.3061,-0.0383,-0.5508,30.3495,-9.1758,39.7099,-0.9921,-1.6393,0.2583,-0.5373,-1.0168,0.2275,-0.698,-2.1393,0.6712,-0.1303,0.6206,-0.0145,0.3564,1.383,-1.035
5568,0.0599,-0.0194,9.7858,-0.3247,0.426,0.5258,30.0046,-10.445,40.9181,-0.7811,0.451,-0.097,-1.1949,-1.0786,-1.1947,0.4631,1.3428,1.0781,0.1519,1.1637,0.3994,1.2789,0.2048,0.0849
5579,0.1517,-0.0929,9.8469,0.0896,-0.1461,-0.8541,31.7838,-9.9005,40.9308,-0.3139,-0.2839,0.304,-0.3411,0.4638,0.8357,0.309,-0.5584,1.091,0.3185,-0.1673,-0.3776,0.8463,-1.1413,1.2513
5590,0.028,0.0318,9.8436,0.945,0.8662,0.8054,31.2769,-8.213,40.0286,-1.6548,0.7276,-1.5329,0.7318,-0.0071,0.9078,-0.7753,1.1219,0.788,0.0745,0.2871,-0.0244,-0.2237,-1.3695,0.494
5609,-0.0935,0.003,9.8059,-0.1432,-0.1686,-0.467,30.1292,-9.8485,38.791,-0.825,0.2642,-1.1213,0.0657,0.1461,-0.2535,0.7391,0.7762,-0.1112,-0.3899,-0.8021,-1.7448,0.5469,-0.194,0.7298
5627,0.0331,0.174,9.8492,0.683,-0.0197,-0.12,29.8169,-9.3335,40.5858,-0.9856,0.3753,-0.5056,-1.292,0.8354,1.3947,2.508,0.7954,-0.9074,0.8386,-0.357,1.688,-0.2944,1.5005,0.3697
5638,-0.0997,-0.0576,9.7974,-0.3593,0.3984,-0.2406,29.9342,-9.6441,40.9713,-0.6171,1.1044,-1.2941,-0.3809,1.4066,2.2509,0.0416,0.0725,-1.3738,0.9354,-0.0447,-0.721,-0.4018,0.1649,0.307
5649,0.1241,0.0478,9.8097,-0.4174,-0.3516,0.5772,29.53,-8.9946,39.0483,-0.6017,1.4227,0.2268,0.5153,0.3029,-0.9124,-1.4238,-0.3837,0.5729,0.6615,-1.5805,1.3887,0.0779,0.5604,0.4935
5663,0.1235,-0.1774,9.7905,-0.65,-0.5881,0.3408,29.6483,-9.2761,41.0739,-1.7294,-0.6357,0.1829,-0.6882,0.1015,2.5973,-1.4125,-0.097,1.6385,0.0522,1.4503,1.1239,-0.3049,-0.7873,0.3979
5681,-0.0328,0.0786,9.7819,-0.5142,0.0098,-0.1812,27.1486,-9.0803,39.1907,-0.4544,0.4254,-0.2529,0.6018,-1.5785,-0.0708,1.4626,0.4558,-0.676,-0.2729,-0.2588,-0.4618,-1.6507,-0.7549,0.4796
5691,0.0947,0.0857,9.8488,-0.0474,0.2285,0.7038,30.1578,-9.9367,39.9242,1.188,1.6799,0.7098,0.1728,0.113,0.7896,-0.9265,-2.0119,-0.5112,0.8953,0.2796,-0.4768,0.2438,0.3847,0.8546
5705,-0.2529,-0.0651,9.8506,-0.3868,-0.9079,-0.3259,30.433,-10.7254,40.5714,-0.1532,-0.9981,-1.1897,0.2516,0.5099,-0.4979,-0.383,0.4419,0.3093,0.4382,-1.7161,-1.1961,0.6611,-1.3255,1.5684
5715,0.0133,-0.0317,9.7997,-0.285,-0.055,0.4257,30.0836,-10.9844,40.76,-0.8359,-0.7618,-0.5421,0.99,-1.1604,-0.123,0.7019,1.146,-2.0702,-1.0054,1.631,-1.218,0.5219,-0.3765,0.6591
5725,0.2523,0.0774,9.8751,-0.1662,-0.6289,0.9162,30.8757,-9.0731,38.6215,-0.3716,-0.0205,-1.3702,1.2184,-2.5344,-1.3106,-0.0396,0.221,-1.2136,1.5006,-0.1555,0.0742,-1.7364,-1.4476,-0.6446
5735,0.0102,-0.0342,9.7196,0.0334,0.5664,0.3082,31.2276,-9.6102,37.8983,2.3917,-1.3862,-0.5497,1.7148,-0.1009,0.1151,0.9669,1.387,1.9682,-0.3291,-0.0985,-0.1189,-0.4775,0.3075,-0.0698
5752,0.0462,-0.0358,9.7776,0.5165,0.5794,0.0784,30.5632,-8.4547,41.4981,-0.6531,0.1728,0.2023,0.4653,-1.0255,-1.3619,0.3829,0.3657,-0.2436,0.3963,-0.477,0.1074,-1.0129,-0.9854,0.2841
5762,-0.0657,0.0294,9.7641,0.007,0.3822,-0.6032,29.9947,-10.3038,38.6835,-0.3558,-1.4459,0.5552,0.0604,0.5239,-0.0612,-1.9949,-0.8653,-1.3733,1.9311,-2.2185,-0.9894,-0.482,-0.9381,0.0817
5773,-0.1346,0.0301,9.8267,-0.5664,0.0861,0.4276,31.4813,-10.3299,39.1804,0.941,-0.3061,0.3282,-0.0819,1.965,1.1287,0.3601,0.2984,-0.5523,-0.8586,1.735,0.6153,0.814,-1.0858,0.0606
5783,0.2055,0.041,9.8233,-0.3169,-0.7677,-0.0373,31.1169,-9.7383,39.8701,-0.8281,-0.3378,1.4048,2.4196,0.1339,-0.3392,-0.1516,-0.2748,1.1503,-1.1657,1.3063,0.2217,1.1421,-0.9209,-0.1358
5800,0.1228,0.0127,9.8084,-0.8895,0.1188,0.1712,27.3695,-10.4102,38.8342,-0.4297,-0.6246,1.5667,0.9709,-0.6685,1.0809,0.709,0.724,-0.5608,-0.0791,1.8816,-1.5467,-1.304,-0.6925,0.4155
5810,0.1266,-0.1817,9.6827,0.0771,-0.9994,0.0478,29.1267,-10.4409,39.6358,-1.1534,1.5086,-0.5459,-0.1938,0.092,-0.1576,-1.3696,-1.6887,-1.2446,-1.6182,0.512,1.1284,0.1403,-0.5838,0.4379
5822,0.0097,0.0592,9.7594,0.2102,1.4702,0.7318,29.3066,-9.5539,41.3086,-0.1037,0.2189,0.1476,0.1576,-0.3077,-1.4322,0.3054,1.4019,1.5805,-0.6492,-0.1885,-0.4083,-0.8163,2.0043,0.1981
5833,0.131,-0.0992,9.7491,0.0581,-0.471,-0.379,29.2173,-10.7784,39.4498,-1.7678,-0.238,-0.526,0.3365,1.4636,-0.653,-0.3587,-0.547,-0.4662,0.7157,0.0585,-1.0999,2.3282,-0.2415,-1.2717
5844,0.0172,-0.0074,9.794,-0.231,-0.7945,-0.102,28.0854,-9.439,39.4203,0.1934,1.173,-1.448,0.9346,-0.5813,1.9974,-0.8811,0.0909,0.7084,0.4752,0.1236,-1.4945,1.8761,0.4632,-0.0095
5854,-0.0523,0.029,9.7658,0.9494,0.6359,0.4492,29.7834,-11.1426,39.5306,-0.2689,1.0376,0.6635,1.5884,-0.4914,0.1872,0.3433,-0.7314,-0.5763,0.0301,-2.4765,0.4888,-0.4718,0.1369,-2.401
5869,-0.06,0.0355,9.8339,-0.5413,0.0616,-0.1666,30.729,-10.3845,39.8618,0.3515,1.4256,-1.0883,0.9156,0.5003,0.5816,0.1332,-0.796,-0.0565,0.4916,0.6292,-0.6785,-1.4815,0.4982,0.2687
5879,0.16,-0.0041,9.8657,0.617,0.134,-0.2059,29.8215,-11.4761,38.7878,-0.3564,-1.1348,-0.9965,-0.0899,-0.2567,0.8828,-0.5344,1.1444,1.4459,-0.623,-1.1768,1.0624,-1.4339,-0.3629,-0.8417
5890,0.053,-0.0837,9.7746,-0.125,0.387,-0.8011,29.3271,-10.8958,40.4333,1.7548,1.5245,0.8211,0.5134,0.4376,-1.0152,1.2417,-0.5756,0.1488,-1.1439,-0.0211,-0.0749,0.3344,0.8558,2.0217
5902,0.1927,0.0885,9.8503,-0.7795,-0.3567,0.0589,28.9926,-11.0167,39.4275,0.6453,-1.1234,1.9055,-1.6661,0.4577,0.5713,-0.85,0.2196,0.3653,1.3899,1.6162,0.0201,-0.4974,-0.7457,-0.4885
5913,0.1952,-0.0653,9.831,-0.0164,0.4417,0.6184,28.6774,-11.1581,38.6742,-1.5039,-0.9807,-0.7429,-0.8946,-0.2484,-0.8818,-0.6498,-0.555,-0.0388,2.3083,-0.0346,-0.7838,1.3963,-0.7248,-1.6033
5923,0.1006,-0.0627,9.8649,0.2308,0.9756,0.2047,28.2485,-9.2791,38.084,0.0729,1.223,2.3229,-0.8488,0.7037,-1.0314,0.2318,0.4076,-0.0611,0.145,2.0072,1.4617,0.395,-1.2487,-0.3314
5934,-0.0392,-0.2162,9.748,0.1358,-0.3174,-0.1315,29.9537,-10.8471,40.0414,1.6129,1.8465,0.7146,0.5659,-0.393,-0.0216,-2.3244,-1.2154,0.9334,0.2109,0.4208,1.103,-0.1133,-0.3036,-2.0233
5946,-0.3052,0.1765,9.7796,-0.3579,0.4077,0.2823,29.6376,-10.8006,42.1728,-0.1366,-0.0227,-0.3576,-1.4157,1.5848,-0.1649,-1.6456,-1.8896,0.1385,-1.8203,-0.1331,-0.3181,-0.537,1.1671,0.0042
5957,0.2264,0.102,9.7599,-0.3645,-0.2173,-0.4466,29.936,-11.1625,41.1533,1.3905,0.3331,-0.4381,1.1476,0.3521,-0.7066,-1.9254,0.3466,0.1433,-0.7816,-0.3216,-0.0447,-0.0707,-1.4895,0.0305
5967,0.0352,-0.0561,9.7098,-0.044,-0.5716,0.3537,29.4232,-11.6931,41.3481,-2.7813,0.9262,-0.1336,0.3697,0.8972,0.3683,1.739,0.3368,-1.0218,-0.8262,-0.7966,-0.701,0.1703,-1.7756,-0.9426
5977,-0.0772,-0.1267,9.7787,-0.1589,-0.4116,-0.4903,30.1291,-9.9603,41.865,1.6633,-1.884,-0.4391,0.0339,0.2974,1.5439,1.5563,0.033,0.9565,-0.6613,0.1893,1.4257,0.8639,0.6079,0.7769
5999,0.0027,0.0302,9.8515,-0.4888,0.3585,0.3659,30.9432,-9.8264,39.7749,0.9067,1.5389,-0.6384,0.2699,0.9509,-0.2758,-0.947,1.176,0.1322,-2.0553,-1.3456,-1.8946,-0.4902,-0.2152,0.0105
6009,0.0357,0.2076,9.858,0.4334,-0.123,-0.2417,29.3715,-8.9741,41.0626,3.3494,1.5122,-0.4217,-0.0919,0.0776,-0.4315,-0.927,1.3702,-0.8816,0.8028,0.831,0.1883,-0.5622,-1.5947,0.5596
6025,-0.1034,-0.1801,9.8051,0.5417,0.4457,0.4882,29.2497,-9.9782,39.2306,-0.6681,2.2419,-0.0613,0.1391,1.5931,0.6773,-2.2066,0.1324,0.6771,1.5058,0.7902,-1.0748,0.0462,1.7325,1.6485
6036,-0.1402,0.0864,9.7453,0.1994,0.5006,-1.3005,30.2317,-9.9584,39.86,1.0557,0.3231,0.1158,-0.6795,-0.4819,0.6665,0.9722,-0.2827,-0.1584,-0.3143,-0.1367,-2.1899,-0.8909,0.5991,1.4402
6054,0.0941,-0.0681,9.7965,-0.178,0.3173,-0.2449,30.831,-9.1913,39.61,-0.7732,0.6121,-1.8178,0.7912,-0.8968,-0.9306,0.3385,-0.731,1.1754,0.507,-0.29,-0.0859,1.6034,0.1933,-0.4571
6065,-0.0661,-0.0978,9.9148,-0.6501,-0.002,-0.3728,29.5242,-9.6462,40.0256,1.1102,1.3612,-0.5198,-0.2567,-1.1044,0.0705,-0.5241,-0.1167,0.4651,-1.539,-0.7258,2.0035,-0.0852,-0.0512,-0.9778
6078,0.1383,-0.0387,9.8458,-0.0728,0.3542,0.3519,30.2112,-8.1024,39.3999,1.0085,0.78,-1.0505,0.3846,-0.1541,-0.4617,0.9722,1.4716,-1.0372,-0.3783,0.027,0.5611,-0.0559,-0.3425,-0.7815
6088,0.139,0.0866,9.8025,-0.278,-0.469,-0.0821,30.7961,-9.1571,41.2638,0.4125,1.54,1.2374,-0.6782,0.7393,1.6495,-0.4085,1.4458,0.7672,0.0032,1.273,-0.767,0.1109,1.8915,-0.6741
6099,-0.1616,-0.0795,9.8269,0.6995,-0.4444,0.6495,29.6254,-8.4102,40.578,0.037,-0.7615,0.3886,2.1379,-0.2619,-0.5496,-0.1262,0.039,-0.3399,-1.2129,-0.1913,0.7711,1.3388,-0.0807,0.2422
6118,0.163,0.1456,9.7387,-0.5929,0.6648,-0.0577,30.2074,-7.5007,40.6771,-0.2518,0.5112,0.6277,0.4775,0.2998,-0.8829,2.2106,0.1952,-0.1112,-0.6056,-0.1416,-1.7246,1.0975,-0.1112,1.9353
6128,-0.0295,-0.0798,9.8653,-0.0956,0.8713,0.4492,30.9137,-10.7031,40.2589,-0.6056,0.6146,0.6865,0.3414,1.7346,1.0083,-1.1833,1.2717,1.2594,-0.8515,-0.9725,-0.7747,-0.4564,-1.5462,0.1067
6140,0.0609,0.0515,9.7178,-0.0914,0.1638,-0.2232,28.4299,-11.136,39.9325,-0.1537,0.187,-0.7838,0.857,0.4208,0.3491,-0.9546,-0.353,0.1576,0.5584,-0.5617,0.1101,0.8855,0.8167,-0.6592
6150,0.0258,0.1067,9.8327,-0.1787,0.1847,0.5742,30.8592,-9.8715,40.1784,-0.1468,0.0523,0.8346,-0.2887,0.786,-1.0653,-0.4019,-1.2509,-0.5211,0.6159,0.1699,0.9462,0.9594,-0.2454,0.2323
6167,0.0687,0.0373,9.8464,0.1181,-0.171,0.3841,31.5573,-10.1973,40.3347,0.2628,0.1123,0.2812,0.1951,0.453,-1.3256,-2.6558,1.2392,-0.8783,0.0077,0.3271,0.3792,1.1427,-1.436,-0.1098
6178,0.057,-0.1039,9.7539,-0.032,-0.7246,0.7347,31.9505,-9.1275,40.7068,-0.3606,0.2975,-0.0247,-1.5804,-0.3607,1.5126,-0.4049,-0.6736,0.1651,0.22,-0.3541,-2.0725,0.9778,1.4944,-1.4719
6192,0.123,-0.0145,9.8454,-0.937,0.3036,-0.4385,28.4558,-9.6791,41.937,-0.1795,0.4706,-3.5681,-1.9737,-1.5519,-0.2461,1.1695,0.4139,-2.7885,-0.2592,-0.3658,-0.6358,0.1732,-0.4896,-1.2716
6202,-0.0967,-0.1026,9.7946,-0.5409,-0.6371,-0.4613,29.4684,-8.8291,39.6358,-0.179,-0.9453,0.8169,0.9777,0.2289,0.1365,0.1834,1.6362,0.8241,-0.0562,1.6872,0.8644,0.7849,-0.3917,1.8469
6213,-0.0327,0.0516,9.8023,-0.2196,0.2667,-0.4424,30.9517,-8.9279,41.4747,-0.4507,0.5982,0.0385,0.5669,0.5862,-0.42,0.2748,-0.1451,0.9163,-1.4852,-1.1785,-0.5687,-0.2779,-0.6752,-0.8253
6228,-0.0126,-0.0304,9.7602,0.1394,0.127,-0.3298,29.7404,-10.4975,40.3478,-1.026,-1.3958,-0.081,-1.0663,1.9356,0.2986,0.3318,0.3348,0.8786,1.1924,-1.2456,-0.9726,0.2923,-0.4845,0.5884
6242,-0.0896,-0.1693,9.6979,0.5502,0.5683,0.2297,29.8074,-11.7039,41.7661,-0.38,-0.3098,0.7419,-0.3368,2.077,1.0251,0.6966,-2.0544,0.9126,-0.0822,0.1359,-0.3828,0.6626,0.488,-1.3315
6255,-0.0249,-0.0899,9.7536,0.5226,-0.1815,0.6939,29.3582,-9.3655,38.1753,-0.3659,-0.8523,-1.0273,-2.2077,-0.8751,-0.036,1.5042,1.5126,-0.4231,-0.3642,2.2948,1.3527,-0.7027,1.7882,0.6525
6267,-0.258,0.0155,9.8589,0.5913,0.1223,0.0397,31.6333,-9.9398,38.369,0.2797,2.0079,-0.3341,-0.798,1.1928,-0.1007,-0.5002,-1.1194,0.3055,-1.9183,0.7699,1.2277,0.1375,-0.1428,-0.0273
6278,-0.0659,0.1878,9.7736,0.0222,0.0499,0.0192,27.9725,-9.1389,40.504,-0.5458,-0.956,0.2733,0.0528,-1.0047,0.8096,0.4307,0.1119,0.9072,0.3356,-0.4492,-0.2418,0.5342,-0.9867,0.1948
6289,0.0061,-0.0496,9.759,0.7904,0.413,-0.9485,30.2747,-11.1839,40.3116,0.46,1.6047,-0.2101,-0.3298,-0.4627,1.4642,-0.5767,-0.2293,-0.9225,-0.2162,0.3677,0.7323,0.1991,-1.6297,-0.8207
6301,0.0093,0.1817,9.7304,0.1075,-0.1635,-0.582,29.0628,-8.6039,40.989,0.8697,0.6434,1.9978,0.0434,-1.0714,-0.8974,0.0156,-1.1811,-1.2093,-1.0888,-0.0845,-1.3464,0.3628,2.0045,-0.912
6311,0.1916,0.0033,9.8279,1.129,0.0935,-0.2245,32.3096,-10.9603,40.1369,-0.1488,0.4923,0.7401,0.6585,-2.7983,1.2132,-0.3783,0.1339,0.0297,0.7957,0.6969,-1.0827,-0.4336,0.7182,-1.3867
6322,0.2364,0.1023,9.8002,0.5423,-0.4232,-0.5601,30.4799,-10.1747,38.8577,0.3791,-1.3654,0.3894,-0.1881,-1.7301,-0.495,0.8577,-0.8569,0.8543,-0.0635,0.1864,0.4509,-0.9763,0.303,-0.4041
6332,0.0953,0.0621,9.8045,0.3214,-0.1232,-1.0673,29.2213,-9.895,40.0069,-0.2063,-0.6915,0.6614,-0.8687,0.8905,-0.6889,2.0724,0.1909,-1.9401,-1.2114,0.1403,1.0823,0.4307,0.0444,-0.1622
6343,0.1425,-0.0209,9.9389,-0.4348,0.607,-0.3872,30.0068,-10.3464,39.3315,0.0546,-0.5578,-0.785,-0.4719,1.3105,-1.0411,0.6269,-0.4577,0.336,-0.4024,0.6605,-0.5475,-1.4768,-0.4502,0.7772
6356,0.0423,-0.0028,9.8075,0.2017,0.0454,-0.0567,28.5574,-12.0341,40.3277,-0.0376,0.0333,1.4079,-0.3442,1.2248,2.0403,0.5455,0.5648,1.0171,0.5851,0.3321,-0.7713,1.4832,0.32,0.6341
6367,-0.0204,0.1362,9.7826,-0.6658,0.3124,-0.1135,30.9164,-10.4407,39.7855,1.1544,-0.3021,1.1906,0.6513,-0.3886,-0.0916,-1.3387,0.5378,-1.2299,0.0347,0.791,1.7931,-0.4947,-0.6741,0.0773
6378,-0.0089,-0.0313,9.7613,-0.1164,0.3893,0.2022,28.0906,-12.3357,40.4345,1.5966,-1.7325,-0.1766,0.3704,0.2099,-0.9276,-0.4639,-0.7481,-0.6157,-2.0264,-0.2359,0.7638,0.2594,2.1309,0.4349
6392,-0.1194,-0.0491,9.7343,0.2458,1.2664,0.2433,29.3697,-10.4469,41.0216,-0.0244,0.1309,-0.8178,-0.9886,1.1946,-0.1596,-0.639,-0.5763,0.0025,-0.54,1.0633,-1.1016,-1.1887,0.435,-0.2373
6412,0.0427,-0.0319,9.8916,0.1064,0.0233,0.5038,29.131,-9.7147,39.022,-0.2245,1.8221,0.2285,-1.974,-1.0947,-1.7368,-0.9244,1.2479,1.0676,0.1642,-1.4026,0.868,-0.1467,-0.4883,0.9627
6422,0.0176,0.0613,9.793,-0.0804,-0.0122,-0.2106,30.1681,-10.4947,41.961,0.2849,2.6393,-1.135,1.3038,1.0139,2.0138,-0.2075,0.5485,1.0409,-0.1084,0.745,2.1123,-0.5879,0.1436,-2.9079
6435,-0.0862,-0.1248,9.764,0.1532,-0.7788,-0.607,29.1222,-9.1036,39.0314,0.3983,-1.5979,2.65,0.8358,-0.743,-2.7438,-0.393,-1.7251,-1.0259,-0.967,-0.1659,0.0232,2.0671,0.4951,1.448
6445,-0.0315,-0.0219,9.7832,-0.004,0.3619,0.5672,30.6968,-11.6035,39.8674,-1.7331,1.2731,-0.7875,0.6982,0.7187,1.5747,-0.7867,-0.7116,-0.4966,-0.0901,-1.146,1.0247,-0.3908,1.8472,-0.1654
6455,-0.1637,0.0558,9.8199,0.3259,-0.19,0.3776,30.6583,-9.5069,39.6545,-0.2106,-3.0207,0.6804,-0.346,0.0959,0.5613,-1.4717,2.838,-2.3309,0.4917,-0.108,-0.8367,0.3203,-0.1395,1.1699
6475,0.123,0.1372,9.8925,-0.4435,0.2932,0.3655,30.0953,-9.8997,39.6465,0.4466,1.4168,-1.1517,-0.4142,-1.0263,0.6549,0.5658,1.084,-0.2353,0.1454,-0.7244,1.8301,1.9688,-0.5613,-0.4211
6488,0.0193,-0.0233,9.8334,0.0005,0.888,0.0869,30.5884,-11.8021,39.2196,0.8393,0.0396,0.8578,-0.1755,0.5262,-0.9546,0.9808,-0.4232,0.6087,-0.5848,-0.6179,0.5492,2.0745,-1.5241,-0.2898
6500,-0.184,-0.0986,9.8407,-0.4652,0.3187,-0.0596,28.8037,-11.0328,38.817,-0.2267,-0.6895,0.5208,-1.5636,0.4416,-1.2563,1.5808,0.1008,0.9732,1.173,-1.3337,-0.9769,0.2509,0.7961,1.8431
6513,0.0832,-0.0388,9.8676,-0.6181,-0.0609,0.0381,29.4769,-7.9761,38.8528,-0.6998,0.5624,-0.3404,-2.4883,0.5241,0.1343,0.7053,-1.0454,0.5666,-0.409,-1.4955,-0.4824,1.0412,-1.4992,0.4489
6524,0.0658,0.0294,9.7552,0.6467,-0.8343,-0.079,29.8412,-8.579,39.0028,-0.2663,0.8511,1.1008,0.7433,-1.5465,1.2643,-1.2602,0.8122,-0.907,-0.7109,2.2302,0.2769,-2.0955,0.4769,-0.5452
6535,-0.0531,-0.0106,9.7565,-0.344,0.0273,0.2001,31.4003,-11.3927,40.0521,1.4077,0.1899,0.2064,0.2181,-0.0589,-1.2002,-0.3178,-0.0947,-0.2478,1.9779,-1.4531,1.5282,0.3726,0.4897,-2.1701
6546,-0.0121,0.0356,9.8054,-0.5202,0.0735,0.1411,30.1713,-7.2694,39.7079,-0.5518,-0.3698,0.0019,0.2386,-0.5103,1.6163,1.189,-0.4119,-1.1565,0.9465,-0.1528,-0.6805,-0.6036,-0.0137,-0.1233
6560,-0.1864,-0.0489,9.8146,-0.1502,0.2007,-0.5729,29.9534,-11.8468,39.7132,-1.003,-1.1226,-0.8225,-0.0668,0.7586,0.3525,-0.7257,0.0109,-0.5139,-0.0327,-0.5534,0.3428,0.4472,1.7461,0.1475
6571,0.2109,0.0943,9.6686,0.4145,-0.2706,-0.2749,30.2596,-7.6354,39.1847,0.2589,-1.3333,0.9136,-0.1436,-0.0952,-0.9642,1.0923,0.0897,0.7046,-0.5666,0.866,0.9685,-0.2613,0.5338,-1.431
6581,0.1094,-0.1222,9.8275,-0.1369,-0.3549,0.0101,30.3107,-9.9024,40.3877,0.9581,-0.7366,-1.0783,1.462,-0.0084,0.0941,0.5498,0.2812,2.2821,0.338,0.2116,0.5717,-0.4692,-0.0913,-1.4478
6592,-0.0385,0.0389,9.8488,-0.0974,-0.4669,0.5279,29.8477,-9.3371,39.6499,1.886,0.1812,-0.735,-0.5339,-1.7862,1.3595,0.0628,-0.9199,-2.3399,-0.0758,-0.9564,-0.2442,-1.8837,-0.1913,0.0066
6610,0.0623,-0.0457,9.7437,0.2279,-0.8259,-0.09,29.0922,-8.4457,39.3751,2.3398,0.4071,-0.0458,1.6969,-1.0168,-0.3067,-1.3404,2.2349,-1.3529,-0.7028,-0.6734,-0.8142,-1.3439,0.0587,-1.1315
6621,0.1934,-0.0638,9.8218,0.348,-0.0373,0.2642,29.6911,-8.6136,40.1438,-0.4893,0.196,-0.1528,1.4886,1.1855,-1.1373,-0.2531,-0.0256,-0.0317,1.3148,0.8682,0.279,2.0071,-0.2201,-0.0635
6631,0.0936,0.0391,9.9079,1.0329,0.674,0.7633,30.367,-11.1223,39.6052,0.9741,0.1259,-0.337,-0.5925,0.0678,-0.3855,1.9617,-1.0434,-0.2402,1.2684,0.258,0.3684,-0.1993,0.6021,0.1141
6643,-0.053,-0.0049,9.7983,-0.6383,-0.9037,0.3347,31.4479,-10.771,41.6529,0.5704,0.6181,-1.2025,-0.1193,-0.9183,-0.6667,-2.2606,-0.4508,0.5498,0.2361,-1.3265,-0.4669,-0.5946,-0.1272,1.5116
6654,-0.0836,-0.2705,9.7577,-0.3976,0.2646,0.2354,28.6028,-10.3265,39.932,-1.3379,-1.172,0.6888,-0.1058,-0.3408,1.2393,-0.3934,0.7629,-0.152,0.073,-0.0845,0.0228,1.0918,-0.9019,-0.9775
6665,0.0255,0.0882,9.7475,0.2766,0.2706,-0.2966,29.9173,-8.7775,40.2064,1.1244,0.4584,1.1957,0.3064,-0.787,0.1968,0.3035,0.4731,0.1151,-0.8731,2.3275,1.0416,-0.0876,-0.6086,0.9383
6675,0.005,0.0536,9.8486,0.4412,0.3905,-0.6183,30.7615,-11.4022,40.2739,0.0308,0.2975,2.296,0.0321,-0.4933,1.1061,0.3515,0.4931,0.352,-1.148,0.826,-0.1693,0.1507,-0.5633,0.5201
6692,0.0338,-0.1534,9.8322,-1.2751,0.0165,-0.0625,30.1345,-9.332,39.9663,0.2412,2.1145,-1.3966,0.6913,-0.854,0.0441,-0.2144,-0.526,-0.549,0.6274,0.6364,0.8379,0.4425,-0.06,0.0254
6702,-0.0682,0.2306,9.731,0.1112,0.6491,-0.2945,31.5361,-9.5514,40.1447,0.696,-0.0976,1.2284,-0.6152,0.5506,-1.3753,0.9944,-0.0761,0.0152,1.1993,-2.6739,-0.8366,-0.617,-0.1285,-0.3529
6713,0.0559,0.0275,9.8713,-0.8417,0.0849,0.4676,29.2778,-9.7996,38.8139,-0.7781,0.6978,-0.6429,-1.0877,0.4435,-0.6108,-0.5566,-0.6593,-0.7188,-0.4957,-0.1926,0.0365,-0.2623,-0.2081,-1.581
6734,-0.1066,-0.0742,9.8083,-0.4256,0.4544,0.46,30.3672,-7.4565,43.5049,-0.5955,1.2783,-0.1771,0.3744,-1.2237,1.3872,1.0888,-0.593,-1.2041,-0.8315,1.4088,-0.377,-0.1889,-0.7334,0.2105
6745,-0.0609,0.0544,9.7265,0.236,-0.3124,0.3218,28.5278,-10.6404,39.4145,-1.9854,0.9775,1.0368,0.7579,0.5407,0.8496,0.3945,0.4286,0.6824,-1.038,-0.0115,1.2056,-0.4554,1.3952,0.3106
6759,0.0444,-0.0368,9.8043,0.4095,-0.5456,-0.3271,31.2958,-9.7756,38.7673,0.0411,0.3007,-0.8875,0.9788,0.7423,-1.2917,0.1016,1.5926,-0.076,0.0765,-1.5055,0.445,0.1177,0.937,0.0023
6775,-0.1112,0.0944,9.8114,-0.0638,-0.0691,-0.2316,28.6202,-8.5284,39.7729,1.0863,0.5188,-0.2663,-0.176,1.9207,-1.1522,-0.1884,-0.6862,-0.3791,-0.6078,0.3508,-0.409,0.8282,0.39,-0.0371
6795,-0.0144,-0.0897,9.8458,-1.0554,0.2827,0.2112,30.1825,-9.3489,41.0083,-0.1486,1.1899,0.2319,0.2415,1.0595,-0.4256,-0.4619,-0.2686,-0.6266,0.4517,-1.2668,0.3448,0.9794,1.1279,-1.728
6806,-0.0181,-0.0977,9.8022,-0.0412,-0.173,0.6514,31.0786,-10.2141,38.846,0.4697,0.9317,-1.0959,0.2004,-1.7038,-0.7608,0.4737,0.2837,-0.5799,-0.1615,-0.2056,0.0656,0.7779,1.4046,1.1756
6818,0.0865,0.0267,9.8665,0.5672,-0.2675,0.3217,29.8193,-9.1219,39.1505,0.8881,0.1979,-0.9441,-0.3039,1.0729,-1.4688,0.8079,-2.0812,0.9891,2.0219,0.277,0.1543,0.6032,1.4874,1.0015
6828,0.1332,0.0089,9.8297,0.2004,0.1896,0.283,29.5427,-9.9383,39.2516,0.2466,2.2491,1.0001,0.3168,0.3073,0.9167,-1.299,0.0916,-1.2343,-0.0081,0.1851,-0.0768,0.794,1.2312,0.9259
6838,0.0861,-0.0412,9.7242,-1.174,0.0486,-0.2746,30.1311,-9.9676,40.0897,0.2356,0.4837,0.2697,1.7502,0.2106,0.5126,-0.1581,-0.1502,-0.0576,-1.464,-0.9744,-2.0825,1.5071,-0.3489,0.22
6849,-0.1233,0.0886,9.8105,0.7097,0.4736,-0.0748,29.9763,-7.3183,39.6713,-0.1329,-0.9635,-0.8943,1.227,0.2528,-0.4103,1.2251,-2.5683,0.4804,-2.0577,-1.0842,-0.0194,0.0906,-0.0997,1.0912
6862,0.0588,-0.0136,9.7612,-0.3584,-0.2289,0.2443,30.4475,-8.3804,39.2298,-0.5297,-1.9111,1.5005,1.4831,1.0903,-0.5051,-0.7205,0.448,0.0502,-1.2135,1.5744,0.7477,0.4334,1.0439,0.3605
6874,0.0357,-0.0782,9.864,0.2816,-0.3793,-0.2838,29.1054,-10.2742,40.4335,-1.1771,-1.949,2.3882,0.1359,0.4996,-0.6718,-0.932,-2.2213,0.2522,-0.066,-0.7102,1.0688,2.275,1.6796,-1.4039
6884,-0.0188,0.0308,9.7955,-0.5751,0.4324,-0.2817,28.0847,-9.909,39.3382,-0.1704,0.5189,-1.5292,1.1436,0.6794,-2.0434,-1.8754,0.1861,0.7473,-0.8962,-0.9837,0.082,1.7456,-0.3847,-0.1688
6896,0.0454,0.1013,9.718,0.0508,-0.642,-0.8581,31.5258,-6.1228,40.1261,0.6125,1.4932,-0.1743,-0.173,-0.2021,0.1088,-0.5903,0.195,-0.6525,-1.2528,1.327,0.5044,-0.8837,0.5073,-0.3327
6906,-0.1412,0.1927,9.8048,-0.0834,-0.56,0.7363,29.4267,-10.6544,42.4405,-0.6556,0.0884,-2.1953,1.917,-1.7924,-1.99,0.1742,-0.2828,0.2831,0.1106,0.0453,0.6699,0.8786,0.2607,-0.7622
6917,-0.0767,0.0575,9.7035,-1.0829,0.1905,0.1926,29.1297,-10.531,40.0034,-0.3951,-1.4484,0.7913,-0.3962,2.5835,0.5082,-1.1491,-0.3488,0.8274,0.7737,-0.6902,1.2818,2.0847,-0.0466,-0.8895
6927,0.0094,0.0045,9.7843,0.333,0.111,0.4494,31.2553,-10.3318,40.762,0.1639,0.1838,1.2647,0.1158,-0.2307,-1.138,-0.9503,0.6043,-1.3526,-0.6768,-0.6453,0.5313,-1.1057,-0.5647,0.1858
6938,-0.0306,0.0422,9.8819,0.2817,-0.475,0.1642,30.0029,-9.6059,39.6968,-0.3524,-0.0173,-0.6542,-0.1127,-1.1035,0.3129,0.023,-1.8038,0.0843,-0.8324,0.3667,0.7986,0.2587,0.522,-0.9541
6949,0.0827,-0.0534,9.7754,0.1579,-0.6983,0.3823,29.1006,-12.1486,39.033,0.793,-2.2321,1.1655,0.0084,1.0083,0.3618,-0.976,2.0103,-0.6039,0.0944,-0.5859,-0.5376,-1.2283,-0.0335,0.638
6959,-0.0936,-0.0292,9.7541,0.2717,-0.471,-0.1435,29.0224,-11.561,39.7247,-0.8299,-0.8332,0.5532,-0.0557,0.8549,-1.8423,-0.556,-1.2596,2.431,-0.9867,1.7564,0.0507,0.6136,0.1731,0.329
6969,-0.1622,0.1029,9.8598,-0.3997,-0.9305,0.2093,30.2372,-10.0315,40.8896,-0.9517,0.8282,-0.4083,-0.5877,-1.2981,-0.0304,0.5703,0.3722,2.4999,1.0769,-0.1319,-0.7852,0.9022,-0.1886,-0.0751
6989,-0.0555,-0.1058,9.8393,0.4841,0.2662,0.1365,30.2095,-10.1109,38.4293,0.2122,-0.9121,-0.7317,-1.5003,-0.8722,0.7533,1.2769,1.2678,0.288,-0.0556,-1.161,0.4959,0.1923,0.1944,0.6716
7000,0.162,-0.1261,9.7506,0.8451,-0.0122,-0.1785,30.2645,-8.5957,39.7014,-0.9804,1.3141,-0.4784,1.5225,2.4193,-0.9451,0.1153,1.3995,1.1886,-0.3317,-1.7283,-0.289,0.6239,2.0673,-1.4312
7011,-0.0839,0.0473,9.7603,-0.1208,-0.4567,-0.5738,29.4781,-9.399,39.4744,1.9377,0.4803,1.8284,-0.57,0.9435,-0.4398,1.3106,0.7406,-0.97,1.2893,0.2632,2.0945,0.8735,0.2666,1.3806
7022,-0.0143,-0.0958,9.8273,0.6486,0.2555,0.0516,27.8872,-11.3394,39.879,0.9966,-0.2145,-2.1548,-1.481,-1.2751,1.1812,0.2599,-0.0312,0.6964,-0.1717,0.6835,-0.7175,-1.1873,0.9492,0.0287
7041,0.0961,0.0515,9.8013,0.1249,0.0146,0.1374,30.2416,-9.7033,39.2003,-1.6707,0.1132,1.2421,0.0336,-0.6593,-2.23,-0.238,-0.0607,-0.9051,-0.3325,-0.6928,-0.2496,0.0797,-1.5175,0.2247
7052,0.0027,0.1534,9.8274,-0.2792,0.0509,-0.1793,29.4773,-11.4071,41.6785,-1.3621,1.4751,0.6939,0.2496,1.2962,1.4069,1.3229,-0.9538,-0.9419,0.1673,-0.5623,0.1036,-0.1994,-1.184,-0.5228
7065,-0.0886,0.0305,9.8328,-1.1238,0.0201,-0.5772,29.1846,-10.1752,40.415,1.2755,-0.1402,1.2068,-0.6231,-0.2034,-1.305,-0.2529,-1.3006,-1.4371,-0.4191,-0.9597,1.6544,1.1873,-0.6985,0.2201
7076,0.003,-0.0062,9.7752,-0.6235,-0.8225,0.2925,30.8469,-9.147,38.7374,0.476,-1.1462,0.9728,-0.2703,-0.224,-0.9515,0.1858,-0.211,-0.5633,-0.4308,-0.1664,-0.237,1.832,1.8346,0.959
7086,-0.0343,-0.08,9.7622,0.4287,-1.129,-0.2748,30.4908,-11.1213,39.7479,0.4134,0.7742,1.0005,0.1127,0.5215,-0.8566,-1.4026,-0.2251,0.8933,-1.0232,-1.0492,1.1839,-0.9095,-0.9028,-2.5759
7097,-0.1103,-0.0575,9.8038,1.1647,0.7145,0.5439,30.0615,-10.2188,39.385,-1.0359,0.5863,-0.7454,0.6459,0.4402,0.1575,-1.0589,-1.1227,0.4151,-0.4811,-0.6344,0.9332,0.6921,0.4138,-1.7987
7107,-0.1589,-0.0666,9.7413,-0.3149,-0.1393,-0.7838,30.6432,-10.5381,39.2459,1.8605,-0.1735,-0.0683,1.1673,-0.0643,-0.4092,1.3532,0.3907,1.2056,0.9438,-0.9322,-0.3127,-0.4732,1.157,-0.1879
7118,-0.0252,-0.0162,9.803,0.1673,0.5156,0.3561,27.9071,-9.663,39.9207,0.3648,0.8315,1.1586,0.0674,2.0486,-0.1442,-0.4673,-1.0748,-0.6951,1.164,-1.6825,1.1588,1.7168,1.0263,-0.1163
7128,0.0097,0.1773,9.7758,0.3518,0.2616,-0.2797,30.6571,-8.1452,39.8916,-0.3639,1.2345,-0.1993,-0.2018,0.8363,-2.3611,1.386,0.1635,0.5997,-0.8012,-1.6104,-0.8337,-0.7992,-0.4332,0.2988
7138,-0.1576,-0.0041,9.7516,-0.611,-0.4211,-0.0525,31.3547,-9.583,38.5836,0.0714,0.646,-0.6338,-0.0317,1.1932,-2.8004,1.7043,-0.5618,-1.2758,0.3298,-2.3921,1.9583,0.1402,0.3501,0.0935
7149,-0.155,0.1438,9.7542,0.0697,-0.0891,0.0746,30.7922,-10.31,41.1247,0.9412,0.7033,-2.4988,-2.6406,-1.182,2.0866,1.809,-1.5118,0.5314,0.4087,-0.2713,-0.1972,0.1164,1.0386,0.2344
7160,0.0007,-0.0597,9.776,0.0309,-0.5297,-0.2127,27.9552,-12.0435,38.4507,-0.1289,-0.2194,-0.7482,0.5688,-1.6733,-0.0078,2.2806,1.7303,-0.3015,1.5693,-1.464,0.4961,0.883,-0.8449,-0.1133
7172,0.006,-0.1164,9.8216,-0.0565,-0.135,0.3163,30.0752,-9.2499,39.0887,-1.2028,-0.7598,-0.4424,-0.4003,0.0485,0.3492,-0.4811,-0.6742,0.9014,-1.0641,-0.6785,-0.0833,-0.1374,1.2965,0.3667
7182,0.0154,-0.1796,9.7176,-1.1982,0.2268,-0.5767,28.7742,-9.4962,42.3995,-1.6186,-0.8806,-0.4961,0.4712,0.7928,-0.1437,-0.5064,1.3188,1.3344,-0.6473,0.255,-0.9826,1.7332,0.8172,-0.2695
7197,0.084,0.0,9.7796,0.0672,-0.2402,0.2773,29.9038,-8.4396,40.1871,-0.2475,1.2542,-1.7303,-0.5745,-0.0514,-0.8422,-0.0955,0.4771,1.0882,0.0812,1.0005,0.3232,-1.7043,-0.7994,0.8657
7208,0.0955,0.0653,9.7663,0.3059,-0.3885,0.3523,29.4686,-9.3989,42.3124,0.0086,-0.3594,1.3282,0.274,0.8408,0.5304,-0.5519,1.6208,2.88,0.3909,-1.8649,-0.5243,-0.0283,-1.1844,0.3737
7219,-0.106,-0.0001,9.7759,0.2571,-0.0417,0.0468,29.4109,-9.2361,40.7341,-0.3265,0.3105,0.2683,1.1879,0.3918,0.2226,-0.4763,2.3921,-0.5917,0.2665,0.0254,-0.001,0.2753,0.9936,-1.0148
7229,0.0202,-0.1716,9.8035,0.6687,0.6999,1.7147,29.8964,-8.4951,39.645,1.7348,-1.4621,0.2035,-0.4993,-0.7192,-1.2458,-0.2502,-0.3953,-1.5002,-0.8633,-0.0723,1.7096,0.1072,0.6501,0.7427
7241,0.1026,0.097,9.8374,0.1862,-0.2746,0.0346,30.3848,-9.702,40.0997,0.7688,-0.939,-1.0134,0.8151,-0.1401,-0.8729,0.2778,1.3654,-0.913,-0.8642,2.2392,0.2219,-0.5064,-1.1516,2.3298
7251,0.0913,-0.002,9.8209,-0.5414,0.9136,0.0635,31.1307,-9.1706,39.1117,2.0547,1.1725,-0.9098,1.1983,-2.6183,0.647,-0.7343,0.4813,0.6712,-2.1128,-0.1868,0.9492,-0.6083,-0.8014,0.0696
7262,0.0144,0.1308,9.8397,0.0921,0.6024,-0.4089,28.1938,-10.9416,39.753,1.8163,0.8168,-1.3075,0.1127,0.4072,1.1668,0.3219,-0.7164,0.203,-0.9726,-1.5318,2.0252,-1.8476,-1.2685,-1.2263
