seq,time_us,ax,ay,az,gx,gy,gz,mx,my,mz,drop_flag
0,13,0.014772472903132439,-0.012468566186726093,-1.0169626474380493,-0.2970705032348633,0.354263037443161,0.5350018739700317,29.446136474609375,-8.488752365112305,39.42876052856445,0
1,10069,0.035495128482580185,0.08687538653612137,-1.0220005512237549,-0.3479470908641815,0.2701093256473541,-0.192830428481102,30.139413833618164,-9.995553970336914,39.75813674926758,0
2,19761,0.003609389066696167,0.0029162911232560873,-0.962928056716919,0.30443090200424194,-0.8771370053291321,0.080596923828125,31.751012802124023,-10.344099044799805,40.2956657409668,0
3,30085,0.03834253177046776,-0.03782923147082329,-0.9845313429832458,0.4402950406074524,0.4840233623981476,-0.6490534543991089,29.94526481628418,-10.5762357711792,40.59903335571289,0
4,40002,0.039172492921352386,-0.04277971014380455,-0.9929858446121216,-0.6698954701423645,-0.07015671581029892,-0.02859405055642128,29.635889053344727,-10.878698348999023,39.858482360839844,0
5,49850,-0.07646983116865158,-0.03223912790417671,-0.9881823062896729,0.062295664101839066,-0.36489659547805786,0.11289263516664505,31.125600814819336,-8.65844440460205,40.1310920715332,0
6,59873,0.1216735914349556,-0.0711032822728157,-0.9897898435592651,-0.40407824516296387,-0.44916820526123047,0.12787428498268127,30.37506103515625,-11.25062084197998,39.17222213745117,0
7,69980,-0.028851468116044998,-0.02599732205271721,-1.0007412433624268,0.16292300820350647,-0.10503508895635605,-0.05062079057097435,30.43045997619629,-10.188587188720703,40.79798126220703,0
8,79888,-0.0615583173930645,-0.00025057519087567925,-1.012163519859314,-0.04265765845775604,-0.4925634264945984,-0.3886338770389557,30.79283332824707,-9.563200950622559,38.825321197509766,0
9,89821,-0.01701461151242256,-0.015196925960481167,-1.0318385362625122,-0.23396079242229462,0.18766045570373535,0.4574008285999298,30.812089920043945,-9.08120059967041,39.10114288330078,0
10,99771,0.060298703610897064,0.03016139753162861,-1.013938546180725,-0.4259147346019745,0.38357144594192505,-0.10613684356212616,29.974769592285156,-10.340713500976562,39.683837890625,0
11,109974,-0.06975340843200684,0.027854658663272858,-0.9876126050949097,-0.5165053606033325,-0.08623329550027847,0.07589054852724075,29.89373779296875,-9.62020206451416,41.95539855957031,0
12,120119,0.03161977604031563,-0.0018823224818333983,-0.9739432334899902,-0.12012330442667007,1.3093286752700806,-1.1930071115493774,29.448505401611328,-11.047321319580078,41.30662155151367,0
13,129828,-0.010398619808256626,-0.021472278982400894,-0.9928568601608276,-0.5609451532363892,0.9157466888427734,-0.3421076536178589,31.2844295501709,-11.536186218261719,39.54114532470703,0
14,140102,-0.0017487300792708993,-0.05273056775331497,-0.9816599488258362,0.060206905007362366,0.23558582365512848,0.7511348724365234,30.084064483642578,-11.377074241638184,40.15753936767578,0
15,149949,0.025937242433428764,-0.04274949058890343,-1.0028361082077026,-0.1358395665884018,-0.23325978219509125,0.2637218236923218,30.760906219482422,-11.81904411315918,41.072174072265625,0
16,159957,-0.04837211221456528,0.011856690980494022,-0.9890501499176025,-0.17214304208755493,-0.19622129201889038,-0.43699124455451965,30.609943389892578,-10.882623672485352,41.40546417236328,0
17,169931,-0.043802060186862946,0.017634373158216476,-0.985733687877655,1.0034410953521729,-0.3474977910518646,0.08735759556293488,31.073301315307617,-11.367950439453125,38.58243942260742,0
18,180059,0.0725426897406578,-0.028905576094985008,-0.9907144904136658,0.050281982868909836,0.06667871028184891,-0.14138822257518768,29.742631912231445,-9.954938888549805,40.74663162231445,0
19,190048,0.10095375031232834,0.042679786682128906,-0.9893339276313782,-0.13380025327205658,0.16535378992557526,0.37340739369392395,30.69230842590332,-9.678764343261719,40.04486846923828,0
20,200150,-0.03586627170443535,0.025210818275809288,-0.999750554561615,0.43811410665512085,0.09194562584161758,-0.4025684595108032,29.749189376831055,-9.750933647155762,39.902164459228516,0
21,210041,0.014041039161384106,0.006150665692985058,-0.9792633056640625,0.5130730867385864,0.18702125549316406,0.08762163668870926,30.560510635375977,-9.989469528198242,40.03955841064453,0
22,219839,-0.07666967064142227,0.01035880483686924,-0.9774376153945923,0.18809892237186432,-0.15215031802654266,0.5747448801994324,30.597557067871094,-9.279082298278809,39.97439193725586,0
23,229839,-0.026931848376989365,0.02919156104326248,-1.0254607200622559,-0.3014298379421234,1.1789796352386475,0.5090138912200928,29.64861488342285,-10.226027488708496,42.38694381713867,0
24,239842,-0.02632063999772072,-0.033338259905576706,-0.972298264503479,-0.010814886540174484,-0.5745170712471008,-0.10323254764080048,30.30353355407715,-10.395068168640137,37.15504455566406,0
25,250011,-0.11131821572780609,-0.14623486995697021,-0.9609775543212891,0.251457542181015,0.09446270018815994,0.17124605178833008,29.686344146728516,-10.102249145507812,40.08214569091797,0
26,259908,0.052189815789461136,-0.05450968071818352,-1.019673228263855,-0.43195870518684387,-0.005451804026961327,0.0645303800702095,29.10431480407715,-11.510896682739258,40.711936950683594,0
27,269867,-0.0024413580540567636,-0.008166201412677765,-1.0258303880691528,-0.25986990332603455,-0.42261651158332825,0.22426065802574158,30.59518814086914,-9.879064559936523,40.756202697753906,0
28,280059,0.09271389991044998,-0.023781128227710724,-0.9690569043159485,-0.2502138018608093,0.1915622502565384,-0.47411537170410156,29.761337280273438,-8.571988105773926,41.09672164916992,0
29,290031,0.02449149824678898,0.07728496938943863,-1.0178147554397583,-0.5885124802589417,-1.1377812623977661,-0.14279185235500336,29.35515594482422,-10.478978157043457,42.022212982177734,0
30,300040,-0.043965764343738556,-0.027126237750053406,-0.9842467308044434,0.5857623815536499,0.056346531957387924,-0.06716734915971756,29.296524047851562,-8.35568618774414,39.79902267456055,0
31,310230,0.06448067724704742,-0.020202428102493286,-0.9570584297180176,0.1311749815940857,-0.2346310168504715,0.17226506769657135,30.894189834594727,-9.452081680297852,39.55702590942383,0
32,320005,0.03307060897350311,-0.011770491488277912,-1.00271475315094,-1.1583514213562012,0.4753865897655487,0.18225960433483124,30.276979446411133,-10.38459300994873,41.38462829589844,0
33,330019,0.06427043676376343,-0.013242385350167751,-0.9959575533866882,-0.7164510488510132,0.1328522264957428,0.05489155650138855,28.7274227142334,-10.654460906982422,39.671443939208984,0
34,339889,0.03708317130804062,0.07366184890270233,-0.9910568594932556,-0.5451586842536926,0.4217020571231842,0.12293542176485062,30.288787841796875,-12.09469223022461,38.131744384765625,0
35,349880,0.05886075645685196,0.023252621293067932,-1.0349217653274536,-0.5261514782905579,-0.40382739901542664,0.35599225759506226,28.87730598449707,-8.318787574768066,38.64030456542969,0
36,359920,-0.11906890571117401,0.009373650886118412,-1.0203325748443604,-0.2852660119533539,-0.05140034481883049,-0.12756910920143127,32.71754455566406,-9.184847831726074,41.02490234375,0
37,369900,-0.007951552048325539,-0.004026418551802635,-0.9741045236587524,-0.4017401337623596,0.4908891022205353,0.9618088603019714,28.480783462524414,-8.983099937438965,38.97117614746094,0
38,379885,0.11037877947092056,0.05393256992101669,-0.9854738116264343,-0.007209965959191322,-0.3304440379142761,-0.39745602011680603,30.608125686645508,-8.98361873626709,38.61459732055664,0
39,389868,0.014496177434921265,-0.12138041853904724,-1.018200159072876,0.3394354283809662,0.4963263273239136,-0.31406986713409424,29.959157943725586,-11.627867698669434,38.40208435058594,0
40,400027,0.030852947384119034,-0.02823173999786377,-0.9776211977005005,0.02465437538921833,-0.8498212099075317,0.42878884077072144,31.439979553222656,-11.86105728149414,40.21886444091797,0
41,410045,0.014159918762743473,-0.01629876159131527,-0.9859256148338318,-1.111419677734375,-0.8487294316291809,0.7047781944274902,29.031408309936523,-9.907965660095215,38.84880828857422,0
42,420216,-0.004512084648013115,-0.04522322118282318,-1.022692322731018,-0.5563079714775085,-0.5174833536148071,0.2626069486141205,32.09076690673828,-8.77289867401123,40.92866897583008,0
43,429888,-0.0309586301445961,-0.03454429656267166,-0.9722124338150024,0.05502201244235039,-0.49154382944107056,0.02457427605986595,30.205116271972656,-9.285311698913574,40.380367279052734,0
44,439922,0.011966015212237835,-0.037218209356069565,-0.9824697971343994,-0.5385427474975586,0.1647263467311859,0.4670983552932739,30.424524307250977,-9.703426361083984,39.52336502075195,0
45,449995,0.032636672258377075,-0.0860227569937706,-1.0162427425384521,0.2011127769947052,-0.2950466275215149,-0.714526891708374,30.113666534423828,-7.701476573944092,40.66059112548828,0
46,459783,0.09549863636493683,0.009649479761719704,-0.9946998357772827,0.3400131165981293,-0.4432017207145691,-0.18436940014362335,30.086414337158203,-8.857772827148438,38.70741653442383,0
47,469906,0.06829182803630829,0.0034227233845740557,-1.0057183504104614,-0.7473220229148865,0.14541588723659515,0.4699309170246124,28.484949111938477,-9.654997825622559,39.87075424194336,0
48,480095,0.021027658134698868,-0.03391442820429802,-0.9649717807769775,-0.7008134126663208,0.5516509413719177,0.2202426940202713,30.2768497467041,-8.786369323730469,38.71354675292969,0
49,489974,-0.13785476982593536,0.020752113312482834,-1.0006166696548462,0.383609414100647,0.7502526640892029,-0.2646501362323761,29.09877586364746,-9.633406639099121,39.580997467041016,0
50,499872,-0.02483215369284153,-0.033504877239465714,-1.0268441438674927,-0.29826095700263977,-0.1805761158466339,0.09866224229335785,28.994213104248047,-11.544944763183594,39.64337158203125,0
51,509894,-0.013597456738352776,0.007791698910295963,-1.0036605596542358,0.15759103000164032,0.7810417413711548,0.10935510694980621,29.52566909790039,-8.833802223205566,41.093082427978516,0
52,520059,0.03240833058953285,-0.01070539653301239,-0.987747073173523,0.1714206337928772,0.3896781802177429,0.4897560477256775,31.070154190063477,-10.826014518737793,41.262962341308594,0
53,530086,0.039416514337062836,-0.030355483293533325,-0.9753372669219971,0.039371274411678314,-0.2071516513824463,0.003160095540806651,31.221134185791016,-10.514657974243164,38.901954650878906,0
54,539802,0.026769058778882027,0.04559263959527016,-0.9718977212905884,0.30681726336479187,0.19010721147060394,-0.3894599974155426,29.829294204711914,-9.008602142333984,39.568153381347656,0
55,549897,-0.04019729420542717,-0.011505020782351494,-0.9836133718490601,0.7766438722610474,-0.9278993010520935,0.7427422404289246,30.761045455932617,-9.14757251739502,40.00703048706055,0
56,559963,0.008398291654884815,-0.025050697848200798,-0.9925719499588013,-0.041329365223646164,-0.14175620675086975,0.38093316555023193,29.189790725708008,-9.927338600158691,40.052330017089844,0
57,569952,-0.048210110515356064,0.053265295922756195,-0.9933658838272095,-0.08740002661943436,-0.39818015694618225,0.8887639045715332,28.305814743041992,-10.288947105407715,42.37602615356445,0
58,579980,-0.04087643697857857,0.06880413740873337,-0.9722280502319336,0.46960049867630005,0.566102147102356,-0.3704966604709625,30.734333038330078,-8.564593315124512,40.27663040161133,0
59,590031,0.015682360157370567,0.0882919654250145,-0.9943338632583618,-0.17388257384300232,-0.37030673027038574,0.11653292179107666,29.270767211914062,-14.10047435760498,40.848323822021484,0
60,600158,0.02736538276076317,0.02733694761991501,-0.987644612789154,-0.1925535947084427,0.062033962458372116,0.12934349477291107,27.400197982788086,-12.884552955627441,38.88688278198242,0
61,609971,0.023564016446471214,-0.01825176365673542,-1.0213381052017212,0.7002634406089783,0.5511161088943481,0.5959084630012512,29.11199378967285,-11.456765174865723,39.501434326171875,0
62,620039,-0.025205036625266075,-0.016807569190859795,-0.9789453148841858,0.3236287832260132,-0.7442120313644409,-0.11288914829492569,31.44344139099121,-9.00314712524414,40.83253479003906,0
63,630007,-0.004256737418472767,-0.0032704242039471865,-1.0101888179779053,0.7253236770629883,-0.644031822681427,-0.9845134615898132,31.82129669189453,-9.71731185913086,39.45229721069336,0
64,640041,-0.003124791430309415,-0.04602732136845589,-0.999627947807312,0.6697292923927307,-0.47431185841560364,-0.10660253465175629,28.56654930114746,-9.221504211425781,41.042137145996094,0
65,650316,-0.057417210191488266,-0.003392308484762907,-1.0105516910552979,-0.6833421587944031,-0.036709487438201904,-0.21963469684123993,29.343503952026367,-10.961430549621582,40.84720230102539,0
66,659995,-0.026752227917313576,-0.010490357875823975,-1.01503324508667,-0.34739792346954346,1.232541799545288,0.08536990731954575,31.895116806030273,-10.401728630065918,39.057151794433594,0
67,669951,0.01814335025846958,-0.08359474688768387,-1.0097602605819702,0.2945680022239685,-0.04427069425582886,0.26829850673675537,30.70925521850586,-11.123207092285156,40.13252258300781,0
68,679754,-0.08208116143941879,0.04884503036737442,-0.9958705902099609,-0.7134798765182495,0.1635776311159134,-0.6989360451698303,28.991628646850586,-9.433309555053711,41.52513885498047,0
69,690047,0.007774414494633675,0.10576262325048447,-1.007002592086792,0.27885130047798157,-0.1987522542476654,0.8117197155952454,29.343555450439453,-9.695001602172852,39.91658401489258,0
70,699992,0.027068596333265305,-0.03635646775364876,-0.9649869799613953,-0.28628769516944885,0.4488021731376648,0.8464632034301758,30.38682746887207,-8.452115058898926,41.09813690185547,0
71,709483,-0.019884314388036728,-0.04193580523133278,-1.0277338027954102,-0.17377479374408722,0.40754443407058716,-0.7452412843704224,29.16162872314453,-9.312092781066895,39.146392822265625,0
72,719882,0.03626170754432678,0.09642379730939865,-0.9800686836242676,-0.35840433835983276,-0.42368727922439575,0.4264671504497528,28.76250648498535,-11.317919731140137,41.84497833251953,0
73,729835,0.00897616520524025,0.04819122329354286,-1.0278164148330688,-0.22868146002292633,-0.09802711755037308,-0.35189422965049744,29.263656616210938,-9.218245506286621,42.33224105834961,0
74,740043,-0.043505385518074036,-0.07147886604070663,-1.0214401483535767,0.48464861512184143,0.3261171579360962,-0.3567206561565399,28.878334045410156,-10.168499946594238,40.35811233520508,0
75,749900,0.1308271437883377,-0.09817221015691757,-0.9902210831642151,-0.8028022050857544,0.4800436496734619,-0.27029576897621155,30.094009399414062,-11.03342056274414,39.3978271484375,0
76,759891,-0.03393692895770073,-0.023190677165985107,-0.9933245778083801,-0.011741754598915577,-0.4009084403514862,0.8385980725288391,32.10029983520508,-7.6314520835876465,37.238250732421875,0
77,770018,-0.04379419982433319,0.03418227657675743,-0.9860572218894958,0.13686314225196838,-0.4473790228366852,-0.5004509687423706,30.275087356567383,-8.550045013427734,39.5442008972168,0
78,779990,-0.06450048834085464,0.0011293893912807107,-0.9997313022613525,0.16619691252708435,0.11330628395080566,-0.050998955965042114,29.685991287231445,-11.268720626831055,40.08432388305664,0
79,790179,0.031139478087425232,-0.010341777466237545,-1.0157396793365479,0.04460359737277031,0.016048183664679527,0.261724591255188,29.839582443237305,-9.492121696472168,40.03015899658203,0
80,800125,0.09477804601192474,-0.008500474505126476,-1.0146708488464355,-0.00413689436390996,0.08949210494756699,0.26455771923065186,29.987106323242188,-10.808526039123535,39.82758712768555,0
81,810049,-0.01388622634112835,-0.0663968101143837,-1.0152336359024048,0.15878868103027344,0.41730836033821106,0.15824514627456665,30.13250732421875,-9.978263854980469,38.3499755859375,0
82,819961,-0.007592149078845978,0.017360305413603783,-1.0340811014175415,0.0017297755694016814,-0.4599260091781616,0.6798851490020752,30.39360809326172,-9.374120712280273,41.24285125732422,0
83,829984,0.09447348862886429,-0.025027520954608917,-0.994902491569519,0.19670316576957703,-0.26336565613746643,0.09891137480735779,29.723039627075195,-10.235584259033203,39.21726608276367,0
84,839899,-0.007813754491508007,0.00044801796320825815,-0.9976884126663208,0.28793424367904663,-0.42202016711235046,0.20226889848709106,30.74616241455078,-9.452873229980469,39.71506881713867,0
85,849857,0.040378816425800323,0.031753912568092346,-1.0330356359481812,-0.1501236855983734,-0.020810473710298538,-0.3170798718929291,29.89434051513672,-10.34842586517334,39.24038314819336,0
86,860125,0.008051961660385132,0.07958830147981644,-1.0014101266860962,-0.7186542749404907,0.2240852564573288,-0.28652721643447876,29.097299575805664,-11.180331230163574,40.3242073059082,0
87,870282,0.0017952071502804756,0.012395640835165977,-1.000215768814087,-0.4994477927684784,-0.4975629448890686,-0.06566743552684784,29.746366500854492,-10.229117393493652,39.81285095214844,0
88,879932,-0.020882219076156616,0.08938711136579514,-1.0326694250106812,-0.405189573764801,-0.192816361784935,0.4305539131164551,29.884010314941406,-10.823861122131348,40.8128547668457,0
89,890048,0.004142853431403637,0.0265144445002079,-1.0148504972457886,-0.6203243732452393,-0.20594003796577454,-0.041504763066768646,28.78143310546875,-9.35470962524414,39.22066116333008,0
90,899827,-0.0017747203819453716,0.005617301445454359,-0.9950401186943054,-0.041346050798892975,-0.5416821241378784,-0.834929883480072,29.062170028686523,-10.771502494812012,40.01045608520508,0
91,910148,-0.010303896851837635,0.016884546726942062,-0.9819203019142151,-0.18111614882946014,-0.3627298176288605,-0.1759393960237503,30.406028747558594,-8.722187042236328,42.552066802978516,0
92,919994,-0.04541375860571861,0.057560525834560394,-0.981991708278656,-0.1308910995721817,-0.0769432857632637,-0.28847575187683105,29.604631423950195,-9.50987720489502,40.08407211303711,0
93,929967,-0.0010677153477445245,0.0612197145819664,-1.0183848142623901,0.02065329998731613,-0.7519051432609558,0.465884268283844,31.53851890563965,-8.981335639953613,39.61151123046875,0
94,939928,-0.008062259294092655,-0.007839888334274292,-1.0348950624465942,-0.9596433043479919,-0.36845239996910095,0.6426951289176941,30.064992904663086,-10.830714225769043,41.411888122558594,0
95,950217,0.0046034022234380245,-0.012162074446678162,-0.9788630604743958,-1.4496757984161377,-0.5955050587654114,0.0316280722618103,28.21082878112793,-12.34188461303711,40.58940124511719,0
96,960424,-0.007747925352305174,-0.1379554122686386,-1.036482572555542,-0.25528407096862793,-0.22795163094997406,0.15402817726135254,29.355587005615234,-10.694931030273438,40.457611083984375,0
97,969960,-0.025219164788722992,0.04113367199897766,-0.9716058969497681,-0.4193362891674042,0.8930891752243042,-0.3502362370491028,31.016950607299805,-10.161576271057129,40.364288330078125,0
98,979840,0.019275426864624023,0.029511667788028717,-0.9986593723297119,-0.027083085849881172,1.034568190574646,-0.35442304611206055,29.848817825317383,-10.635815620422363,40.404361724853516,0
99,989951,-0.004343935288488865,-0.06113559007644653,-1.0003092288970947,0.03494685888290405,0.5795727968215942,-0.11911077797412872,30.418529510498047,-10.854754447937012,39.75865936279297,0
100,999964,-0.06541500240564346,0.05189710855484009,-1.0192493200302124,-0.4656905233860016,-0.7982422709465027,-1.3319908380508423,30.725357055664062,-9.409740447998047,39.09062576293945,0
101,1010007,-0.03026495687663555,-0.040674880146980286,-1.0465612411499023,-0.02716672606766224,0.06010071560740471,0.10495249927043915,30.145448684692383,-10.131570816040039,39.58514404296875,0
102,1019923,-0.03690700978040695,-0.054783180356025696,-0.9400969743728638,-0.44121453166007996,0.19840063154697418,-0.15988895297050476,28.63064956665039,-9.243128776550293,39.43645095825195,0
103,1030048,0.04107271134853363,0.01704399287700653,-1.0013560056686401,1.0046002864837646,0.029634812846779823,0.7286182641983032,29.475954055786133,-8.210424423217773,40.13771057128906,0
104,1039838,-0.07199633121490479,0.014075234532356262,-1.0260050296783447,0.7727085947990417,-0.47976788878440857,0.7358835935592651,29.08686065673828,-10.899210929870605,39.3492546081543,0
105,1049742,0.020680272951722145,0.03870411217212677,-1.0006742477416992,0.164260596036911,-1.192699909210205,0.42337021231651306,31.01303482055664,-10.806697845458984,38.95722579956055,0
106,1060075,0.10022052377462387,0.08233662694692612,-1.009401559829712,0.002471289364621043,0.12700334191322327,-0.9231405258178711,28.612144470214844,-10.019761085510254,38.3447151184082,0
107,1070130,0.00567235192283988,0.01771601289510727,-1.0118558406829834,0.27839842438697815,0.23993590474128723,-0.19768813252449036,29.376794815063477,-10.651510238647461,39.80153274536133,0
108,1080117,-0.021457694470882416,-0.008078299462795258,-0.9790497422218323,0.4466414749622345,-0.07625263929367065,-0.2919244170188904,30.59907341003418,-9.219027519226074,39.09172058105469,0
109,1090126,0.004662659019231796,0.07761256396770477,-0.9987139701843262,-0.21329079568386078,0.3126213252544403,-0.15969742834568024,29.648469924926758,-8.602017402648926,39.049747467041016,0
110,1100027,0.07343409955501556,0.06389138102531433,-1.0015236139297485,-0.4987396001815796,-1.2932815551757812,0.33276355266571045,29.422420501708984,-10.399934768676758,40.535118103027344,0
111,1110164,0.06291928142309189,-0.005890903994441032,-1.0088932514190674,0.016895189881324768,0.11281146109104156,0.55755615234375,30.096729278564453,-10.701363563537598,40.42010498046875,0
112,1119957,-0.002374795963987708,-0.09031597524881363,-1.0193504095077515,0.8986164927482605,0.531512975692749,-0.285565584897995,32.23114776611328,-9.156722068786621,39.97157669067383,0
113,1130102,-0.048352811485528946,-0.0017986750463023782,-1.0222700834274292,-0.5925373435020447,-0.4802464544773102,0.42701247334480286,30.10082244873047,-10.20681095123291,40.73165512084961,0
114,1140072,0.06073871999979019,0.029433976858854294,-0.9795767664909363,-0.06580159813165665,-0.7619181275367737,0.10455888509750366,28.733367919921875,-11.719833374023438,39.474246978759766,0
115,1149948,-0.029727159067988396,-0.04216659069061279,-0.9460465908050537,-0.2807154357433319,-0.4288255572319031,0.11102209240198135,31.09150505065918,-9.787735939025879,40.31725311279297,0
116,1159919,0.0007082339143380523,0.049647893756628036,-1.0028612613677979,0.6378928422927856,-0.07009777426719666,0.17604154348373413,30.579832077026367,-11.181475639343262,39.80830764770508,0
117,1169917,-0.034626543521881104,0.007473174948245287,-0.9940239191055298,-0.178466796875,0.18366628885269165,0.42768701910972595,30.037431716918945,-9.024633407592773,38.7830924987793,0
118,1180123,0.12321969121694565,-0.042686592787504196,-0.9956872463226318,0.8848105072975159,-0.4500937759876251,0.39099282026290894,28.22869300842285,-11.006144523620605,40.47492980957031,0
119,1190009,-0.05696367472410202,-0.04603441059589386,-0.9954198598861694,-0.4478711783885956,0.214111790060997,-0.47573959827423096,29.48006820678711,-10.862196922302246,40.61945343017578,0
120,1199738,-0.004112222231924534,-0.06913245469331741,-1.0223002433776855,0.12309423834085464,-0.6035060286521912,-0.6559135913848877,29.865772247314453,-8.26195240020752,40.893882751464844,0
121,1209757,0.0225830040872097,-0.0485185869038105,-0.9831641316413879,-0.16945596039295197,-0.3590162396430969,0.5661147832870483,31.422372817993164,-12.670774459838867,39.636722564697266,0
122,1219986,-0.017673272639513016,-0.05349056050181389,-0.9951570630073547,-0.8056910634040833,-0.6709611415863037,0.07670148462057114,31.857698440551758,-10.121066093444824,39.236351013183594,0
123,1229949,0.07092048972845078,0.011586207896471024,-0.9814894795417786,0.5833306908607483,0.5452134609222412,0.312043160200119,29.51525115966797,-9.651508331298828,40.721065521240234,0
124,1240027,-0.04083474352955818,-0.015165628865361214,-0.9631342887878418,0.06357423216104507,0.14605025947093964,0.22737421095371246,29.05268096923828,-9.50951099395752,40.0360107421875,0
125,1250083,-0.05947694927453995,-0.05165950581431389,-1.0046825408935547,0.2475121021270752,0.4732859432697296,0.013407271355390549,30.153648376464844,-10.93686580657959,40.70875549316406,0
126,1259787,0.020139293745160103,-0.10789373517036438,-0.9728109240531921,0.1409130096435547,-0.06657707691192627,0.5439222455024719,30.213096618652344,-11.110342025756836,40.593017578125,0
127,1269838,-0.0015727736754342914,0.01875320076942444,-0.9868479371070862,0.15285494923591614,-0.19786134362220764,-0.16486971080303192,28.272645950317383,-9.6795654296875,39.29006576538086,0
128,1279873,0.03518599271774292,-0.046770963817834854,-0.9934006333351135,-0.6048311591148376,-0.007278235629200935,1.214701533317566,28.84090805053711,-8.96553897857666,37.34132766723633,0
129,1290304,0.013825559988617897,-0.03310909494757652,-0.9855386018753052,0.27134430408477783,-0.7456836700439453,-0.375178724527359,30.121591567993164,-11.477608680725098,39.41962432861328,0
130,1299873,-0.03356090560555458,0.018274206668138504,-1.014109492301941,0.2724774181842804,-0.6079147458076477,0.23061503469944,28.854022979736328,-11.903526306152344,41.57783508300781,0
131,1309969,-0.048181209713220596,-0.07204990088939667,-1.0078665018081665,0.41078367829322815,0.017859438434243202,-0.1515292078256607,29.212051391601562,-10.621052742004395,41.43851852416992,0
132,1319860,0.04326770827174187,0.037215035408735275,-1.0050272941589355,0.22702254354953766,0.58892822265625,-0.830754280090332,29.829336166381836,-8.909862518310547,39.51686096191406,0
133,1329832,0.0042834351770579815,0.07829467952251434,-1.0175776481628418,0.838284969329834,0.5350876450538635,-0.743543267250061,30.065837860107422,-9.919780731201172,41.30868911743164,0
134,1339929,-0.05132962763309479,-0.004984482657164335,-1.0208661556243896,0.3585018217563629,-1.1423873901367188,0.2468978613615036,30.114269256591797,-9.455709457397461,40.78853988647461,0
135,1350087,-0.05300578847527504,-0.0027963477186858654,-1.01015043258667,0.054560787975788116,0.4802401065826416,0.5391782522201538,31.273035049438477,-11.380574226379395,39.45586395263672,0
136,1360035,-0.013525561429560184,-0.06827258318662643,-0.9917008876800537,0.5215263962745667,0.38192054629325867,-0.3563458025455475,30.24931526184082,-9.896260261535645,39.33517837524414,0
137,1369892,0.021840544417500496,-0.04026833176612854,-1.0339701175689697,-0.14359836280345917,0.6650117635726929,0.014586742967367172,30.950077056884766,-10.006499290466309,38.124881744384766,0
138,1380104,-0.047573111951351166,-0.047351766377687454,-0.9820181131362915,-0.46024152636528015,0.25754067301750183,-0.01898699626326561,28.76651954650879,-11.593517303466797,39.79270935058594,0
139,1390125,-0.01510878000408411,0.006742296274751425,-0.960430383682251,-0.34586867690086365,0.5703971982002258,0.05397011712193489,29.897125244140625,-10.470574378967285,38.56840133666992,0
140,1399754,-0.029036810621619225,-0.05288756638765335,-1.0192259550094604,0.06716828793287277,-0.16455352306365967,-0.3115970492362976,27.69035530090332,-10.345573425292969,41.06390380859375,0
141,1409778,-0.011050209403038025,0.0263222623616457,-1.000519871711731,0.16977667808532715,-0.7263619899749756,0.8304662108421326,29.632949829101562,-10.80748462677002,39.687042236328125,0
142,1419816,-0.034466274082660675,-0.080547995865345,-0.9702279567718506,-0.28064194321632385,0.6389995813369751,-0.48439353704452515,30.834484100341797,-9.335301399230957,38.810333251953125,0
143,1429943,-0.014940591529011726,0.08643564581871033,-1.01204252243042,-0.8806989192962646,0.2944958209991455,0.6970858573913574,30.016094207763672,-9.018352508544922,42.49370574951172,0
144,1440018,-0.017749594524502754,0.05726022273302078,-1.0024781227111816,0.9180436730384827,0.23480649292469025,0.06868331134319305,30.130451202392578,-9.798497200012207,40.00940704345703,0
145,1450208,0.03937876224517822,0.016221463680267334,-1.0116230249404907,-0.5831136107444763,-0.41172292828559875,0.15659549832344055,30.2416934967041,-8.909736633300781,40.028865814208984,0
146,1460043,-0.031144987791776657,-0.05830239877104759,-0.9918240308761597,-0.20415185391902924,0.12723511457443237,0.6664820313453674,29.168163299560547,-9.839885711669922,40.699134826660156,0
147,1470061,0.10244326293468475,0.03057541884481907,-1.004363775253296,-0.3447793424129486,-0.04056974872946739,-0.7941998243331909,30.33675765991211,-8.923518180847168,39.05732727050781,0
148,1479858,0.0019684149883687496,-0.023130429908633232,-1.0300201177597046,0.18439750373363495,-0.19669094681739807,0.5460155606269836,30.93836212158203,-9.791777610778809,42.378807067871094,0
149,1490150,0.007648893166333437,-0.03689891844987869,-0.9775618314743042,0.05729031562805176,0.9586114287376404,-0.14333246648311615,30.46399688720703,-10.23617935180664,38.56068420410156,0
150,1499636,0.006288412492722273,0.06907275319099426,-0.9484102725982666,-0.04133754223585129,-0.04929233342409134,0.2517567276954651,29.422286987304688,-10.887425422668457,40.041343688964844,0
151,1509951,-0.050437647849321365,-0.04047933220863342,-0.9928719997406006,0.20713378489017487,-0.3968207836151123,-0.5467796921730042,29.298431396484375,-13.411548614501953,39.2528190612793,0
152,1519884,0.02460007183253765,0.018578480929136276,-1.0093095302581787,-0.10877012461423874,0.10460121184587479,-0.2714662551879883,29.635154724121094,-10.406875610351562,40.32327651977539,0
153,1530060,-0.013015042059123516,-0.012954549863934517,-1.0049442052841187,-0.15090243518352509,-0.4634742736816406,-0.2902320623397827,30.029754638671875,-11.337156295776367,39.819374084472656,0
154,1539958,0.020722024142742157,-0.13656382262706757,-0.9820979237556458,-0.9712184071540833,0.3496343791484833,0.18823988735675812,30.988853454589844,-9.246258735656738,36.9030647277832,0
155,1550174,0.020905958488583565,0.04981016367673874,-0.9957189559936523,0.6415027379989624,0.17695005238056183,0.060326218605041504,30.89720916748047,-8.380195617675781,40.5811767578125,0
156,1560086,-0.03224281221628189,-0.0009038109565153718,-0.9977390170097351,-0.6039290428161621,-0.7948728203773499,-0.2918463945388794,29.727163314819336,-10.149608612060547,39.63666534423828,0
157,1570195,0.015576407313346863,-0.04088587686419487,-0.9894705414772034,-0.28066086769104004,-0.09672018885612488,0.6945088505744934,27.81793212890625,-9.970157623291016,41.12611389160156,0
158,1580022,-0.10207585990428925,-0.002234794432297349,-1.0089706182479858,-0.047436460852622986,0.23480215668678284,0.7709172964096069,30.928550720214844,-9.765676498413086,40.407859802246094,0
159,1589838,0.06629380583763123,0.019896743819117546,-0.988240659236908,0.14720195531845093,-0.8368119597434998,-0.6922310590744019,30.132579803466797,-11.963249206542969,38.91851806640625,0
160,1599987,-0.0479065477848053,-0.008314237929880619,-1.0027344226837158,-0.36347854137420654,-0.35580509901046753,0.2602207362651825,31.062788009643555,-11.665767669677734,41.08411407470703,0
161,1609968,0.059730060398578644,-0.002727460116147995,-1.007588267326355,-0.3299304246902466,-0.1330680400133133,-0.00433332659304142,29.804887771606445,-9.993783950805664,38.14809036254883,0
162,1619898,-0.010734880343079567,0.054796747863292694,-0.9726312160491943,-0.12070119380950928,-0.15545661747455597,-0.6964059472084045,29.8007869720459,-7.538212299346924,38.29261016845703,0
163,1630045,0.0744355246424675,-0.03754168748855591,-0.9808637499809265,0.33443892002105713,0.5341880321502686,-0.30255889892578125,29.890365600585938,-10.963018417358398,39.86090850830078,0
164,1640107,0.011077567003667355,0.056287989020347595,-1.0049593448638916,-0.11060374230146408,-0.6365731358528137,0.05065857246518135,30.586410522460938,-9.017184257507324,41.86294174194336,0
165,1649995,-0.010657079517841339,0.027226664125919342,-1.0189111232757568,0.3200167417526245,0.25745850801467896,-0.6628868579864502,32.57269287109375,-9.967164039611816,38.701168060302734,0
166,1659751,-0.04716337099671364,-0.0022654521744698286,-0.9771000742912292,0.055317070335149765,0.31912925839424133,-0.04631614685058594,30.83421516418457,-9.021248817443848,40.33095932006836,0
167,1670101,-0.03105946257710457,0.00612597307190299,-1.0257561206817627,-0.2801915109157562,0.6297827959060669,-0.2298002690076828,30.91947364807129,-11.589677810668945,40.36770248413086,0
168,1680083,-0.018045764416456223,0.035953156650066376,-1.0137022733688354,-0.6778696775436401,-0.10197623819112778,0.5008037090301514,30.40751075744629,-10.461864471435547,38.81858825683594,0
169,1690068,0.021132608875632286,-0.07097907364368439,-0.9983681440353394,-0.35297465324401855,-0.40588322281837463,-0.7808510065078735,31.21823501586914,-11.142744064331055,38.83818817138672,0
170,1700444,0.025590520352125168,0.12063269317150116,-0.9975624084472656,0.17142754793167114,-0.12465483695268631,-0.2789708375930786,30.61766815185547,-10.256978988647461,38.58416748046875,0
171,1710153,-0.054595697671175,-0.09900476038455963,-0.9812615513801575,-0.577263355255127,0.11453834921121597,-0.30273526906967163,28.875844955444336,-8.62128734588623,38.168983459472656,0
172,1719924,-0.07774262875318527,-0.057291630655527115,-0.995785653591156,-0.03898630291223526,0.08274722099304199,-0.42010849714279175,28.974712371826172,-9.116135597229004,38.96198272705078,0
173,1730253,-0.01924414187669754,-0.01261354610323906,-0.9875819683074951,-0.22007262706756592,0.24904923141002655,-0.4326145648956299,31.41442108154297,-11.5086088180542,41.32359313964844,0
174,1740229,0.06982433050870895,0.04259486496448517,-0.9956222176551819,-0.7493952512741089,0.13070695102214813,-0.22041596472263336,30.464202880859375,-10.182374000549316,40.309051513671875,0
175,1749925,-0.013725866563618183,0.06045650690793991,-0.9770948886871338,0.034656353294849396,0.38348397612571716,-0.5281686186790466,31.71320915222168,-9.829302787780762,38.098941802978516,0
176,1759975,-0.0041414895094931126,0.08125604689121246,-1.0071293115615845,0.20563575625419617,0.241754949092865,-1.1533948183059692,30.815927505493164,-10.005864143371582,38.60563659667969,0
177,1770226,-0.07379484176635742,0.07631009072065353,-1.0000584125518799,-0.21887297928333282,-0.33951371908187866,-0.607449471950531,29.999757766723633,-12.044416427612305,41.155601501464844,0
178,1779994,-0.06713775545358658,-0.027505049481987953,-0.9967801570892334,-0.47286057472229004,0.05897873267531395,-0.7936508059501648,29.507347106933594,-8.154996871948242,40.06166458129883,0
179,1790147,0.0017835027538239956,-0.026687169447541237,-0.9592999219894409,0.18186838924884796,0.26183512806892395,-0.39218083024024963,31.62830924987793,-8.197916984558105,39.86888122558594,0
180,1800025,0.04655240848660469,0.10146467387676239,-1.0008167028427124,-0.5856163501739502,1.224204659461975,-0.5170204043388367,31.24306297302246,-7.872182369232178,40.85054016113281,0
181,1809943,0.02597874589264393,0.007864371873438358,-1.0259095430374146,0.27008187770843506,-0.06591559201478958,-0.015971392393112183,29.018022537231445,-10.17251205444336,38.43040466308594,0
182,1820139,-0.04986995831131935,-0.007351781241595745,-0.9999608397483826,0.5284149050712585,-0.6680499315261841,0.9707686901092529,30.277904510498047,-10.805166244506836,39.134647369384766,0
183,1830159,-0.03035557270050049,0.040075354278087616,-0.9542874097824097,-0.15229472517967224,-0.5728105902671814,0.37522149085998535,32.18834686279297,-8.239375114440918,40.419639587402344,0
184,1839986,0.016489308327436447,0.05559738352894783,-0.9680824279785156,0.6035237908363342,-0.12011647969484329,0.004587370902299881,30.617942810058594,-10.168745040893555,41.134193420410156,0
185,1850070,0.0003055985434912145,-0.023672310635447502,-0.9970554709434509,-0.510108232498169,0.4291239380836487,-0.11859169602394104,30.31004524230957,-9.524866104125977,41.568634033203125,0
186,1860245,-0.05558745935559273,0.012987724505364895,-0.9845491051673889,-0.39644360542297363,0.5094230771064758,-0.35227158665657043,29.917444229125977,-9.648650169372559,40.42683410644531,0
187,1870092,0.047256823629140854,-0.02011529542505741,-0.9830483794212341,0.09775499999523163,0.28687265515327454,-0.13337339460849762,29.854717254638672,-9.577336311340332,40.909881591796875,0
188,1880251,0.050731200724840164,-0.019599858671426773,-1.0383139848709106,1.0089772939682007,0.07048428058624268,-0.22295793890953064,29.98232650756836,-8.476615905761719,37.22563552856445,0
189,1889975,-0.016035232692956924,-0.09351645410060883,-1.0027581453323364,-0.11564258486032486,0.5645671486854553,-0.034509532153606415,29.80124855041504,-9.83935546875,39.14345169067383,0
190,1899893,-0.05613383650779724,-0.09182214736938477,-0.9934175610542297,-0.03847069665789604,0.20135349035263062,-0.08667466044425964,31.78417205810547,-10.820024490356445,39.89045333862305,0
191,1909894,-0.02296907640993595,0.04133467376232147,-0.9920594692230225,-0.5259925723075867,0.17180946469306946,0.8005064725875854,31.046314239501953,-7.917171001434326,42.025726318359375,0
192,1919951,0.02088756673038006,0.019821252673864365,-1.0339101552963257,0.755483090877533,0.8263678550720215,-0.8950487375259399,28.518125534057617,-8.69135570526123,38.741458892822266,0
193,1930019,-0.020789150148630142,-0.0746922418475151,-1.0095452070236206,-0.15912269055843353,-0.5341120362281799,0.15745019912719727,30.8426456451416,-10.967832565307617,39.387386322021484,0
194,1939726,-0.002463629236444831,0.05519203096628189,-1.0196880102157593,-0.4241025745868683,-0.22086195647716522,0.6442459225654602,29.80055046081543,-9.257122039794922,38.98589324951172,0
195,1949828,-0.008977104909718037,-0.13422176241874695,-0.9816762208938599,-0.4288943111896515,0.3251613676548004,0.020294440910220146,30.138338088989258,-11.068456649780273,38.986934661865234,0
196,1959970,0.0806037187576294,0.03448313847184181,-0.9595507979393005,0.0721937045454979,-0.45233502984046936,0.6180791854858398,29.787246704101562,-10.865744590759277,40.11988067626953,0
197,1969994,0.018223904073238373,-0.09269410371780396,-0.9691700339317322,-0.6815820336341858,-0.11365193128585815,0.2929965853691101,30.81293487548828,-8.994219779968262,39.9413948059082,0
198,1979911,0.004668182693421841,-0.09582718461751938,-0.9737621545791626,-0.1321336328983307,-0.4180107116699219,0.0256864782422781,29.699169158935547,-9.955157279968262,39.28223419189453,0
199,1989700,-0.04043553024530411,0.044838812202215195,-0.9866814017295837,-0.39929866790771484,-0.8498960733413696,0.017687387764453888,30.559640884399414,-8.307913780212402,40.5107536315918,0
200,1999996,0.0050286962650716305,0.04356469586491585,-1.003495693206787,0.21333490312099457,0.37127697467803955,-0.10442805290222168,30.36202049255371,-10.472630500793457,40.24967956542969,0
201,2009728,0.010156635195016861,-0.03871641680598259,-1.0129685401916504,-0.21268442273139954,-0.44062790274620056,-0.3818384110927582,29.47303009033203,-9.960116386413574,38.392311096191406,0
202,2019769,-0.020802348852157593,-0.032737623900175095,-1.0054630041122437,0.43964827060699463,0.32289478182792664,-1.0869041681289673,29.936145782470703,-10.370882034301758,41.64794158935547,0
203,2029980,-0.004681432619690895,0.015300947241485119,-1.0039194822311401,-0.20952357351779938,0.17527158558368683,-0.32927045226097107,29.438465118408203,-10.175681114196777,39.369693756103516,0
204,2039676,-0.020115653052926064,-0.0037664298433810472,-1.0212616920471191,0.28835615515708923,0.5618053078651428,0.2854139506816864,30.555034637451172,-8.135941505432129,39.05413818359375,0
205,2050177,-0.005685997661203146,0.04754432290792465,-1.0162618160247803,0.44493958353996277,0.3083721101284027,-0.11666225641965866,30.42715072631836,-10.619780540466309,39.094505310058594,0
206,2059971,-0.012358656153082848,-0.0893356129527092,-0.9901359677314758,0.040749598294496536,0.06351657956838608,-0.0022270705085247755,27.246089935302734,-9.984232902526855,39.85398483276367,0
207,2070121,0.04547611251473427,-0.0583253875374794,-0.9994414448738098,0.18172091245651245,0.3570876717567444,0.1285983920097351,30.418428421020508,-10.595540046691895,40.05307388305664,0
208,2080058,0.002169480547308922,-0.012088765390217304,-0.9904794096946716,-0.11125652492046356,0.2515094578266144,-0.01552108395844698,29.43342399597168,-10.08073616027832,38.98029708862305,0
209,2090162,0.02004089020192623,0.008305171504616737,-0.9958440661430359,0.7578850984573364,-0.055450841784477234,0.19614219665527344,31.485017776489258,-10.503968238830566,38.95673370361328,0
210,2099924,-0.0820847749710083,-0.00434084702283144,-1.0407674312591553,-0.48300084471702576,0.3516685366630554,-0.1276150345802307,30.082210540771484,-9.381806373596191,39.2321891784668,0
211,2109818,-0.0673222690820694,-0.04703815281391144,-1.0091965198516846,-0.5887128114700317,0.281009316444397,0.004467823076993227,27.009592056274414,-8.871557235717773,39.25954818725586,0
212,2120033,0.048740286380052567,-0.02140503004193306,-1.0073869228363037,0.8591963052749634,0.8369439244270325,0.02313084341585636,29.230514526367188,-7.848639965057373,41.1595458984375,0
213,2129935,-0.03622744604945183,-0.049855250865221024,-1.0055099725723267,-0.5078222751617432,0.2763015925884247,-0.05446704477071762,31.746944427490234,-9.560232162475586,40.156341552734375,0
214,2140071,-0.01619577780365944,-0.05636407807469368,-1.0291595458984375,-0.22938567399978638,-0.5844951272010803,0.5496891140937805,31.06189727783203,-10.442744255065918,41.67317199707031,0
215,2149948,0.010587571188807487,-0.05270179733633995,-0.970954418182373,-0.26488399505615234,0.19164031744003296,-0.32591429352760315,30.158143997192383,-9.782405853271484,38.75358200073242,0
216,2160087,0.002503404626622796,0.00030020371195860207,-1.0019011497497559,-0.12641669809818268,0.27804192900657654,-0.13589370250701904,30.28372573852539,-11.479642868041992,41.160526275634766,0
217,2170256,-0.03166758641600609,-0.019048437476158142,-1.0262407064437866,-0.17825588583946228,-0.7260695695877075,-0.8083573579788208,28.129825592041016,-12.146142959594727,39.959678649902344,0
218,2179699,0.03999870643019676,-0.015443513169884682,-1.0101042985916138,-0.2932632565498352,-0.5861837267875671,0.5474362373352051,28.851308822631836,-11.594908714294434,38.36789321899414,0
219,2189830,-0.06103063374757767,-0.01790022663772106,-1.0158116817474365,-0.48688700795173645,0.4786830544471741,-0.8156865239143372,29.091060638427734,-11.242084503173828,38.710941314697266,0
220,2200220,0.005332984030246735,-0.021354414522647858,-0.9985834360122681,0.33862853050231934,0.03746672719717026,0.27608543634414673,31.22276496887207,-10.140151023864746,39.327491760253906,0
221,2210102,0.009125888347625732,0.009650015272200108,-1.0232110023498535,-0.11804089695215225,-0.5634101629257202,-0.27984488010406494,30.684484481811523,-8.467925071716309,40.63641357421875,0
222,2220122,-0.056965455412864685,-0.032845959067344666,-1.0329104661941528,0.7891127467155457,0.04804752767086029,0.23234158754348755,28.671863555908203,-10.100982666015625,40.50859451293945,0
223,2229987,-0.02829652838408947,-0.012880890630185604,-1.0071048736572266,0.6240540742874146,-1.1670680046081543,-0.1471708118915558,30.453033447265625,-10.35213565826416,39.74341583251953,0
224,2239937,0.019045362249016762,-0.04320880398154259,-0.9683854579925537,-0.5148314833641052,0.1765565574169159,0.7003258466720581,30.397884368896484,-10.325104713439941,38.70641326904297,0
225,2250070,-0.025980144739151,0.005860076751559973,-0.9842128753662109,0.6920493245124817,0.011497209779918194,-0.36310771107673645,30.188810348510742,-9.428847312927246,40.35686111450195,0
226,2260322,-0.014046026393771172,0.05603083595633507,-1.0208998918533325,0.21014456450939178,-0.5114092230796814,-0.4618888199329376,29.200075149536133,-10.634483337402344,41.52458190917969,0
227,2270137,0.03733176365494728,-0.05339675769209862,-1.014954924583435,-0.6002922654151917,-0.1157236248254776,0.3026247024536133,29.260509490966797,-10.336973190307617,41.018558502197266,0
228,2279737,0.03361782431602478,-0.050934791564941406,-1.0197055339813232,-0.5854714512825012,-0.04576008394360542,-0.4301215410232544,29.64671516418457,-10.331799507141113,40.38557052612305,0
229,2289843,-0.10273391008377075,-0.01807071827352047,-0.9759348630905151,1.2208093404769897,-0.011883198283612728,0.1669139266014099,28.902711868286133,-11.250292778015137,40.57260513305664,0
230,2299949,0.07290186733007431,0.0039479113183915615,-1.0054789781570435,-0.324557363986969,0.3344416618347168,-0.9821543097496033,30.292634963989258,-11.725906372070312,38.57850646972656,0
231,2310140,-0.07284272462129593,0.05806157737970352,-1.002138614654541,-0.2159612774848938,0.11316567659378052,0.15023840963840485,29.346492767333984,-10.065587997436523,41.402503967285156,0
232,2320296,-0.017638947814702988,-0.04237719997763634,-0.9946651458740234,0.47470057010650635,0.10559640824794769,-0.22595037519931793,30.060094833374023,-9.296432495117188,40.14205551147461,0
233,2329724,0.04274194687604904,-0.01664642244577408,-0.9874038696289062,-1.0574809312820435,-0.4742046296596527,0.13337796926498413,30.378267288208008,-10.975996971130371,38.60901641845703,0
234,2340143,0.003950620535761118,0.05170964077115059,-0.9833890199661255,0.6710324287414551,0.09723606705665588,-0.08346623927354813,30.851552963256836,-9.554004669189453,38.718868255615234,0
235,2350346,0.026153795421123505,0.014645392075181007,-0.9817088842391968,1.2233480215072632,-0.17540089786052704,0.7736642360687256,28.180070877075195,-9.110730171203613,39.27892303466797,0
236,2359826,-0.003758741542696953,0.07946375012397766,-0.9873851537704468,-0.8007848262786865,-0.7030367255210876,0.42737966775894165,30.356218338012695,-10.10165023803711,39.82905960083008,0
237,2369938,0.04793507233262062,0.02022489719092846,-1.0122853517532349,-0.7433032393455505,0.3852959871292114,-0.48031550645828247,31.173904418945312,-11.521106719970703,41.31855773925781,0
238,2380118,0.06257396191358566,-0.025188365951180458,-0.9664119482040405,-0.866767168045044,0.06333872675895691,-0.23344555497169495,31.52809715270996,-8.899741172790527,40.170204162597656,0
239,2390142,0.022095950320363045,0.04936881735920906,-1.0081855058670044,0.6475985050201416,-0.5297181010246277,0.2284674346446991,30.060544967651367,-12.232105255126953,40.180294036865234,0
240,2400155,0.07494290173053741,0.04773712903261185,-0.9948455691337585,-0.295913964509964,-0.9408884048461914,0.45085519552230835,31.1107234954834,-11.897625923156738,39.02474594116211,0
241,2409606,-0.013953217305243015,0.044580452144145966,-1.019144892692566,0.0324539914727211,-0.5522762537002563,-0.4968765377998352,31.008264541625977,-10.924968719482422,39.13544464111328,0
242,2420051,-0.005879251752048731,0.023611629381775856,-1.023838996887207,0.26910582184791565,-0.736224353313446,0.9170195460319519,28.52752113342285,-9.575711250305176,41.24149703979492,0
243,2429976,0.012782112695276737,0.012463752180337906,-0.9899915456771851,-0.5594776272773743,0.9100920557975769,-0.1640000194311142,29.206443786621094,-9.166847229003906,39.7336540222168,0
244,2440063,-0.022183747962117195,0.01692662388086319,-1.0161927938461304,1.1263604164123535,-0.25711315870285034,0.7238439917564392,29.945083618164062,-9.764843940734863,38.720703125,0
245,2449918,0.009837682358920574,0.019478505477309227,-0.9946639537811279,0.04102214053273201,-0.16163986921310425,-0.5531174540519714,31.563623428344727,-11.068010330200195,40.242191314697266,0
246,2460038,-0.02007663995027542,0.0009895648108795285,-1.0121042728424072,-0.031009158119559288,0.05235118046402931,0.35066846013069153,30.041648864746094,-11.248612403869629,39.71401596069336,0
247,2470037,-0.05236547067761421,-0.005719555541872978,-1.0143918991088867,-0.6069543957710266,-0.19507509469985962,-0.44076383113861084,32.16209030151367,-10.082697868347168,37.65476608276367,0
248,2479905,-0.028080230578780174,0.014108837582170963,-1.004067063331604,1.0035158395767212,0.3550020754337311,0.5730901956558228,28.258039474487305,-10.067874908447266,39.6466064453125,0
249,2489988,0.028372639790177345,-0.04234740510582924,-1.0198023319244385,0.755381166934967,0.8212695717811584,-0.06086455658078194,30.11178207397461,-8.89056396484375,40.757171630859375,0
250,2499760,-0.013002472929656506,-0.007161758374422789,-0.9687647223472595,-0.26068589091300964,-0.45227667689323425,0.26380297541618347,29.89063262939453,-10.490301132202148,40.580177307128906,0
251,2509988,0.05669134482741356,-0.026087496429681778,-1.0110174417495728,0.30033984780311584,0.7051565647125244,-0.39833134412765503,31.2471981048584,-10.450637817382812,38.614871978759766,0
252,2520020,-0.040599431842565536,-0.1057019829750061,-1.0045844316482544,-0.5580087900161743,0.24453914165496826,0.9024585485458374,31.878747940063477,-8.840070724487305,41.246952056884766,0
253,2530114,-0.03823777660727501,-0.04993585869669914,-0.9836316704750061,-0.4305934011936188,-0.15989428758621216,-0.7486702799797058,31.08725929260254,-9.683353424072266,40.107913970947266,0
254,2540060,0.0685982033610344,-0.02846362628042698,-0.9975787997245789,-0.33891725540161133,-0.3847748637199402,0.029894327744841576,31.84756851196289,-10.114965438842773,39.821495056152344,0
255,2549996,-0.016978835687041283,0.0843709409236908,-1.0053961277008057,0.04910404235124588,0.155996173620224,-1.1558231115341187,29.705060958862305,-11.58472728729248,38.917625427246094,0
256,2560041,-0.029955996200442314,-0.022137969732284546,-0.9694030284881592,-0.0835794061422348,0.23802590370178223,0.4781529903411865,30.152101516723633,-9.466691970825195,39.15431594848633,0
257,2570061,-0.09908409416675568,0.008662565611302853,-0.9806730151176453,-0.17688299715518951,0.13942597806453705,-0.43614521622657776,31.34429168701172,-9.052900314331055,39.71266174316406,0
258,2580044,-0.06657996028661728,0.03536882996559143,-1.019779086112976,0.18205130100250244,0.2281038910150528,1.261240005493164,29.884868621826172,-9.4822998046875,40.47026443481445,0
259,2589973,0.08308382332324982,-0.042206160724163055,-0.9924095869064331,0.6512743234634399,-0.13640646636486053,-0.3610857129096985,28.833288192749023,-11.708684921264648,41.34943389892578,0
260,2600131,-0.0031126108951866627,-0.03173528611660004,-1.0242283344268799,0.12343192845582962,0.3509840667247772,-0.8103197813034058,30.554088592529297,-10.866874694824219,40.03684616088867,0
261,2610078,-0.004215356428176165,-0.022618478164076805,-0.9584903717041016,0.5047006607055664,-0.19673247635364532,-0.10352972894906998,31.699926376342773,-9.731505393981934,41.109439849853516,0
262,2620098,0.03537552431225777,0.017933426424860954,-1.0163452625274658,0.23322105407714844,-0.2355189025402069,-0.1578679382801056,30.879268646240234,-9.796533584594727,40.119747161865234,0
263,2630175,-0.05384077876806259,0.051591601222753525,-1.0173290967941284,0.23646262288093567,0.5416219830513,1.180090069770813,28.891895294189453,-10.720481872558594,40.20924377441406,0
264,2640071,0.008503120392560959,0.04445989057421684,-0.9922844171524048,0.06785105913877487,0.25627127289772034,-0.3817759156227112,28.95474624633789,-10.424153327941895,40.57188415527344,0
265,2650027,-0.040352072566747665,-0.02446761541068554,-1.008246660232544,-0.06454987078905106,-0.4453917145729065,0.4774990677833557,29.705547332763672,-9.968361854553223,41.126766204833984,0
266,2660131,0.07246274501085281,-0.032068606466054916,-1.005196452140808,-0.30549222230911255,0.3463813066482544,-0.33412495255470276,29.49798583984375,-8.328145027160645,39.5620002746582,0
267,2669735,-0.19704608619213104,-0.15396182239055634,-1.0034505128860474,-0.20585967600345612,0.4901074469089508,-0.4529883563518524,29.794410705566406,-11.252291679382324,41.70713424682617,0
268,2680015,-0.08023998886346817,0.030128732323646545,-1.0136268138885498,0.4812571108341217,0.3616437613964081,-1.0001099109649658,28.73370933532715,-10.507774353027344,39.39129638671875,0
269,2690158,0.024463627487421036,-0.019246937707066536,-1.0177860260009766,0.15726667642593384,-0.947581946849823,-0.01885886862874031,28.824169158935547,-9.357842445373535,40.36900329589844,0
270,2699840,-0.00012326549040153623,0.04050479084253311,-0.9936813116073608,-0.1804964393377304,0.6707963943481445,0.6113232374191284,29.31256866455078,-10.178910255432129,38.56369400024414,0
271,2710104,0.03147803246974945,-0.0317140556871891,-1.0130319595336914,-0.1420774608850479,0.2700110971927643,-1.3002406358718872,28.6173095703125,-10.564112663269043,42.624717712402344,0
272,2720187,-0.042549896985292435,-0.03457830473780632,-0.9980212450027466,-0.07877538353204727,0.39323869347572327,0.6850371956825256,29.63025665283203,-9.324949264526367,40.520259857177734,0
273,2730158,-0.07091858983039856,-0.04463066905736923,-1.0076862573623657,-0.09405456483364105,0.3237408995628357,0.42957624793052673,31.16342544555664,-8.990629196166992,39.04746627807617,0
274,2739982,-0.016788935288786888,0.008721485733985901,-0.9812983274459839,1.2171027660369873,0.03327229246497154,0.0024848654866218567,29.785797119140625,-10.719338417053223,39.99858856201172,0
275,2749865,0.03996196761727333,-0.0736265480518341,-0.9614093899726868,1.161372184753418,0.36217930912971497,-0.32820457220077515,30.393573760986328,-12.25868034362793,41.0628776550293,0
276,2760322,-0.14337807893753052,0.009953564032912254,-1.0061113834381104,-0.6086148619651794,0.07418463379144669,0.31057310104370117,30.8576602935791,-11.110126495361328,39.85916519165039,0
277,2770064,-0.012592227198183537,-0.03686496242880821,-1.0230737924575806,0.22365088760852814,-0.4475870132446289,0.2306285798549652,30.10102653503418,-11.14037799835205,40.469913482666016,0
278,2779987,0.034965354949235916,0.0019189821323379874,-0.9929498434066772,-0.6564822196960449,0.7538594007492065,-0.17135094106197357,29.387544631958008,-8.798436164855957,40.30964660644531,0
279,2790099,0.036139994859695435,-0.01706288568675518,-0.9792377948760986,-1.1296886205673218,0.718712568283081,-0.42528966069221497,29.70392417907715,-9.459188461303711,39.69561767578125,0
280,2799727,0.006892780307680368,-0.0035959151573479176,-0.9824459552764893,0.3302442729473114,-0.317146360874176,-0.8821534514427185,29.038129806518555,-10.64124870300293,39.80831527709961,0
281,2810073,-0.01751256361603737,-0.09248488396406174,-0.9925968050956726,0.3024562895298004,-0.3193732798099518,0.5776475071907043,29.418182373046875,-9.261544227600098,40.41782760620117,0
282,2819865,-0.021806957200169563,0.06311684101819992,-0.9928464293479919,-0.28489890694618225,0.4521885812282562,1.5109840631484985,30.452640533447266,-10.547506332397461,39.58296203613281,0
283,2830202,-0.03663866966962814,-0.024677526205778122,-1.001402735710144,-0.49352356791496277,-0.14756841957569122,0.8732413053512573,30.175600051879883,-9.704388618469238,42.96549987792969,0
284,2840148,-0.06207438185811043,0.04858176037669182,-0.9885372519493103,-1.110398292541504,-0.13891176879405975,0.4587324261665344,28.0111141204834,-10.658950805664062,39.17578887939453,0
285,2849800,-0.02045423910021782,-0.07212069630622864,-0.9859867095947266,-0.7644028663635254,0.016542650759220123,-0.6377347111701965,28.9682674407959,-10.94345474243164,39.210269927978516,0
286,2859997,-0.02964767999947071,0.024666232988238335,-0.9836052656173706,0.7916989922523499,0.6321080923080444,-0.08649230003356934,30.55611801147461,-10.050944328308105,41.205596923828125,0
287,2870069,-0.020544134080410004,0.040836602449417114,-0.9645279049873352,0.07141213864088058,0.9244461059570312,-0.5470531582832336,30.953922271728516,-7.9332685470581055,41.17900466918945,0
288,2880124,-0.024915926158428192,0.025322437286376953,-1.0054073333740234,-0.3980128765106201,0.7083147168159485,-0.0697467029094696,30.341020584106445,-9.631634712219238,39.383888244628906,0
289,2889639,0.04858147352933884,0.0435202419757843,-0.9847339987754822,-0.05001617595553398,-0.09705550223588943,-0.4284301996231079,30.5292911529541,-9.486605644226074,40.453330993652344,0
290,2899902,-0.04601570963859558,-0.09929630905389786,-0.9899425506591797,-0.37688130140304565,0.2705043852329254,-0.21270330250263214,31.282548904418945,-11.52507495880127,39.73145294189453,0
291,2909953,0.012205416336655617,0.033486392349004745,-0.9940735101699829,0.8173304796218872,0.03066140227019787,-0.2621237337589264,28.918886184692383,-8.152606964111328,41.674400329589844,0
292,2920309,0.04854292422533035,-0.010724152438342571,-0.9711619019508362,0.16627909243106842,-0.43492528796195984,-0.5054532885551453,30.061660766601562,-11.651142120361328,41.0676383972168,0
293,2930045,-0.035228729248046875,0.011819606646895409,-0.9983003735542297,0.2481084018945694,-0.122409388422966,-0.2797817885875702,30.611539840698242,-7.461729049682617,39.736854553222656,0
294,2939824,0.021029233932495117,-0.14294806122779846,-0.9937156438827515,-0.7685089707374573,0.34859535098075867,-1.2428336143493652,28.311595916748047,-9.95633316040039,38.538116455078125,0
295,2949974,0.11525385081768036,-0.03615005314350128,-0.9962784647941589,-0.12566445767879486,-0.23713071644306183,0.029994478449225426,29.913925170898438,-10.817134857177734,40.99414825439453,0
296,2960103,-0.050473716109991074,0.048037923872470856,-0.9717846512794495,-0.44534656405448914,0.1453029364347458,-0.6539404988288879,30.092266082763672,-10.394319534301758,38.46668243408203,0
297,2970188,-0.0055249882861971855,0.0010077008046209812,-0.9901261925697327,0.17829614877700806,0.10282699763774872,-0.2810145914554596,26.92920684814453,-10.159982681274414,40.88478469848633,0
298,2980036,-0.000669876579195261,-0.06940316408872604,-1.0048425197601318,0.24189916253089905,0.6986486315727234,-0.5757976770401001,31.2098331451416,-9.376089096069336,39.23659133911133,0
299,2990142,0.07624363154172897,-0.05730265751481056,-0.9908725023269653,0.6130607724189758,-0.06591474264860153,0.3384787142276764,30.67224884033203,-9.62448501586914,41.7371940612793,0
300,3000148,0.0034677584189921618,0.046758417040109634,-0.9917373061180115,0.6854327321052551,0.9929254651069641,-0.26440706849098206,31.465084075927734,-11.635491371154785,40.66822052001953,0
301,3009773,-0.07093799114227295,-0.06724102795124054,-0.9814536571502686,0.13549739122390747,-0.07619930803775787,0.3023263216018677,30.641300201416016,-9.71530532836914,41.52412796020508,0
302,3020064,0.004300305619835854,0.04852741211652756,-1.0239671468734741,-0.543104350566864,-0.23822349309921265,-0.013698440976440907,29.758790969848633,-9.15898323059082,38.84223556518555,0
303,3030145,-0.03723825514316559,0.05957340449094772,-1.0279514789581299,-0.3155694305896759,0.6310340762138367,1.0950254201889038,31.08538818359375,-9.781670570373535,40.75362014770508,0
304,3039915,0.032139215618371964,0.029518699273467064,-0.9783107042312622,-0.28376504778862,-0.9455804228782654,0.7112452387809753,29.777685165405273,-9.016692161560059,41.94456100463867,0
305,3050180,0.03252706304192543,-0.01957814395427704,-1.0407932996749878,0.02508356235921383,0.034705232828855515,-0.5372124910354614,29.963212966918945,-10.434389114379883,41.55084228515625,0
306,3060027,-0.04493065923452377,0.02646683156490326,-0.9849775433540344,0.11803405731916428,-0.06798288971185684,0.4561375379562378,30.524978637695312,-9.695855140686035,38.85388946533203,0
307,3069989,-0.021240737289190292,0.018958427011966705,-0.9901991486549377,0.1949349194765091,-0.5872050523757935,-0.008720005862414837,29.696224212646484,-10.431255340576172,38.989952087402344,0
308,3079967,0.031537484377622604,0.008891789242625237,-1.0034688711166382,-0.5734409093856812,0.07626965641975403,0.6785925030708313,30.5068359375,-9.931727409362793,40.81593322753906,0
309,3089988,-0.026818495243787766,0.03712400794029236,-1.0160396099090576,-0.9404237270355225,-0.3601972758769989,-0.44568395614624023,29.238357543945312,-9.951395988464355,41.304901123046875,0
310,3100072,-0.04525228962302208,-0.017183620482683182,-0.9945266246795654,-0.2941271960735321,0.3914744257926941,0.17368663847446442,30.434246063232422,-7.791321277618408,39.75992202758789,0
311,3109897,0.028010929003357887,0.0022104012314230204,-1.032941222190857,-0.5295939445495605,0.06300777941942215,0.2583077847957611,28.473430633544922,-10.120274543762207,39.71427917480469,0
312,3120217,-0.0061706677079200745,-0.005528229754418135,-0.9789091944694519,0.2999110519886017,0.010404658503830433,-0.0072230189107358456,30.96683692932129,-8.652355194091797,40.659332275390625,0
313,3130049,-0.019216768443584442,0.010208282619714737,-0.9875642657279968,0.6597853899002075,-0.607988715171814,-0.8916575312614441,29.08372688293457,-10.905715942382812,40.736663818359375,0
314,3140099,0.016864996403455734,0.05947278439998627,-1.0069067478179932,-0.5484521985054016,-0.34679171442985535,-0.7702804207801819,29.365299224853516,-9.614890098571777,40.449989318847656,0
315,3149707,-0.01051302719861269,0.0534774549305439,-1.0364398956298828,-0.37418705224990845,0.2564600110054016,-0.4775376319885254,30.009336471557617,-9.322792053222656,40.280757904052734,0
316,3160034,-0.008728882297873497,-0.04290542006492615,-0.989646852016449,-0.6810083389282227,0.7762123346328735,-0.5560383200645447,29.877241134643555,-7.926743030548096,40.288875579833984,0
317,3169962,-0.1210470050573349,0.03452078253030777,-0.992209255695343,0.6375470161437988,0.012600106187164783,-0.2706453800201416,30.391681671142578,-8.085911750793457,36.45965576171875,0
318,3179778,0.026278452947735786,-0.02979888580739498,-0.9745305180549622,0.40053337812423706,-0.06051546707749367,-0.0592641606926918,30.202648162841797,-9.46018123626709,39.307579040527344,0
319,3189877,-0.13914266228675842,0.012983731925487518,-0.9682333469390869,-0.06994520127773285,-0.9507533311843872,0.2953340709209442,31.19569969177246,-10.33308219909668,41.10857009887695,0
320,3200182,0.043398477137088776,-0.0443238765001297,-1.0169193744659424,0.2495993822813034,0.2715316712856293,0.14650073647499084,30.479665756225586,-9.093001365661621,40.642364501953125,0
321,3210230,0.02965591475367546,0.0481867790222168,-0.9681763052940369,0.5666216611862183,-0.4298027455806732,0.46188294887542725,31.126253128051758,-12.231389999389648,40.75900650024414,0
322,3219878,0.0234096460044384,0.03147697076201439,-1.00181245803833,-0.7177250385284424,0.5847453474998474,0.28649693727493286,29.921337127685547,-10.641664505004883,40.37765884399414,0
323,3229972,0.025150448083877563,0.03841015696525574,-1.0045205354690552,0.23403728008270264,0.06171932443976402,0.21068325638771057,30.11986541748047,-10.280643463134766,39.489654541015625,0
324,3239745,-0.13698501884937286,-0.03463243320584297,-1.0191489458084106,-0.5044421553611755,0.33506447076797485,-0.33073508739471436,29.45779800415039,-10.76123332977295,39.08498764038086,0
325,3250000,0.015743333846330643,0.058044642210006714,-0.9848698973655701,-0.4275205135345459,0.44530346989631653,0.22337886691093445,30.509456634521484,-9.57524299621582,39.099544525146484,0
326,3259994,0.043261684477329254,-0.06635377556085587,-0.9968230128288269,-0.14022038877010345,-0.6316085457801819,-0.7505765557289124,31.770368576049805,-10.245505332946777,40.1537971496582,0
327,3269795,-0.02134985849261284,0.051565177738666534,-0.9685494899749756,0.6049306988716125,0.07419824600219727,0.9615253210067749,32.05950164794922,-9.882756233215332,39.127925872802734,0
328,3279889,0.07451817393302917,-0.007980461232364178,-1.013390064239502,0.08013606816530228,0.1330586075782776,0.1440337598323822,29.27113151550293,-10.492115020751953,39.270355224609375,0
329,3290174,-0.024470295757055283,0.029417922720313072,-1.0103141069412231,0.019656984135508537,-1.2190852165222168,0.23972322046756744,28.009117126464844,-9.60517406463623,41.39628219604492,0
330,3300063,-0.006010056007653475,-0.04911066219210625,-0.9936370849609375,0.7948623299598694,-0.83880215883255,-0.5556885004043579,29.890178680419922,-10.487194061279297,40.603790283203125,0
331,3309964,-0.03125995770096779,0.026631031185388565,-0.9712062478065491,0.8506339192390442,0.26040688157081604,0.030541496351361275,29.263917922973633,-10.444025039672852,40.202213287353516,0
332,3320141,0.0413912795484066,0.043950602412223816,-0.9761762022972107,0.19395682215690613,-0.7768332958221436,-0.23168374598026276,29.055517196655273,-10.99404525756836,40.87409973144531,0
333,3330040,-0.06128842756152153,-0.06951859593391418,-0.9985833168029785,0.03960684686899185,-0.24430006742477417,0.13699428737163544,29.285579681396484,-8.24728012084961,39.26315689086914,0
334,3340216,0.0421108603477478,-0.11384410411119461,-1.012054681777954,0.8229334354400635,0.2520473897457123,-0.36639806628227234,30.440479278564453,-11.292000770568848,39.59157943725586,0
335,3350013,0.043072525411844254,-0.021860549226403236,-1.0181965827941895,-0.15623389184474945,0.19158786535263062,-1.113221526145935,30.42194366455078,-11.711899757385254,40.712860107421875,0
336,3360034,0.0552089586853981,0.022125819697976112,-1.0100756883621216,-0.26579686999320984,0.36861249804496765,0.9912050366401672,29.60599136352539,-10.808350563049316,40.11249923706055,0
337,3369934,0.015555468387901783,0.009336511604487896,-1.0110809803009033,-0.4121600389480591,0.06865536421537399,-0.45526963472366333,32.64860534667969,-9.587632179260254,38.61452102661133,0
338,3380169,-0.08341488987207413,0.08418039977550507,-1.0035415887832642,-0.23230426013469696,0.18310941755771637,0.3700390160083771,29.288497924804688,-10.363655090332031,41.60198211669922,0
339,3390173,-0.026161856949329376,-0.0018608751706779003,-0.9999157190322876,-0.6918155550956726,-0.26293835043907166,-0.33966007828712463,30.6529541015625,-10.001916885375977,38.77378463745117,0
340,3400295,-0.017106011509895325,0.02895607426762581,-0.9945586919784546,0.6967023015022278,-0.35170286893844604,1.6057707071304321,28.903535842895508,-9.624460220336914,39.08858108520508,0
341,3410126,0.015380975790321827,-0.03614119067788124,-0.9535863995552063,0.8429704308509827,0.5741162896156311,-0.7554831504821777,29.400440216064453,-10.095924377441406,39.83601760864258,0
342,3420062,-0.014507768675684929,0.042008209973573685,-1.0095069408416748,-0.7947431802749634,0.3327280282974243,-0.35794761776924133,29.751861572265625,-10.275487899780273,39.003971099853516,0
343,3429919,0.034460004419088364,0.11759460717439651,-0.9675044417381287,-0.5190367698669434,0.04069429636001587,0.7146614193916321,29.379379272460938,-8.739039421081543,38.29921340942383,0
344,3440151,0.04923201724886894,0.07854671776294708,-0.9978728890419006,-0.40424200892448425,-0.1608782410621643,0.45388108491897583,30.041244506835938,-11.067760467529297,39.531593322753906,0
345,3450081,-0.01785673201084137,-0.039254579693078995,-0.9964560270309448,-0.3599037230014801,-0.1255660057067871,-0.3921322822570801,31.533113479614258,-9.043327331542969,40.46402359008789,0
346,3460133,0.03499218448996544,0.0438297800719738,-0.9892454147338867,0.6343830227851868,-0.6496537923812866,-0.21023468673229218,30.063587188720703,-10.004764556884766,39.38174057006836,0
347,3470001,0.05068591237068176,0.10769377648830414,-0.976639986038208,-0.3440227806568146,0.32797330617904663,1.0306891202926636,31.349618911743164,-9.28805923461914,38.25978469848633,0
348,3479997,-0.03505855053663254,-0.00782624538987875,-1.0124537944793701,-0.022946417331695557,-0.8702807426452637,0.037687037140131,31.599533081054688,-9.981178283691406,38.73655319213867,0
349,3489996,-0.06873539090156555,-0.0005951397470198572,-0.9941980242729187,0.11168798059225082,-0.3139207363128662,-0.1660940796136856,30.19717788696289,-11.56787109375,40.110572814941406,0
350,3499761,0.09138257801532745,0.00718440767377615,-0.9750947952270508,-0.28568053245544434,0.25165149569511414,0.21658433973789215,29.434358596801758,-8.415517807006836,38.27001190185547,0
351,3510211,0.056806571781635284,0.05284370854496956,-1.0359852313995361,0.03998266160488129,0.2616373598575592,-0.6569501161575317,29.65570640563965,-9.568514823913574,40.737239837646484,0
352,3519989,0.03658456727862358,-0.016813552007079124,-0.991667628288269,-0.2816300690174103,0.8601096272468567,-0.3589058816432953,30.269344329833984,-11.575443267822266,39.66023635864258,0
353,3530133,0.02964995987713337,-0.007077671587467194,-0.9752469062805176,-0.3806374669075012,0.6218410730361938,0.3776770830154419,30.664838790893555,-9.896390914916992,39.42441177368164,0
354,3540013,-0.03190832585096359,-0.10505995154380798,-1.0004194974899292,-0.4989994764328003,-0.10947833955287933,-0.47307607531547546,27.68511199951172,-11.9243745803833,38.91314697265625,0
355,3550248,0.07415345311164856,0.038494523614645004,-1.021306037902832,-0.2868339717388153,0.4041489362716675,-0.18929001688957214,30.02093505859375,-10.116893768310547,39.56775665283203,0
356,3559919,-0.015254625119268894,0.1641334891319275,-1.0219038724899292,-0.9411711096763611,-0.3740661144256592,0.638917863368988,30.863142013549805,-11.357831001281738,39.604522705078125,0
357,3570077,-0.046316664665937424,-0.051873691380023956,-1.0072354078292847,0.455522745847702,-0.15301449596881866,-0.17072734236717224,30.491683959960938,-11.961039543151855,37.81039810180664,0
358,3580269,0.033097658306360245,-0.014726931229233742,-1.0279871225357056,-0.14183367788791656,1.0626821517944336,0.03480525687336922,32.51216125488281,-9.662402153015137,38.79827117919922,0
359,3589816,-0.025342881679534912,0.0145912179723382,-1.0250519514083862,-0.4285566806793213,-0.4466482996940613,0.006363315042108297,31.116714477539062,-10.331791877746582,40.78840255737305,0
360,3600153,0.022226376459002495,-0.044256847351789474,-0.9918681383132935,-0.11675248295068741,0.2451004981994629,-0.33203232288360596,30.919057846069336,-11.326115608215332,40.57457733154297,0
361,3610142,0.01206652820110321,-0.023115064948797226,-1.0125102996826172,0.034609176218509674,-1.2059597969055176,0.2077692300081253,31.624074935913086,-11.784459114074707,40.07160186767578,0
362,3620140,0.04469605162739754,-0.025280626490712166,-0.9543384909629822,0.8835137486457825,0.4148472249507904,0.4286160171031952,29.903564453125,-10.30282211303711,41.15168762207031,0
363,3629863,-0.011797071434557438,-0.11148133873939514,-0.9720730781555176,0.5969278216362,-0.5459265112876892,-0.4802967309951782,27.378421783447266,-11.564111709594727,39.62179183959961,0
364,3640183,0.004380627069622278,0.0262764822691679,-1.021570086479187,0.6485923528671265,-0.4194854199886322,-0.11929930001497269,29.230127334594727,-10.013731956481934,40.4738655090332,0
365,3649969,-0.010314813815057278,-0.03333037346601486,-1.0068386793136597,-0.3560501039028168,0.45503127574920654,-0.5061612129211426,30.62733268737793,-9.864951133728027,40.721290588378906,0
366,3659931,-0.008185144513845444,-0.017688866704702377,-1.000062346458435,0.4430176317691803,0.025542952120304108,-0.6744462251663208,31.16771697998047,-9.128589630126953,41.069698333740234,0
367,3670132,-8.84763358044438e-05,0.016437537968158722,-1.0013588666915894,0.7410773634910583,0.22041933238506317,-0.37479910254478455,28.98714256286621,-10.947308540344238,39.14811325073242,0
368,3679881,-0.03001326508820057,0.034126412123441696,-0.9850662350654602,0.20589354634284973,0.04356539994478226,0.3473271429538727,30.260879516601562,-10.688096046447754,39.796287536621094,0
369,3689858,0.015631424263119698,-0.0029611107893288136,-0.9881917238235474,0.16044656932353973,-0.30813926458358765,-0.02938951551914215,28.95138931274414,-10.506030082702637,40.82892990112305,0
370,3699759,-0.14317071437835693,0.03234701231122017,-1.005590796470642,-0.1407306045293808,-0.29239392280578613,0.014916915446519852,31.368669509887695,-10.09679126739502,38.8001594543457,0
371,3710307,-0.01148222852498293,0.025743380188941956,-0.9518743753433228,0.0883648470044136,-0.05859118700027466,0.6731095314025879,31.168359756469727,-9.710165023803711,40.70575714111328,0
372,3719927,-0.023282239213585854,0.00020684540504589677,-0.9854462742805481,-0.11279013007879257,-0.6760578751564026,0.2378796935081482,30.18362808227539,-8.80094051361084,40.03483581542969,0
373,3729889,0.06844331324100494,0.0347483865916729,-0.9958300590515137,-0.583347737789154,-0.08637604862451553,0.0030321187805384398,30.583662033081055,-10.483633995056152,39.585777282714844,0
374,3740316,-0.07574739307165146,0.0851496234536171,-1.0316935777664185,0.33034881949424744,0.767227828502655,0.6467888355255127,29.457256317138672,-10.552995681762695,39.043548583984375,0
375,3749759,-0.017703788354992867,-0.10321998596191406,-0.9975282549858093,-0.4235919713973999,-0.988283097743988,-0.13519908487796783,29.546525955200195,-9.829002380371094,42.24315643310547,0
376,3759986,0.035067230463027954,-0.014627836644649506,-1.0153124332427979,-0.24461807310581207,-0.09504450857639313,0.11515415459871292,30.248077392578125,-11.427081108093262,39.30647277832031,0
377,3769992,-0.0005831679445691407,-0.12444758415222168,-1.0384303331375122,0.389538437128067,-0.589760422706604,-0.038379598408937454,28.285207748413086,-9.600626945495605,40.03052520751953,0
378,3780029,0.03042011894285679,-0.0006086275679990649,-0.9741178750991821,0.5465548634529114,-0.024198874831199646,-0.029161088168621063,30.271940231323242,-8.707508087158203,39.7495231628418,0
379,3789871,-0.034049052745103836,0.02410849556326866,-0.9981765747070312,0.26677215099334717,0.4494800269603729,0.3902883529663086,31.15785026550293,-8.538050651550293,38.21574401855469,0
380,3799888,-0.034198690205812454,-0.04252225160598755,-1.0151981115341187,-0.17218466103076935,0.005157909356057644,1.1712766885757446,29.45507049560547,-8.910685539245605,40.14509201049805,0
381,3810327,-0.07590936124324799,-0.047589968889951706,-0.9785928130149841,-0.6838588714599609,-0.17508500814437866,0.15550005435943604,30.42849349975586,-8.66189956665039,40.94255447387695,0
382,3820147,-0.012571356259286404,-0.0036084456369280815,-1.0130120515823364,-0.4525218605995178,0.28447631001472473,-0.28365427255630493,28.30601692199707,-8.753307342529297,40.539581298828125,0
383,3830267,-0.006147575099021196,0.010301965288817883,-1.013932704925537,-0.569983720779419,0.5031197667121887,0.16677597165107727,29.347700119018555,-9.885499954223633,39.55550765991211,0
384,3840158,-0.023429162800312042,-0.0012604023795574903,-1.0179201364517212,0.11192784458398819,-0.5654144287109375,0.6146194934844971,29.916168212890625,-10.178544998168945,39.211421966552734,0
385,3850201,0.05290106683969498,-0.023330219089984894,-0.9762167930603027,0.736188530921936,-0.7521535754203796,-0.11924319714307785,30.674652099609375,-12.06462287902832,38.650672912597656,0
386,3860124,-0.005344013217836618,0.03294961526989937,-0.9787108898162842,0.6140561103820801,-0.6091935038566589,-0.20548903942108154,29.646297454833984,-10.42831802368164,39.69622802734375,0
387,3869971,0.06727974116802216,-0.005936803296208382,-1.0066207647323608,0.07437900453805923,0.062364958226680756,-0.32341647148132324,28.885629653930664,-9.579168319702148,40.529762268066406,0
388,3879962,0.05984685197472572,-0.04566321149468422,-1.005557656288147,-0.2138061821460724,-0.10704781115055084,-0.6170819401741028,29.099775314331055,-11.010865211486816,39.569969177246094,0
389,3890318,0.010852180421352386,-0.022569626569747925,-0.9899183511734009,-0.16433164477348328,-0.6251179575920105,0.016804896295070648,30.39235496520996,-8.650018692016602,39.95405578613281,0
390,3900239,0.007629452273249626,-0.030995337292551994,-0.999488115310669,-0.38637688755989075,-0.39728567004203796,-0.1633138656616211,30.166067123413086,-7.9215593338012695,41.04583740234375,0
391,3910211,0.001755867269821465,-0.015711281448602676,-0.9824461936950684,0.06012839451432228,-0.5877081751823425,1.3307830095291138,30.19745445251465,-10.693940162658691,40.2407112121582,0
392,3919918,-0.03593527898192406,-0.02507462166249752,-1.017019510269165,0.2757183909416199,0.3135644793510437,0.9196893572807312,30.671268463134766,-9.058046340942383,39.207122802734375,0
393,3929846,0.03684481978416443,-0.12719176709651947,-0.9614526033401489,0.8585271835327148,-0.031147895380854607,0.10915692150592804,31.80077362060547,-10.45451545715332,40.23426818847656,0
394,3939928,-0.036789704114198685,0.012753221206367016,-0.9971998333930969,1.0649309158325195,-0.32302528619766235,-0.0651760920882225,29.282358169555664,-9.618738174438477,40.188499450683594,0
395,3949849,-0.038628071546554565,-0.07056727260351181,-0.9891427159309387,-1.0625338554382324,-0.28578218817710876,0.6672725677490234,30.193313598632812,-9.71080493927002,39.86709213256836,0
396,3960065,0.021489227190613747,-0.014917056076228619,-0.990453839302063,-0.672829270362854,-0.4468804895877838,-0.6085888147354126,29.613262176513672,-9.79575252532959,39.489803314208984,0
397,3970036,0.016958510503172874,0.03733609989285469,-1.0382740497589111,0.015191378071904182,0.5304148197174072,0.4766692817211151,30.918546676635742,-9.000434875488281,41.149749755859375,0
398,3980024,0.06391998380422592,-0.09152502566576004,-0.9937277436256409,0.012382297776639462,-0.5853449702262878,-0.16611981391906738,27.203075408935547,-9.860791206359863,40.33406448364258,0
399,3989747,0.04607431963086128,-0.01667490229010582,-1.0223783254623413,-0.2296585887670517,0.4129237234592438,0.23949772119522095,30.959522247314453,-10.836381912231445,40.40904998779297,0
400,4000102,-0.009637963958084583,-0.10378987342119217,-1.0098295211791992,0.44263285398483276,-0.45600324869155884,0.4251108765602112,29.447263717651367,-12.003461837768555,38.773414611816406,0
401,4010070,0.008761834353208542,-0.04902132973074913,-0.9877777695655823,0.7861957550048828,0.05644717440009117,-0.003259852761402726,31.45351791381836,-8.81845474243164,40.01969909667969,0
402,4019683,0.028702540323138237,0.036684807389974594,-0.9582483172416687,-0.6378440856933594,0.6990700960159302,-0.20911484956741333,32.09394454956055,-9.003191947937012,39.40754318237305,0
403,4029694,-0.05812973901629448,0.07283148169517517,-1.0308218002319336,0.3312138617038727,0.04541454836726189,0.20626717805862427,30.064783096313477,-9.877541542053223,40.15007019042969,0
404,4040135,0.0047590602189302444,0.010253201238811016,-0.9969289302825928,0.8653721809387207,-0.5401273369789124,-0.12215331941843033,30.4317569732666,-8.952205657958984,39.87763977050781,0
405,4050041,0.0545012541115284,-0.013750985264778137,-1.0070083141326904,-0.5536512732505798,0.8598244190216064,-0.5322989225387573,30.58358383178711,-10.265545845031738,39.561161041259766,0
406,4059923,0.013235250487923622,-0.0027437107637524605,-1.0034022331237793,0.4858618974685669,0.009466147981584072,-0.018126090988516808,29.955886840820312,-10.800962448120117,41.085636138916016,0
407,4070052,-0.09668795019388199,0.009042377583682537,-0.9799680113792419,0.17792394757270813,0.5807881951332092,0.6406201720237732,29.816190719604492,-9.53935718536377,40.70431900024414,0
408,4079791,-0.05346694216132164,0.06489785015583038,-1.0383659601211548,-0.025029001757502556,0.01763135939836502,0.009932661429047585,29.685779571533203,-10.802294731140137,40.423763275146484,0
409,4090209,0.010821465402841568,-0.17620761692523956,-0.9656885266304016,-0.22012704610824585,0.5763241052627563,-0.13857825100421906,30.978601455688477,-10.914325714111328,41.42698669433594,0
410,4099769,0.04217004030942917,0.10842897742986679,-1.0071430206298828,-0.3646000921726227,-0.469573050737381,-0.02452474646270275,30.65329360961914,-10.507715225219727,40.275001525878906,0
411,4109972,0.019516391679644585,0.0848747119307518,-1.0006204843521118,-0.11880376935005188,-0.1005743071436882,0.29800763726234436,30.23895263671875,-9.57827377319336,39.84154510498047,0
412,4119827,0.06348181515932083,-0.06492841988801956,-0.9956990480422974,-0.8568280339241028,-0.021473148837685585,-0.24099013209342957,30.50990867614746,-10.752466201782227,40.09425354003906,0
413,4129916,-0.06393006443977356,0.05145673453807831,-0.9903809428215027,0.3053573668003082,-0.07455465942621231,0.5443567037582397,29.345252990722656,-10.75364875793457,39.113319396972656,0
414,4139878,-0.025594834238290787,-0.01873999647796154,-0.9953229427337646,-0.2216576486825943,0.3701837658882141,0.9590229392051697,30.428808212280273,-9.551207542419434,39.949493408203125,0
415,4150137,0.06510082632303238,-0.02549649588763714,-0.9799875617027283,-0.6026493906974792,0.13372640311717987,-0.8002879619598389,29.464012145996094,-9.273873329162598,40.37289810180664,0
416,4160078,0.06019124016165733,-0.03180835396051407,-1.0106366872787476,-0.05886215716600418,-0.22554120421409607,-0.3894614577293396,30.492721557617188,-9.192283630371094,39.600685119628906,0
417,4169829,-0.04079156741499901,0.04312378540635109,-1.0069782733917236,-0.6906010508537292,0.15427687764167786,0.5259442925453186,29.560184478759766,-10.888507843017578,38.87800216674805,0
418,4179624,0.008293365128338337,-0.025429710745811462,-0.988655149936676,0.13144807517528534,0.7364814877510071,-0.07643305510282516,29.626251220703125,-9.888291358947754,41.165252685546875,0
419,4190374,-0.009042619727551937,0.02143513225018978,-0.9837931990623474,-0.3288493752479553,0.17013485729694366,0.16494601964950562,29.00600814819336,-9.392972946166992,40.90695571899414,0
420,4200109,0.09176476299762726,-0.05203850194811821,-1.0078165531158447,-0.6223704218864441,-1.0158753395080566,-0.3899550437927246,31.499670028686523,-9.621885299682617,40.13166427612305,0
421,4209994,0.028265943750739098,0.01705894060432911,-1.0264694690704346,0.14005272090435028,-0.5170757174491882,0.33389562368392944,31.070297241210938,-11.681233406066895,42.74875259399414,0
422,4219976,-0.0340060256421566,-0.035294562578201294,-1.0056768655776978,-0.43966612219810486,-0.5701559782028198,0.3018575608730316,28.630430221557617,-7.399806976318359,38.931190490722656,0
423,4230036,0.04106302931904793,-0.07202404737472534,-0.9912583231925964,0.12898297607898712,0.7775135040283203,-1.2967439889907837,30.02918243408203,-10.001901626586914,39.295875549316406,0
424,4240158,-0.04620794579386711,-0.06530670076608658,-1.0349072217941284,-0.6766567826271057,-0.6341765522956848,-0.227728933095932,29.127117156982422,-10.537120819091797,40.01346206665039,0
425,4250063,-0.021333863958716393,-0.056788623332977295,-1.005980372428894,-0.0001197701130877249,-0.47895634174346924,-0.006291182711720467,29.076194763183594,-11.217107772827148,39.30531311035156,0
426,4259995,-0.03988207131624222,-0.06677570939064026,-1.0124893188476562,0.5470863580703735,-0.583357572555542,0.27716702222824097,29.462675094604492,-11.812087059020996,40.61595916748047,0
427,4270024,0.0056236134842038155,0.009522592648863792,-0.9955009818077087,0.37725451588630676,0.44762372970581055,0.6639693975448608,27.981889724731445,-10.910385131835938,40.246803283691406,0
428,4279740,-0.0026541573461145163,-0.005105349700897932,-1.001933217048645,-0.3738161027431488,-0.6515875458717346,0.3258034884929657,29.782087326049805,-11.014759063720703,40.639591217041016,0
429,4290197,0.017972461879253387,0.04854494333267212,-1.020967960357666,0.2507891058921814,-0.3819121718406677,0.23781068623065948,30.006113052368164,-9.335984230041504,40.11960983276367,0
430,4299853,-0.03581589460372925,-0.042807687073946,-1.0084125995635986,-0.2001618593931198,0.13960956037044525,0.024509800598025322,30.172378540039062,-11.508906364440918,36.63290786743164,0
431,4310271,-0.0173158161342144,-0.0332116037607193,-1.038767695426941,-0.33678558468818665,0.282956063747406,-0.759454607963562,30.34123420715332,-9.824336051940918,40.55742645263672,0
432,4319679,-0.060095783323049545,-0.013943354599177837,-1.0308510065078735,-0.5516425967216492,-0.06963367760181427,-0.9700331687927246,28.111467361450195,-9.812047958374023,38.83527755737305,0
433,4329911,-0.007105457130819559,0.007610850036144257,-1.0069901943206787,-0.6093846559524536,-0.47411224246025085,0.15780101716518402,27.983972549438477,-9.941481590270996,39.60924530029297,0
434,4340062,-0.013067926280200481,-0.04095419868826866,-1.0054024457931519,0.6003787517547607,0.5036014318466187,-0.3015633225440979,29.057825088500977,-10.57081127166748,39.232723236083984,0
435,4349661,0.0009960149182006717,-0.018827300518751144,-1.0180314779281616,-0.2943618893623352,-0.2261391431093216,-0.11510340124368668,30.393367767333984,-11.093754768371582,39.6308708190918,0
436,4359900,-0.07206828892230988,-0.05848218873143196,-1.015038251876831,0.7671450972557068,0.32077911496162415,0.8831523060798645,30.41680335998535,-11.37286376953125,41.44685363769531,0
437,4369786,0.075566865503788,-0.010353516787290573,-0.992982029914856,0.28696686029434204,-0.03563190996646881,-0.6537002921104431,30.771472930908203,-9.94993782043457,38.76528549194336,0
438,4380205,0.010003027506172657,0.035164326429367065,-1.0118730068206787,0.42227640748023987,-0.2075529545545578,-0.26300284266471863,30.93689727783203,-9.24051284790039,41.460941314697266,0
439,4390008,-0.030969519168138504,-0.044293154031038284,-0.9442919492721558,0.47802525758743286,-0.5128020644187927,-0.44296711683273315,29.99302864074707,-10.11502456665039,39.682071685791016,0
440,4399907,-0.023886384442448616,-0.053039126098155975,-0.9718040823936462,0.017688166350126266,0.2919336259365082,-0.23780541121959686,30.26329803466797,-9.087971687316895,39.906272888183594,0
441,4409670,0.023487113416194916,0.0056558651849627495,-0.9971821308135986,-0.7329813838005066,0.3491339087486267,-0.7861382365226746,30.440303802490234,-10.136899948120117,39.088706970214844,0
442,4419987,-0.05031384155154228,7.568273576907814e-05,-0.9957506060600281,0.14361509680747986,-0.27921414375305176,0.386953204870224,28.26006317138672,-10.58752727508545,38.36513137817383,0
443,4429946,-0.009166129864752293,0.06903602927923203,-0.9778909683227539,-0.6808316111564636,-0.32404327392578125,-0.007854302413761616,28.43694305419922,-12.598843574523926,39.548500061035156,0
444,4439952,0.022171784192323685,-0.07145047187805176,-0.9946427345275879,0.43655624985694885,0.010411741212010384,-0.7284778952598572,30.829618453979492,-10.789141654968262,39.905967712402344,0
445,4449871,-0.0024572836700826883,-0.07500326633453369,-1.0033107995986938,0.18264222145080566,0.24233129620552063,-0.37836939096450806,29.979442596435547,-8.129380226135254,40.6320686340332,0
446,4460096,0.09813510626554489,0.019625011831521988,-1.0279730558395386,0.27893903851509094,0.7922741770744324,0.627750813961029,30.28143882751465,-10.356496810913086,41.51106643676758,0
447,4470262,-0.02015952207148075,0.009121966548264027,-0.9847862720489502,0.5839942693710327,0.9003491401672363,0.43645867705345154,30.086610794067383,-11.65709114074707,37.20058822631836,0
448,4480357,-0.060132645070552826,-0.01259583979845047,-0.9966245293617249,0.038444094359874725,-0.09495145082473755,-0.23036840558052063,29.354469299316406,-10.420639991760254,39.85409927368164,0
449,4489993,0.011853211559355259,-0.0027995824348181486,-1.006791591644287,0.27723053097724915,0.3348941504955292,0.7755334377288818,31.68869400024414,-9.22144603729248,39.42850875854492,0
450,4500231,-0.07260021567344666,0.00828097015619278,-0.9934402108192444,0.302217960357666,0.26648086309432983,-1.0224190950393677,31.647174835205078,-8.677458763122559,39.817813873291016,0
451,4510241,0.038969751447439194,0.042967747896909714,-1.0197972059249878,0.27328601479530334,-0.630557119846344,-0.31448426842689514,30.10134506225586,-10.993154525756836,40.49116516113281,0
452,4519888,-0.03841202333569527,0.04350843280553818,-1.0477670431137085,0.3919948935508728,0.14639912545681,-0.11188767850399017,30.883514404296875,-9.747878074645996,40.376461029052734,0
453,4530050,-0.05441475659608841,0.09095253795385361,-1.011773943901062,-1.2263695001602173,-0.6176761984825134,-0.4813535213470459,29.665679931640625,-8.984293937683105,40.42732620239258,0
454,4539947,-0.02561912126839161,0.072386234998703,-0.9918887615203857,0.4227123558521271,0.5004169940948486,-0.2606807351112366,29.256797790527344,-9.716170310974121,39.39573669433594,0
455,4550057,0.08499843627214432,-0.004931173752993345,-0.9836905598640442,0.3576009273529053,0.2736031711101532,0.8429338932037354,29.02094078063965,-8.782691955566406,37.36603927612305,0
456,4559913,-0.0035787527449429035,0.03610895574092865,-0.9976591467857361,-1.1363500356674194,-0.15687322616577148,-0.06928788870573044,28.48044204711914,-10.40807056427002,40.01894760131836,0
457,4570248,0.12983588874340057,0.04790341854095459,-0.9744405746459961,0.19752013683319092,-0.6729752421379089,-0.41581812500953674,30.8138484954834,-10.024703025817871,38.6461067199707,0
458,4580080,-0.04291388764977455,0.038771454244852066,-1.0046155452728271,0.5102611184120178,0.6157712936401367,0.0907176211476326,30.97272491455078,-10.48995304107666,39.22222900390625,0
459,4590038,-0.040154825896024704,-0.01835637539625168,-0.9720956087112427,-0.21186503767967224,-0.3165479004383087,-0.728461503982544,31.081016540527344,-11.750718116760254,41.71135330200195,0
460,4599892,0.06469843536615372,-0.03731224313378334,-1.0041049718856812,-0.3139131963253021,0.10901235044002533,-0.1990036964416504,32.0263786315918,-8.674295425415039,40.09994125366211,0
461,4610061,-0.03133804723620415,-0.06679296493530273,-1.039318323135376,-0.0035378416068851948,-0.3544628322124481,-0.0023009944707155228,31.06290054321289,-9.79052734375,39.1571159362793,0
462,4619813,-0.00655304454267025,-0.015920935198664665,-0.9755520820617676,0.6683474779129028,-0.021168168634176254,-0.4314975440502167,30.464359283447266,-10.484406471252441,39.7231559753418,0
463,4630061,0.0637834444642067,0.08231723308563232,-0.9878938794136047,-0.9537754654884338,-0.47342565655708313,0.7651146650314331,28.53583526611328,-11.32767391204834,40.128746032714844,0
464,4639818,0.03557818382978439,-0.011983903124928474,-1.0260670185089111,-0.11123353242874146,0.3396466076374054,0.30885547399520874,29.44231605529785,-9.114051818847656,39.258880615234375,0
465,4649998,0.0349963940680027,0.02106165699660778,-1.0132126808166504,-0.35701626539230347,-0.11514674872159958,0.05902218073606491,31.251996994018555,-10.819804191589355,40.60920333862305,0
466,4660093,0.07808230072259903,0.028388328850269318,-0.9936671257019043,0.09397022426128387,0.5305949449539185,0.7000540494918823,28.42155647277832,-8.17564868927002,38.9428596496582,0
467,4670013,0.19310669600963593,-0.03145311772823334,-1.0172544717788696,0.27622297406196594,0.11871402710676193,-0.09100048243999481,31.990991592407227,-10.810473442077637,39.486236572265625,0
468,4680068,-0.09764784574508667,0.006831426173448563,-0.9770474433898926,0.045096009969711304,0.40354764461517334,0.10185926407575607,30.985763549804688,-10.162986755371094,38.71921157836914,0
469,4689945,0.019662152975797653,-0.10673203319311142,-0.9732481837272644,0.0941070020198822,-0.25198906660079956,0.15128134191036224,31.1134033203125,-10.838004112243652,40.40358352661133,0
470,4700153,-0.029293090105056763,-0.026193050667643547,-1.0425331592559814,-0.027871444821357727,0.5997976660728455,-0.786467969417572,29.9372501373291,-7.528993129730225,39.653263092041016,0
471,4710245,-0.05073020979762077,-0.0010643794666975737,-1.0099414587020874,-0.34326857328414917,0.32809990644454956,-0.07413766533136368,29.366872787475586,-8.872884750366211,40.97722244262695,0
472,4720210,-0.01763967238366604,-0.04144955798983574,-1.0120224952697754,0.3949063718318939,0.624434232711792,-0.3136484622955322,30.152912139892578,-9.108184814453125,41.159725189208984,0
473,4730016,-0.08288870751857758,0.020269600674510002,-1.0328845977783203,0.18610990047454834,0.44663718342781067,0.18143649399280548,30.396940231323242,-11.394216537475586,40.187870025634766,0
474,4739979,0.018735047429800034,0.017989618703722954,-1.0022510290145874,-0.9138320684432983,0.3949334919452667,0.2383701503276825,31.04827880859375,-10.564847946166992,41.02632141113281,0
475,4749969,0.06062041595578194,0.03639368340373039,-1.0139247179031372,0.14066942036151886,0.32536056637763977,0.7870575785636902,30.086864471435547,-9.05626392364502,40.795284271240234,0
476,4759892,0.12227125465869904,-0.004471158143132925,-1.0456135272979736,-0.2381957769393921,0.2516299784183502,0.29957103729248047,30.767934799194336,-10.066485404968262,40.36455535888672,0
477,4769889,-0.11904929578304291,0.007700816262513399,-0.9720978140830994,0.8650897145271301,0.16429980099201202,-0.04125466197729111,29.30544662475586,-11.608939170837402,40.370853424072266,0
478,4779895,0.09404309093952179,-0.007098222617059946,-1.006689429283142,-0.2525937259197235,0.7839924693107605,-1.5170037746429443,31.338476181030273,-11.043569564819336,39.76214599609375,0
479,4790012,-0.06609106808900833,-0.030213497579097748,-0.9609036445617676,0.7019892334938049,-0.30927079916000366,1.337949275970459,29.264999389648438,-10.47148323059082,40.37715530395508,0
480,4799789,0.01253419741988182,-0.03874224051833153,-0.9827180504798889,1.0465635061264038,-0.2171139419078827,0.5852619409561157,29.604106903076172,-10.208072662353516,39.49687194824219,0
481,4809906,0.019661981612443924,-0.030519114807248116,-0.9987897872924805,-0.3345675766468048,0.03969748690724373,0.05123382434248924,28.56499671936035,-10.629656791687012,40.411685943603516,0
482,4819732,0.09093400090932846,-0.009801945649087429,-0.9771521687507629,0.7816324830055237,-0.012761937454342842,-0.623470664024353,30.270076751708984,-10.064889907836914,40.31157684326172,0
483,4830026,0.04513818770647049,-0.012734155170619488,-1.0022302865982056,-0.33791449666023254,-0.5236846804618835,-0.09550969302654266,29.002635955810547,-9.16511344909668,41.028846740722656,0
484,4839984,0.03073030523955822,-0.10593381524085999,-0.9882822036743164,0.0636388510465622,0.33638355135917664,0.2024708390235901,28.955184936523438,-10.5763578414917,39.073280334472656,0
485,4850038,-0.012365709990262985,-0.023444153368473053,-1.0180166959762573,0.033734358847141266,1.2577461004257202,0.012652579694986343,28.506851196289062,-9.808308601379395,40.395565032958984,0
486,4859877,-0.061063069850206375,-0.046704091131687164,-1.003991961479187,-0.2054699957370758,-0.41937190294265747,0.23425215482711792,30.337778091430664,-10.024897575378418,40.77234649658203,0
487,4870040,0.05275120213627815,0.039795249700546265,-0.987634539604187,-0.18054555356502533,0.6892246603965759,0.7199287414550781,31.168289184570312,-9.240687370300293,40.11308670043945,0
488,4879961,0.013668849132955074,-0.0007586798747070134,-0.994223415851593,-0.2982490360736847,0.7846535444259644,-0.9238402843475342,31.040546417236328,-11.034738540649414,37.80546188354492,0
489,4889946,0.041728198528289795,0.04072830453515053,-1.0379228591918945,-0.01935141533613205,0.7306419610977173,0.2314896583557129,31.433013916015625,-9.463879585266113,39.530853271484375,0
490,4899993,0.049394864588975906,0.04450725391507149,-0.9993176460266113,0.6942158341407776,0.2019788771867752,0.8432411551475525,30.0997314453125,-8.910210609436035,39.45889663696289,0
491,4909953,0.042051028460264206,0.018895050510764122,-1.0062615871429443,0.4098108410835266,0.7719606161117554,0.31694045662879944,30.20945930480957,-10.990699768066406,40.83467102050781,0
492,4919996,0.01694222167134285,-0.0497165285050869,-0.9761730432510376,-0.5576037764549255,0.7172035574913025,-0.0495605394244194,28.922086715698242,-8.87332820892334,40.68544006347656,0
493,4929958,0.015531479381024837,0.02368883788585663,-0.9942604303359985,-0.8940009474754333,-0.2742089331150055,0.44156360626220703,29.57847785949707,-9.702322959899902,39.56288146972656,0
494,4939747,-0.017515284940600395,-0.08671712130308151,-1.0186947584152222,-0.39554038643836975,0.27708566188812256,0.8745770454406738,30.767166137695312,-9.728141784667969,39.903961181640625,0
495,4950296,-0.013076120987534523,-0.021348262205719948,-1.0146149396896362,0.4494188725948334,-0.4133923053741455,0.5175082683563232,30.401453018188477,-9.450338363647461,39.82435989379883,0
496,4959948,0.018356455489993095,0.04752909019589424,-1.0101171731948853,0.33238404989242554,0.597023606300354,0.5302736163139343,30.15928077697754,-8.827962875366211,41.30158233642578,0
497,4970192,-0.058384496718645096,0.1396196037530899,-1.003669261932373,0.5764193534851074,0.1622021198272705,-0.3490926921367645,29.191808700561523,-8.817669868469238,39.224273681640625,0
498,4979947,0.00436668423935771,0.0446770079433918,-0.9876059889793396,0.2883843779563904,-0.6048303246498108,-0.35006025433540344,30.080839157104492,-7.471516132354736,41.43387985229492,0
499,4989991,0.018845707178115845,-0.04208071157336235,-1.0237778425216675,0.2559546232223511,0.09398914128541946,-1.0249931812286377,30.691713333129883,-10.589573860168457,40.51054000854492,0
500,4999886,-0.019924843683838844,0.05553179606795311,-0.9932969808578491,-0.21618415415287018,-0.036833345890045166,-0.6049420237541199,30.022979736328125,-9.293511390686035,39.219608306884766,0
501,5010047,0.007130890153348446,0.004539800807833672,-0.9918159246444702,0.09132838994264603,0.09517820924520493,0.42050039768218994,29.966419219970703,-11.504515647888184,40.856407165527344,0
502,5020112,-0.035219866782426834,0.00441348971799016,-1.014772891998291,0.32853564620018005,0.15366417169570923,-0.6681184768676758,29.634485244750977,-9.109232902526855,41.155311584472656,0
503,5029943,0.044234748929739,-0.035981468856334686,-0.9895163774490356,0.744979977607727,0.9372566342353821,-0.22984755039215088,29.424100875854492,-10.499153137207031,40.51862716674805,0
504,5039906,-0.00768687529489398,0.03400619700551033,-1.0072605609893799,0.066276915371418,0.3904644846916199,-0.21410565078258514,29.897136688232422,-9.281529426574707,37.10633850097656,0
505,5049910,0.000597745762206614,-0.05606791377067566,-1.0030864477157593,-1.1175415515899658,-0.25934964418411255,-1.0531610250473022,31.584571838378906,-10.226114273071289,39.87223815917969,0
506,5059903,0.05234114080667496,-0.06185438856482506,-0.9950336813926697,0.258090615272522,-0.008663352578878403,0.1665770560503006,31.992216110229492,-10.498712539672852,40.07894515991211,0
507,5070203,0.10685812681913376,-0.11049869656562805,-0.9890028238296509,0.36057987809181213,-0.2875620126724243,-0.16968229413032532,30.89693260192871,-9.10811710357666,39.72653579711914,0
508,5080469,0.09439655393362045,0.024138817563652992,-0.9811879396438599,0.1506578028202057,-0.15177617967128754,0.09726069867610931,31.844858169555664,-12.000295639038086,40.952232360839844,0
509,5089775,0.01600559614598751,0.05582787096500397,-1.0415860414505005,-1.1713848114013672,-0.17363905906677246,-0.794754683971405,29.28019905090332,-11.504255294799805,40.31119918823242,0
510,5099931,0.07966797053813934,-0.0029831398278474808,-0.9831416010856628,-0.9104412794113159,0.7141377925872803,-0.5732214450836182,29.723257064819336,-10.55506420135498,40.17118835449219,0
511,5110089,-0.04038456827402115,0.007861307822167873,-0.9997981190681458,-0.5100323557853699,0.30717822909355164,-0.06380843371152878,31.86870765686035,-8.69460391998291,40.12039566040039,0
512,5120149,-0.043802425265312195,-0.04964182525873184,-1.0052533149719238,0.3068060278892517,1.099342942237854,-0.0553010068833828,32.023338317871094,-9.005330085754395,40.716285705566406,0
513,5129829,-0.0834522694349289,-0.051038436591625214,-1.053937554359436,-0.26266956329345703,-0.2649429738521576,-0.6606883406639099,30.743892669677734,-9.7731294631958,40.50114059448242,0
514,5139823,0.07516150176525116,-0.03236646205186844,-0.9702920317649841,-0.021178308874368668,-0.496394544839859,0.17348192632198334,30.072507858276367,-10.129429817199707,41.688087463378906,0
515,5149798,0.050508275628089905,-0.009560924954712391,-0.9970021843910217,-0.5158917307853699,0.41360583901405334,0.4808008670806885,27.64177131652832,-10.27883243560791,38.772823333740234,0
516,5159923,-0.08342290669679642,-0.024564966559410095,-1.0042575597763062,-0.6659649014472961,0.06339617073535919,-0.2228851467370987,29.595495223999023,-10.440789222717285,40.46531295776367,0
517,5169824,0.03107227385044098,0.042475100606679916,-1.002005934715271,0.4333711266517639,-0.34958890080451965,-0.06608796864748001,31.0548152923584,-10.61058235168457,38.26170349121094,0
518,5179995,-0.04102040454745293,0.021401723846793175,-0.9751311540603638,0.9489214420318604,-0.3233065605163574,0.9428658485412598,30.963727951049805,-9.280718803405762,38.13499450683594,0
519,5189834,-0.007840599864721298,0.038834623992443085,-1.0000317096710205,0.8160012364387512,0.0541519857943058,-0.3158593475818634,30.922487258911133,-9.293880462646484,39.60326385498047,0
520,5200022,-0.010371011681854725,-0.053392861038446426,-0.9885531663894653,-0.6487801671028137,-0.772228479385376,-0.2917214632034302,29.222612380981445,-10.230321884155273,39.81782150268555,0
521,5209983,-0.045136600732803345,-0.04431036487221718,-1.0376108884811401,-0.16292330622673035,0.11572962254285812,-0.9993606209754944,29.738052368164062,-8.553417205810547,40.17686080932617,0
522,5219843,-0.015515104867517948,0.040893301367759705,-1.0167641639709473,-0.5572289228439331,-1.0711365938186646,0.8251718282699585,28.84539222717285,-9.959424018859863,39.49152374267578,0
523,5229892,0.006173217669129372,-0.008146107196807861,-1.0189300775527954,0.1833193600177765,-0.014542539604008198,-0.7000637054443359,29.894886016845703,-9.335968017578125,40.15062713623047,0
524,5239914,-0.0405367948114872,0.018086226657032967,-1.0200186967849731,-0.2719092071056366,-0.23244427144527435,0.46040675044059753,28.83943748474121,-10.67674732208252,40.12297058105469,0
525,5249994,-0.0001202907005790621,-0.051455654203891754,-0.9972904920578003,0.03703334182500839,-0.289288192987442,-0.486843466758728,30.396238327026367,-10.920024871826172,39.95731735229492,0
526,5259903,-0.08590969443321228,-0.004058905877172947,-0.9940792918205261,-0.5193790793418884,-0.15760664641857147,0.47803184390068054,29.361326217651367,-11.006449699401855,41.22195053100586,0
527,5270205,-0.11300958693027496,0.04454857483506203,-0.9868589639663696,0.07562705874443054,-0.5748206973075867,-0.4479529559612274,28.509719848632812,-10.768792152404785,40.358131408691406,0
528,5279992,-0.0005930104525759816,-0.07089367508888245,-1.025777816772461,0.020758073776960373,0.5602394342422485,-0.6443185210227966,30.06671714782715,-9.86071491241455,40.89988327026367,0
529,5290095,-0.027195410802960396,-0.04349116235971451,-1.000632643699646,1.4396717548370361,0.4970058798789978,-0.7917391657829285,29.457056045532227,-11.061715126037598,40.272403717041016,0
530,5299932,-0.05794261023402214,-0.02572133205831051,-1.037229061126709,0.4847070276737213,-0.23304404318332672,-0.08796548843383789,29.372182846069336,-9.361689567565918,41.6235237121582,0
531,5310140,0.037837058305740356,-0.02661447785794735,-0.9940428733825684,-0.29688093066215515,-0.11869128793478012,-0.3911043703556061,29.392915725708008,-11.205378532409668,41.4231071472168,0
532,5320123,-0.048202257603406906,-0.02252896875143051,-1.0009568929672241,-0.6575355529785156,0.20582208037376404,0.6140584349632263,30.921669006347656,-11.5359468460083,41.18639373779297,0
533,5330143,-0.031197791919112206,-0.0467669814825058,-1.021183967590332,0.08963464945554733,0.44380611181259155,0.32613784074783325,29.60195541381836,-8.898024559020996,38.6907844543457,0
534,5340025,-0.07650396227836609,0.023014090955257416,-0.9896062612533569,0.018650634214282036,-0.4259308874607086,-0.34608495235443115,29.12883758544922,-11.756776809692383,38.77067947387695,0
535,5350046,-0.03523292392492294,0.06363285332918167,-0.974280059337616,-0.011314588598906994,0.4522743225097656,-0.17399892210960388,29.038972854614258,-10.32767105102539,40.60393142700195,0
536,5359981,0.04320980980992317,-0.05274144560098648,-1.00979483127594,-0.29386287927627563,-0.06344611942768097,0.3554816246032715,29.895544052124023,-11.252333641052246,39.942787170410156,0
537,5369911,0.05094151943922043,-0.12998393177986145,-1.0111315250396729,0.12770624458789825,0.0483505018055439,0.11178949475288391,30.40742301940918,-9.639121055603027,39.981571197509766,0
538,5379936,0.010954437777400017,-0.05636482685804367,-1.0291818380355835,-0.6034376621246338,-0.6374693512916565,-0.5444182753562927,28.85427474975586,-9.257878303527832,39.985984802246094,0
539,5390032,-0.006892513949424028,-0.09846470504999161,-0.9816029071807861,-0.2511446177959442,-0.5349121689796448,0.8674365282058716,28.875417709350586,-9.841814041137695,40.74680709838867,0
540,5399942,-0.01314239576458931,-0.02717927284538746,-1.0075229406356812,-0.49473053216934204,0.05781129375100136,0.5069305300712585,30.812488555908203,-10.793970108032227,40.69651412963867,0
541,5409839,0.031794533133506775,0.05727652832865715,-1.0042458772659302,-0.3756278157234192,0.6570501327514648,0.3242727518081665,30.41459846496582,-10.71354866027832,38.410274505615234,0
542,5419798,-0.00488238176330924,0.03960143402218819,-1.0044790506362915,-0.1567625254392624,-0.5122808218002319,0.9570130705833435,29.945751190185547,-11.22441291809082,40.99409484863281,0
543,5429829,0.04492836073040962,0.0143064484000206,-0.9844074845314026,0.6064229607582092,0.7662574648857117,-0.24858158826828003,28.78761863708496,-10.940866470336914,40.442630767822266,0
544,5440184,-0.009034309536218643,-0.019205281510949135,-1.0034892559051514,0.34176164865493774,-0.2748146951198578,0.2551943361759186,30.18783950805664,-10.113099098205566,38.284637451171875,0
545,5450145,-0.0313977375626564,0.017192797735333443,-1.0206444263458252,-0.17282313108444214,-0.4786776602268219,-0.37077075242996216,28.84751319885254,-10.037264823913574,39.7645149230957,0
546,5460007,0.0015393543289974332,-0.02147066220641136,-1.0236681699752808,0.49073928594589233,-0.13869743049144745,-0.8640047311782837,29.55208969116211,-10.147012710571289,40.72136306762695,0
547,5470143,-0.0026367451064288616,0.07497365772724152,-1.0030931234359741,0.017117047682404518,-0.007740374654531479,0.6638829112052917,31.960281372070312,-11.458473205566406,39.167808532714844,0
548,5480062,-0.09752417355775833,-0.05258208140730858,-1.0148506164550781,0.7068182229995728,0.037201177328825,-0.8952745795249939,30.75056266784668,-10.166853904724121,41.13582229614258,0
549,5489786,-0.023481460288167,-0.11589296907186508,-0.9859094619750977,-0.5633257627487183,-0.12863224744796753,0.3011378049850464,29.555835723876953,-9.63637638092041,42.14821243286133,0
550,5500134,-0.08942262828350067,-0.022419117391109467,-0.9752418398857117,0.03198123723268509,-0.41209205985069275,0.2160794734954834,29.150455474853516,-10.485677719116211,39.414642333984375,0
551,5509886,-0.05813699588179588,0.0015219798078760505,-1.0268363952636719,0.3131026327610016,-0.15541468560695648,-0.023012477904558182,30.286752700805664,-11.259339332580566,40.18931579589844,0
552,5519886,0.02596617117524147,0.01603352278470993,-0.9959015846252441,0.16540563106536865,-0.16227425634860992,-0.27400243282318115,29.46766471862793,-10.212210655212402,38.51327896118164,0
553,5529814,-0.08169391751289368,0.03464512526988983,-1.0179368257522583,-0.7692955732345581,0.012401184067130089,0.8377688527107239,30.301633834838867,-9.592260360717773,39.42169189453125,0
554,5540160,0.05934936925768852,-0.022745341062545776,-1.008862853050232,-0.2718650996685028,0.04877597838640213,0.5868262052536011,31.613073348999023,-10.735182762145996,39.67587661743164,0
555,5550054,-0.02611861564218998,-0.0560649149119854,-0.9580451846122742,-0.17327654361724854,-0.3694453239440918,-0.2283845692873001,30.447017669677734,-9.807144165039062,39.15394973754883,0
556,5560190,-0.10420557856559753,-0.07569818198680878,-1.0169087648391724,0.45093685388565063,0.015093461610376835,0.584946870803833,31.085481643676758,-9.177379608154297,39.389591217041016,0
557,5569936,0.05961349979043007,0.024219494313001633,-0.9907481074333191,-0.47991836071014404,-0.08638046681880951,0.23763887584209442,31.30513572692871,-8.338117599487305,40.25526428222656,0
558,5579793,0.013569283299148083,-0.03498874604701996,-1.0085670948028564,0.3656686246395111,0.3462046980857849,-1.1324163675308228,30.70870018005371,-9.695730209350586,39.95779037475586,0
559,5590081,0.033222053200006485,-0.09530381113290787,-0.9769538640975952,0.22019807994365692,0.5951861143112183,0.5028438568115234,29.22480583190918,-10.156652450561523,40.12480545043945,0
560,5600103,0.0569847896695137,-0.0006640294450335205,-1.011057734489441,0.38316959142684937,0.20066295564174652,0.4109518826007843,28.638071060180664,-10.701151847839355,39.99656677246094,0
561,5610154,-0.07829111069440842,0.08388125896453857,-0.9871954321861267,0.5039582252502441,0.5589091777801514,-0.7864235639572144,28.80524253845215,-10.157393455505371,40.940616607666016,0
562,5619665,0.05108644440770149,0.019800473004579544,-0.9764100313186646,0.6892194151878357,0.9866288304328918,-0.5451956987380981,29.203100204467773,-9.065460205078125,39.285667419433594,0
563,5630166,0.02054399996995926,-0.02918807975947857,-0.9790385961532593,0.09187139570713043,-0.05357658863067627,0.15372633934020996,30.097063064575195,-9.960168838500977,38.642242431640625,0
564,5639937,0.03627624362707138,-0.010652447119355202,-1.009669303894043,0.4723249673843384,0.6919253468513489,1.1319810152053833,32.042083740234375,-11.279836654663086,40.31645584106445,0
565,5649937,0.04145018756389618,-0.011470509693026543,-1.0162765979766846,0.1513083279132843,-1.0284024477005005,-0.056986793875694275,29.681657791137695,-10.803641319274902,41.38806915283203,0
566,5659987,-0.006434291135519743,-0.05021725594997406,-1.0250630378723145,0.6736921668052673,0.01409494411200285,0.0822848230600357,31.592945098876953,-9.088289260864258,38.360374450683594,0
567,5669927,-0.12708577513694763,-0.05165914446115494,-1.0009031295776367,-0.2772272229194641,-0.2768668234348297,-0.11665830761194229,30.459999084472656,-8.761570930480957,40.09843444824219,0
568,5679892,-0.03483203798532486,-0.016093971207737923,-1.0252832174301147,0.6613375544548035,-0.08723966032266617,0.3442496955394745,31.011390686035156,-10.116195678710938,39.33328628540039,0
569,5689898,0.05270296707749367,-0.0003184620290994644,-1.0239781141281128,-0.08451095968484879,0.3645511865615845,-0.8915988802909851,31.116701126098633,-10.353129386901855,40.753990173339844,0
570,5699855,0.015109348110854626,-0.09237582236528397,-1.02458918094635,0.8033040165901184,-0.10749601572751999,0.08249683678150177,28.29477882385254,-9.87601089477539,37.680904388427734,0
571,5709991,-0.0399613194167614,0.021796533837914467,-0.9792584776878357,1.2170031070709229,-0.6745254397392273,-0.5040023922920227,29.548370361328125,-10.682284355163574,39.6258430480957,0
572,5720106,-0.0037337541580200195,-0.007291807793080807,-1.007688283920288,0.020735429599881172,-0.030289990827441216,0.09726417064666748,30.14651107788086,-9.961164474487305,40.08332061767578,0
573,5730041,-0.00934881716966629,-0.016753166913986206,-1.019277572631836,-0.5919263958930969,-0.1799887865781784,-0.3392468988895416,30.978878021240234,-10.115982055664062,40.5376091003418,0
574,5739853,0.014277098700404167,-0.08314873278141022,-0.9880191683769226,-0.1434522271156311,-0.4099782705307007,0.31042852997779846,31.293807983398438,-8.65974235534668,41.36503219604492,0
575,5749908,0.015219398774206638,0.0023339048493653536,-1.0059800148010254,0.04290619120001793,-0.3836725056171417,-0.9662962555885315,28.952882766723633,-9.944238662719727,40.27290344238281,0
576,5759938,-0.021678630262613297,0.03033987618982792,-0.9908083081245422,-0.4665294885635376,0.024429209530353546,-0.4933009743690491,31.335243225097656,-11.599397659301758,39.6771125793457,0
577,5770188,-0.00905339140444994,0.027935126796364784,-0.9815651178359985,0.25715169310569763,-0.7554806470870972,-0.3253639340400696,30.461711883544922,-7.961638450622559,40.368614196777344,0
578,5780001,0.0063155838288366795,-0.06187879294157028,-0.9972706437110901,0.1659006029367447,0.4570716619491577,-0.015964055433869362,31.4371280670166,-9.29003620147705,40.11917495727539,0
579,5789948,0.0136351203545928,-0.032465722411870956,-1.014455795288086,0.29140013456344604,0.08351311832666397,-0.20525309443473816,31.1214542388916,-10.124329566955566,39.48980712890625,0
580,5799894,-0.0018494285177439451,-0.04660920798778534,-0.995212733745575,0.8753559589385986,-1.111483097076416,0.34815898537635803,28.368741989135742,-11.493914604187012,40.50072479248047,0
581,5810095,-0.10792681574821472,0.017627393826842308,-1.0013717412948608,-1.1623079776763916,-0.7459520101547241,-0.47141191363334656,30.455684661865234,-8.494197845458984,40.984092712402344,0
582,5820135,0.014256550930440426,0.07263364642858505,-0.9903177618980408,0.7477895617485046,-0.9148141741752625,0.08335195481777191,29.217771530151367,-8.84095573425293,40.43170928955078,0
583,5830322,0.027820250019431114,-0.01865949109196663,-0.9811774492263794,-0.43472954630851746,-0.8878594636917114,1.1623891592025757,31.512269973754883,-11.29525089263916,41.436981201171875,0
584,5839994,0.033244915306568146,0.012869298458099365,-1.0153175592422485,0.11462382227182388,0.730953574180603,-0.23388658463954926,30.37356185913086,-9.356396675109863,40.40894317626953,0
585,5850084,-0.026558734476566315,-0.007737264037132263,-0.9852295517921448,0.013845210894942284,-0.6354478597640991,-0.11700524389743805,29.476783752441406,-9.119029998779297,40.288143157958984,0
586,5859879,0.011417337693274021,-0.08856070786714554,-1.0103490352630615,0.21757477521896362,0.13468603789806366,-0.6507471799850464,29.30520248413086,-8.44066333770752,39.05170822143555,0
587,5870161,-0.000199349713511765,-0.0662575289607048,-0.987535834312439,-0.4740883409976959,-0.6852796077728271,-0.27767428755760193,29.150222778320312,-10.556055068969727,40.01367950439453,0
588,5880083,0.04256619140505791,-0.07760095596313477,-0.9946855902671814,-0.14122310280799866,0.23030579090118408,0.33357417583465576,27.916603088378906,-9.786514282226562,39.945945739746094,0
589,5890028,-0.016483841463923454,0.06599453091621399,-0.9879742860794067,0.7526459097862244,-0.3101893961429596,0.03222895786166191,29.883296966552734,-9.80870532989502,40.4190559387207,0
590,5899899,0.06214897707104683,-0.03500971570611,-1.0177497863769531,-0.24415650963783264,-0.09968045353889465,0.8425140380859375,30.20086097717285,-9.735098838806152,41.530555725097656,0
591,5910378,0.0219280943274498,0.005070921964943409,-0.9792530536651611,-0.21971184015274048,0.1281597763299942,0.26660656929016113,29.2973690032959,-9.413313865661621,39.58792495727539,0
592,5919945,0.02095053717494011,-0.012746002525091171,-0.9766066074371338,-0.2896362543106079,0.7385079264640808,-0.013402690179646015,28.770803451538086,-9.220736503601074,39.16062927246094,0
593,5929900,0.10789663344621658,-0.029991332441568375,-1.0057895183563232,0.020319703966379166,-0.44203895330429077,0.7362068295478821,30.791828155517578,-10.381966590881348,39.904884338378906,0
594,5940046,0.01911086216568947,0.046818509697914124,-1.0316869020462036,-1.215989351272583,0.4816240668296814,0.19902533292770386,31.240875244140625,-10.269869804382324,40.145484924316406,0
595,5949957,-0.03224477171897888,-0.010986085049808025,-1.0170546770095825,-0.2783629298210144,-0.18821828067302704,-0.10286667197942734,28.778316497802734,-8.48554515838623,40.03194046020508,0
596,5960036,0.042549971491098404,0.00872583594173193,-1.0399527549743652,-0.05953535810112953,0.3157050311565399,0.03991864621639252,30.634159088134766,-8.781344413757324,39.480247497558594,0
597,5970031,-0.08326640725135803,0.043051011860370636,-1.0378799438476562,-0.26968565583229065,-0.4184790849685669,0.15142101049423218,30.857332229614258,-8.702242851257324,42.372745513916016,0
598,5979883,-0.06057371199131012,-0.03747246041893959,-1.0148805379867554,-0.022675488144159317,0.31339141726493835,-0.26245230436325073,30.790973663330078,-9.972746849060059,38.79924392700195,0
599,5989856,0.003077837871387601,0.006112146656960249,-1.0204697847366333,0.05019201710820198,0.4153662621974945,0.13274258375167847,29.623382568359375,-10.368074417114258,38.89820098876953,0
600,6000075,-0.009294013492763042,-0.09059847146272659,-0.9862753748893738,-0.8986937403678894,0.15974758565425873,0.038176245987415314,29.726524353027344,-10.950346946716309,38.649906158447266,0
601,6010086,-0.030500685796141624,0.0561094805598259,-1.0018184185028076,-0.7467241287231445,-0.6628538370132446,0.785312831401825,30.213085174560547,-9.657039642333984,39.31715774536133,0
602,6019908,0.014438503421843052,-0.016225632280111313,-0.9910159707069397,-0.6344301700592041,-0.5107754468917847,-0.21237023174762726,28.276142120361328,-10.079569816589355,39.41559600830078,0
603,6029959,-0.039335768669843674,-0.049304306507110596,-1.0180045366287231,0.6265044808387756,0.5319362282752991,0.18116357922554016,30.669342041015625,-9.422056198120117,40.79133987426758,0
604,6040242,-0.010039049200713634,0.05491934344172478,-0.9826477766036987,-0.14931000769138336,-0.4202475845813751,0.7409161329269409,29.925695419311523,-9.857948303222656,40.005069732666016,0
605,6050209,0.054706595838069916,-0.011331891641020775,-0.9534026980400085,-0.7646539807319641,-0.01930246874690056,-0.05559084191918373,30.604816436767578,-11.502265930175781,41.01605224609375,0
606,6059866,-0.0574212446808815,-0.004407790489494801,-0.9870074391365051,0.23026283085346222,-0.4378041625022888,0.1444501429796219,31.070730209350586,-9.178589820861816,39.277503967285156,0
607,6069792,-0.016812127083539963,0.039040230214595795,-0.9751943349838257,-0.8317833542823792,-0.1013377457857132,-0.6275518536567688,30.62332534790039,-9.87977123260498,39.36368179321289,0
608,6080057,-0.07135039567947388,0.06345376372337341,-0.9666992425918579,0.28976038098335266,-0.7457120418548584,0.2993164658546448,29.315441131591797,-10.238125801086426,39.12957000732422,0
609,6090096,0.04801398515701294,-0.030288320034742355,-1.0390809774398804,-0.0013248431496322155,-0.25811225175857544,0.25498130917549133,31.77155113220215,-10.339488983154297,40.038124084472656,0
610,6099884,-0.02057088166475296,-0.07340731471776962,-1.0005748271942139,0.5701043009757996,-0.30690106749534607,-0.20588397979736328,29.8520450592041,-10.404838562011719,41.091514587402344,0
611,6110267,0.07772655785083771,0.014972381293773651,-1.0103046894073486,1.044209361076355,-0.23566028475761414,-0.01626930944621563,30.13149642944336,-11.0275297164917,39.248619079589844,0
612,6119884,-0.014109378680586815,0.006241139955818653,-1.0097944736480713,0.2392226904630661,-0.3470437228679657,0.7928234934806824,28.858858108520508,-9.646450996398926,41.07883834838867,0
613,6130001,0.02235267497599125,0.04482639208436012,-0.9856960773468018,-0.0259869284927845,-0.17961180210113525,-0.042393725365400314,31.69858169555664,-10.133905410766602,40.1789665222168,0
614,6139955,-0.0007767258794046938,-0.0764571949839592,-0.995622992515564,-1.0379968881607056,0.623984158039093,-0.44885483384132385,29.54627799987793,-10.263121604919434,39.00957107543945,0
615,6150008,0.09324615448713303,-0.07564326375722885,-0.9622874855995178,0.30025818943977356,-0.16738705337047577,0.7068493962287903,31.0541934967041,-7.787278175354004,39.11827087402344,0
616,6160258,-0.017832862213253975,-0.04862488433718681,-1.0226174592971802,0.4884154796600342,0.9981858134269714,0.569503664970398,29.647899627685547,-9.551581382751465,40.551048278808594,0
617,6170011,0.051793672144412994,-0.05643690750002861,-1.004759430885315,0.09323354810476303,0.1083168089389801,-0.4759092628955841,30.191810607910156,-10.371359825134277,40.813907623291016,0
618,6180158,0.033285241574048996,0.03314626216888428,-0.9989514946937561,0.1786976009607315,-0.8845589756965637,0.5405962467193604,27.337844848632812,-11.513293266296387,38.733428955078125,0
619,6189936,-0.023324694484472275,-0.010739268735051155,-1.0158672332763672,-0.09277598559856415,0.22246995568275452,0.08650480210781097,29.137737274169922,-9.98246955871582,40.54267501831055,0
620,6200192,-0.07242079824209213,-0.021342318505048752,-0.9806466698646545,0.47142624855041504,-0.6023609042167664,-1.069988489151001,28.834714889526367,-9.396260261535645,40.198368072509766,0
621,6210296,-0.035645369440317154,-0.010449943132698536,-0.9896920919418335,-0.14324313402175903,0.2888886034488678,1.0833908319473267,28.67767333984375,-10.012260437011719,40.392696380615234,0
622,6220086,0.03522966802120209,-0.014207417145371437,-0.9753092527389526,0.029794180765748024,-1.0125819444656372,0.22539077699184418,30.542369842529297,-10.862091064453125,38.956748962402344,0
623,6229839,-0.03629317879676819,0.02337879315018654,-0.9913229942321777,0.5889372229576111,-0.20974041521549225,0.32588449120521545,29.04741859436035,-8.195652961730957,41.771968841552734,0
624,6239983,0.024739887565374374,0.022659707814455032,-1.006725788116455,0.9546135663986206,0.538757860660553,0.9279212355613708,31.151050567626953,-9.71692180633545,39.78664016723633,0
625,6249848,0.045074742287397385,-0.05029723420739174,-0.995531439781189,-0.20407775044441223,0.4065696597099304,-0.5674939751625061,31.028636932373047,-9.278155326843262,39.547611236572266,0
