seq,time_us,ax,ay,az,gx,gy,gz,mx,my,mz,drop_flag
0,0,0.0261786300688982,-0.05491714924573898,-1.012698769569397,0.3890140950679779,0.3189529478549957,0.2067122459411621,30.81151008605957,-9.534564971923828,39.45610809326172,0
1,10298,0.07753893733024597,0.024497447535395622,-0.9967215061187744,0.8384643197059631,0.1522904336452484,-0.2211674600839615,31.34001350402832,-10.869551658630371,39.874717712402344,0
2,20142,0.04404250532388687,0.06936506927013397,-0.9769244194030762,0.18551738560199738,0.3602140247821808,-0.20184828341007233,29.27431869506836,-8.688835144042969,39.551246643066406,0
3,29910,-0.023260576650500298,-0.13634033501148224,-1.0101242065429688,-0.349762886762619,-0.12604378163814545,0.3342131972312927,29.826555252075195,-9.985369682312012,38.349727630615234,0
4,39944,0.1290515661239624,0.02354399859905243,-1.0123679637908936,0.2198430895805359,0.08731278032064438,-0.20579257607460022,28.9635009765625,-10.77181625366211,40.5733642578125,0
5,50076,-0.010619155131280422,-0.020602364093065262,-0.9764854907989502,0.8040661215782166,0.40130940079689026,0.14268958568572998,30.102888107299805,-9.508140563964844,40.90410232543945,0
6,60121,0.03275410085916519,0.014171389862895012,-1.0156999826431274,0.16769830882549286,-0.014079148881137371,0.13986605405807495,30.387493133544922,-10.041167259216309,40.32543182373047,0
7,69895,-0.04387674853205681,0.005674620158970356,-0.9966328740119934,0.39702028036117554,0.6834518313407898,0.0886739194393158,31.194372177124023,-8.933963775634766,38.6446418762207,0
8,80034,0.030606845393776894,0.008576186373829842,-0.9936872720718384,0.6745366454124451,-0.23917987942695618,0.648542582988739,29.883342742919922,-10.380880355834961,39.94279861450195,0
9,89943,0.03735622391104698,0.022040845826268196,-1.0034117698669434,-0.8982365131378174,0.3957391381263733,-0.5521852374076843,31.005382537841797,-11.222685813903809,41.951866149902344,0
10,99868,-0.00834880955517292,0.008421141654253006,-0.9939598441123962,-0.4730757474899292,0.5090840458869934,0.4820120930671692,29.670387268066406,-10.494266510009766,39.39250183105469,0
11,110271,0.046411704272031784,-0.029444023966789246,-1.0207339525222778,0.7416165471076965,-0.5813857913017273,-0.12284108251333237,29.097768783569336,-9.903203010559082,38.26629638671875,0
12,119920,0.05353717505931854,-0.024486660957336426,-0.9966200590133667,0.6259171366691589,-0.08657842874526978,-0.3186255991458893,29.66954803466797,-9.998027801513672,39.63718795776367,0
13,130030,0.037896398454904556,0.046965692192316055,-0.9884488582611084,0.1724041998386383,-0.11536648124456406,0.2603875696659088,30.528602600097656,-9.219914436340332,39.66027069091797,0
14,140180,0.02129744365811348,0.08761905133724213,-1.0186799764633179,-1.3946219682693481,0.17057190835475922,0.26901566982269287,28.683284759521484,-10.275901794433594,40.33523178100586,0
15,149934,0.06144874170422554,0.0418362058699131,-1.0114326477050781,0.4891033172607422,0.17900002002716064,-0.39626792073249817,28.88118553161621,-9.335243225097656,39.59046173095703,0
16,160170,-0.006644733715802431,0.1165492832660675,-0.9892098903656006,-0.5188828706741333,-0.16758906841278076,0.042983535677194595,30.53289031982422,-11.319314956665039,40.2303581237793,0
17,170117,-0.04800666496157646,-0.006555117666721344,-0.9960269331932068,-0.16568520665168762,0.6601083278656006,0.17181983590126038,30.09426498413086,-10.942744255065918,39.28934860229492,0
18,180054,0.07496688514947891,0.0018066962948068976,-1.0058571100234985,0.43797990679740906,-0.20474815368652344,-0.05269299075007439,30.97547149658203,-9.3995361328125,39.52964401245117,0
19,190179,0.008672020398080349,-0.032192621380090714,-0.9746668338775635,-0.21330609917640686,-0.29274535179138184,-0.4453079402446747,28.8323974609375,-10.338174819946289,39.18446731567383,0
20,199672,-0.016999943181872368,0.005780055187642574,-0.98723965883255,0.14124809205532074,0.34001675248146057,-0.1907135248184204,29.591657638549805,-10.817809104919434,40.72079849243164,0
21,209939,0.044835902750492096,-0.00864473544061184,-0.9673289656639099,0.09013387560844421,-0.7224613428115845,-1.0524712800979614,30.085994720458984,-10.612595558166504,40.24174118041992,0
22,220349,0.02018951065838337,0.03971913829445839,-0.9969131946563721,0.8660306930541992,0.4236290156841278,0.722481369972229,32.026485443115234,-7.670733451843262,39.23891830444336,0
23,230254,0.04238869622349739,0.010288411751389503,-1.010466456413269,1.1711894273757935,0.25784263014793396,0.42937520146369934,29.16291618347168,-10.680573463439941,41.04588317871094,0
24,239802,0.05039030313491821,0.04931202530860901,-0.9497555494308472,0.08179662376642227,-0.3266236186027527,-0.5192282795906067,30.716915130615234,-9.338127136230469,40.537940979003906,0
25,250182,-0.01751295104622841,-0.0018007291946560144,-1.0224100351333618,-0.5290588140487671,1.181077003479004,0.48797059059143066,29.357881546020508,-10.603020668029785,39.60072708129883,0
26,259989,0.039815787225961685,-0.08292628079652786,-1.0111424922943115,0.5456440448760986,-0.20692773163318634,-0.16741804778575897,32.02630615234375,-12.357104301452637,40.70493698120117,0
27,269909,-0.01915009506046772,0.04591459035873413,-0.9827764630317688,0.7433659434318542,0.7648255825042725,0.27899792790412903,29.89876937866211,-10.896659851074219,40.71738052368164,0
28,280094,0.028139345347881317,-0.058613717555999756,-0.9463272094726562,-0.2676127552986145,0.5352981686592102,-0.12287503480911255,28.241127014160156,-10.05685806274414,38.82666778564453,0
29,289903,0.03912682086229324,-0.045611314475536346,-1.0521105527877808,0.2611868381500244,-0.5712930560112,-0.8997672200202942,30.95103645324707,-9.528294563293457,41.92609405517578,0
30,300252,-0.004809857811778784,0.03825433552265167,-1.0309804677963257,-0.08191414177417755,-0.3529752790927887,0.4402536451816559,29.534692764282227,-7.687474727630615,40.982093811035156,0
31,309877,0.04246086627244949,0.01551415678113699,-1.021868348121643,-0.029999911785125732,-0.8284791111946106,-0.051801037043333054,28.901538848876953,-10.502971649169922,38.728450775146484,0
32,320053,-0.030504338443279266,-0.018101146444678307,-1.0255728960037231,0.9573237299919128,-0.05503905937075615,-0.16495560109615326,29.62393569946289,-11.147525787353516,40.1361198425293,0
33,329828,-0.08539421856403351,-0.023969734087586403,-0.9963295459747314,0.09693393856287003,-0.6777259707450867,-0.37854841351509094,30.41782569885254,-9.229393005371094,39.95047378540039,0
34,340046,0.058767709881067276,-0.035205088555812836,-0.9768625497817993,0.437826544046402,0.5566499829292297,-0.34457677602767944,30.383102416992188,-12.0503568649292,38.4744873046875,0
35,349771,0.036677367985248566,-0.03792218118906021,-0.9931027889251709,0.4606717824935913,-0.6065423488616943,0.35382452607154846,30.07184410095215,-9.247926712036133,39.4526252746582,0
36,360050,-0.0024219939950853586,0.015173586085438728,-0.943118155002594,-0.5323051810264587,-0.8882357478141785,1.2551918029785156,29.971107482910156,-9.383496284484863,40.64191818237305,0
37,369796,-0.016773240640759468,0.008078844286501408,-0.9971617460250854,-0.021300960332155228,0.2905235290527344,0.5476056933403015,27.944969177246094,-8.029230117797852,40.90509796142578,0
38,379842,-0.0009733401820994914,-0.04782427102327347,-0.9751987457275391,0.7398293018341064,0.1564239263534546,0.24699577689170837,30.593063354492188,-10.700318336486816,41.72465515136719,0
39,389782,0.051654089242219925,-0.008892868645489216,-1.0333715677261353,-0.1806861013174057,0.41878265142440796,0.4613649249076843,29.87920379638672,-10.996611595153809,39.9847526550293,0
40,400298,0.010131164453923702,0.0972808450460434,-0.9433501362800598,0.27882903814315796,0.09949859231710434,-0.44578880071640015,29.9736385345459,-9.554821968078613,42.738346099853516,0
41,410130,-0.03358693793416023,-0.004682918544858694,-0.9902792572975159,1.7659865617752075,0.0719718337059021,-0.3710958957672119,30.03034019470215,-10.528120040893555,39.51661682128906,0
42,419973,-0.06629933416843414,0.0318758524954319,-0.9997864365577698,0.9145792722702026,-0.27171000838279724,-0.007624535355716944,29.24688148498535,-9.92656135559082,40.411075592041016,0
43,429963,-0.08646469563245773,-0.0010243641445413232,-1.0233079195022583,1.026031732559204,0.30639731884002686,0.1781117022037506,30.50188636779785,-10.892180442810059,38.73844909667969,0
44,439973,0.011473387479782104,0.07038243114948273,-1.0136115550994873,-0.30799588561058044,0.02014169842004776,-0.10706089437007904,29.693042755126953,-10.930889129638672,38.80049514770508,0
45,449920,0.07003431767225266,-0.00652276212349534,-1.0114448070526123,0.8406193256378174,-0.06204540282487869,0.7435579895973206,29.757143020629883,-9.904440879821777,40.320377349853516,0
46,460048,0.009495560079813004,0.017297465354204178,-0.9693278670310974,-0.3828625977039337,-0.8087754845619202,-0.00767152663320303,29.614887237548828,-9.652074813842773,39.249610900878906,0
47,469784,-0.029543036594986916,-0.0020503876730799675,-1.0098435878753662,0.05668644607067108,0.7851056456565857,0.08240686357021332,30.080413818359375,-9.79195785522461,38.340606689453125,0
48,480084,0.00346923153847456,-0.05830476060509682,-1.0054084062576294,0.09541922062635422,-0.7692455649375916,-0.11351580917835236,29.339143753051758,-8.82930850982666,40.0081787109375,0
49,489911,0.011253977194428444,-0.011216835118830204,-0.9913822412490845,-0.29844778776168823,-0.3261408805847168,0.24704807996749878,32.7923583984375,-9.796502113342285,39.951820373535156,0
50,499817,-0.041473545134067535,-0.02036668360233307,-1.012596845626831,-0.21251554787158966,-0.06741183996200562,-0.37527725100517273,30.83512306213379,-10.843353271484375,41.31626510620117,0
51,510105,-0.012442218139767647,0.030551526695489883,-0.9879793524742126,0.2107211947441101,0.04213407263159752,0.7601470351219177,30.023685455322266,-10.082595825195312,41.31922912597656,0
52,519912,-0.02155996486544609,0.048022665083408356,-0.9693830013275146,0.05262609198689461,-0.5880483388900757,-0.20598246157169342,29.209423065185547,-11.5616455078125,40.73302459716797,0
53,530074,0.046313777565956116,0.04712706431746483,-1.0254520177841187,0.08592241257429123,-0.3426200747489929,-0.19008927047252655,28.514936447143555,-10.783615112304688,40.530120849609375,0
54,540080,0.042188793420791626,-0.0025372656527906656,-1.0061672925949097,0.0033746957778930664,0.44709911942481995,-0.24192924797534943,31.297964096069336,-8.007112503051758,40.22711944580078,0
55,549831,0.012436741031706333,0.023244770243763924,-1.0087844133377075,-0.10490278154611588,0.7995420098304749,-0.011387290433049202,30.073833465576172,-8.94464111328125,39.6032829284668,0
56,559965,0.07155443727970123,0.025346187874674797,-0.9875622987747192,-1.1817309856414795,0.5737654566764832,0.5026745200157166,29.532289505004883,-10.090441703796387,39.57093048095703,0
57,570075,0.036843281239271164,-0.06670757383108139,-1.003474473953247,-0.17664755880832672,-0.2524521052837372,-0.859344482421875,31.21576690673828,-9.973077774047852,38.749473571777344,0
58,579876,0.08148915320634842,0.16163983941078186,-0.9893847107887268,0.5391956567764282,0.09354627132415771,-0.09960304200649261,29.961956024169922,-10.16234016418457,39.64163589477539,0
59,590056,-0.008357351645827293,0.04664616286754608,-1.0384461879730225,0.3065740466117859,0.016670119017362595,0.053560517728328705,29.540542602539062,-9.50311279296875,39.60348892211914,0
60,599968,0.061545271426439285,-0.07532596588134766,-0.9926880598068237,-0.04372258111834526,-0.15568174421787262,0.8688355684280396,30.77098274230957,-9.797433853149414,40.043846130371094,0
61,610059,-0.017508920282125473,0.01821615919470787,-1.0075623989105225,0.34504324197769165,-0.048270467668771744,1.351313829421997,32.44710159301758,-9.823064804077148,39.23679733276367,0
62,619835,-0.04415382444858551,-0.009792192839086056,-0.9798795580863953,-1.0959548950195312,-0.20341598987579346,-0.15121209621429443,30.049528121948242,-10.761428833007812,38.997711181640625,0
63,630116,0.04242410138249397,0.01103195734322071,-0.9820467829704285,-0.2993064224720001,0.03501834347844124,0.9756598472595215,29.75424575805664,-10.645883560180664,39.569026947021484,0
64,640179,-0.013688373379409313,0.008782519027590752,-0.9991872906684875,0.015731893479824066,-0.8143102526664734,-0.8612352013587952,28.679649353027344,-10.741482734680176,40.86211013793945,0
65,650008,-0.0024508722126483917,-0.008442855440080166,-0.9921427965164185,0.22990842163562775,-0.11437596380710602,-0.2545229196548462,29.719083786010742,-9.794666290283203,39.04720687866211,0
66,660118,0.030348194763064384,-0.022937187924981117,-1.0099372863769531,-0.23469668626785278,-0.3551786541938782,0.9891175627708435,30.6058406829834,-10.235041618347168,39.56590270996094,0
67,670083,-0.023319480940699577,-0.02705182321369648,-0.9443539381027222,-0.2223309874534607,0.641924262046814,-0.14741931855678558,29.17621612548828,-9.404139518737793,37.84331512451172,0
68,680080,-0.03286822885274887,0.07547243684530258,-1.0165715217590332,0.23769532144069672,-0.10878722369670868,-0.34337612986564636,31.15620994567871,-10.536955833435059,40.112281799316406,0
69,690085,0.02294025383889675,-0.01822684518992901,-0.9724593162536621,-0.5094789862632751,-0.3280034065246582,0.40489068627357483,29.69264793395996,-10.948929786682129,39.13837814331055,0
70,699999,0.05318489298224449,0.029246747493743896,-0.9937978982925415,-0.9285043478012085,0.24894113838672638,0.6286136507987976,27.345430374145508,-11.73253345489502,40.0589599609375,0
71,709906,-0.015030513517558575,-0.025292236357927322,-1.016174077987671,-0.18535320460796356,-0.08400998264551163,0.2062438279390335,30.105697631835938,-10.195091247558594,42.085662841796875,0
72,719933,-0.001646449789404869,0.07385403662919998,-1.025761365890503,0.05306116119027138,0.2651423513889313,0.7735534906387329,30.574642181396484,-9.579182624816895,40.6780891418457,0
73,730085,-0.019275622442364693,-0.07773810625076294,-0.9951547384262085,-0.04474298655986786,0.2335081696510315,-0.4527667164802551,30.371883392333984,-9.606450080871582,39.114097595214844,0
74,739893,-0.11418371647596359,0.005457045044749975,-1.010005235671997,-0.2185746133327484,-0.7268985509872437,0.018183378502726555,28.757810592651367,-9.888030052185059,38.273494720458984,0
75,750281,-0.024820838123559952,-0.06269007176160812,-1.0163418054580688,0.4729391038417816,-0.4160953164100647,0.45688363909721375,30.7497615814209,-10.258493423461914,40.259674072265625,0
76,759977,-0.04979439079761505,0.07203132659196854,-0.9666194319725037,0.3795523941516876,-0.08557861298322678,-0.7283923625946045,29.91823387145996,-11.631695747375488,39.643638610839844,0
77,769865,-0.02572343870997429,0.008922985754907131,-0.9903369545936584,0.22895555198192596,0.14759701490402222,-0.23339329659938812,31.461200714111328,-11.039334297180176,39.92434310913086,0
78,779982,0.040436018258333206,-0.02275083400309086,-1.0398266315460205,0.48527097702026367,-0.7898246049880981,-0.8451073169708252,29.306758880615234,-9.615365028381348,41.144325256347656,0
79,790021,0.033791281282901764,-0.08237217366695404,-1.038072943687439,-0.34640419483184814,-0.4588170349597931,-0.5626186728477478,31.35350799560547,-9.822930335998535,42.53758239746094,0
80,799796,0.050095830112695694,0.018723974004387856,-0.985534131526947,-0.7106298208236694,0.2558847665786743,0.21168965101242065,28.293292999267578,-10.697903633117676,40.057865142822266,0
81,809737,0.012021004222333431,0.010174782946705818,-0.9923657178878784,-0.3898662328720093,-0.8077045679092407,0.5200816988945007,29.281911849975586,-8.80801773071289,39.991477966308594,0
82,819945,0.12465909868478775,-0.004851573146879673,-0.9879772663116455,0.1214403286576271,-0.10041940212249756,-0.21553932130336761,32.985923767089844,-10.123541831970215,39.197792053222656,0
83,830290,-0.03708900138735771,-0.07491345703601837,-0.9844111204147339,0.44763192534446716,-0.3041154742240906,-0.051980581134557724,29.567995071411133,-9.946582794189453,41.40301513671875,0
84,840031,-0.023525165393948555,0.0015220505883917212,-1.0003015995025635,0.10241127759218216,0.7682210206985474,-0.06042217090725899,30.670269012451172,-10.215898513793945,39.20623016357422,0
85,849840,-0.09322977066040039,-0.014765573665499687,-0.9859981536865234,-0.23912163078784943,0.21383018791675568,-0.13869202136993408,29.012081146240234,-11.472548484802246,40.71198272705078,0
86,860014,-0.012120059691369534,0.0072179134003818035,-0.9981971383094788,0.6012870073318481,0.6734886169433594,-0.11503345519304276,28.68670082092285,-11.21848201751709,39.26619338989258,0
87,869819,-0.04902665317058563,0.034317079931497574,-1.010907769203186,-0.20479780435562134,0.25568023324012756,-0.2295277714729309,28.038602828979492,-10.695988655090332,39.82471466064453,0
88,879858,0.006317667197436094,0.02994736284017563,-0.9906603693962097,-0.747662365436554,-0.3920130729675293,1.006397008895874,30.9250431060791,-10.487812042236328,39.290550231933594,0
89,890018,0.020979106426239014,-0.00552478339523077,-0.9731980562210083,-0.18244606256484985,0.4724064767360687,-0.24468548595905304,29.562788009643555,-10.164196968078613,39.502784729003906,0
90,899950,-0.06336960196495056,-0.017269842326641083,-1.0038954019546509,-1.053088665008545,0.4405982196331024,0.017288358882069588,30.50179672241211,-9.148357391357422,41.139461517333984,0
91,909913,0.05361562594771385,0.030020419508218765,-0.9983973503112793,-1.123633861541748,0.13030746579170227,-0.44653308391571045,29.55750274658203,-8.783182144165039,38.74490737915039,0
92,919943,-0.026712041348218918,-0.014514672569930553,-1.0039024353027344,0.20467722415924072,0.37818989157676697,0.4574369490146637,27.756607055664062,-8.944453239440918,41.78728103637695,0
93,930084,-0.02885834127664566,-0.13781562447547913,-1.0071114301681519,-0.6129504442214966,-0.026378147304058075,0.9399665594100952,30.428829193115234,-9.556984901428223,39.26466751098633,0
94,940091,0.024853650480508804,0.07449182868003845,-1.0306406021118164,0.3612012267112732,-0.12762698531150818,0.9652515649795532,30.52918815612793,-10.827337265014648,41.32439041137695,0
95,950082,-0.0013759252615272999,0.09118872880935669,-1.0042991638183594,0.09420833736658096,0.46695518493652344,-0.7697082757949829,30.340925216674805,-9.473618507385254,39.83187484741211,0
96,960158,0.005735311191529036,0.027995511889457703,-0.9946833252906799,-0.2559775710105896,-0.3995608687400818,0.0429900698363781,30.407176971435547,-9.909690856933594,40.40434265136719,0
97,969951,-0.0405476875603199,-0.077056385576725,-1.0105615854263306,-0.32295942306518555,0.34569278359413147,-0.0023691756650805473,29.04148292541504,-8.528852462768555,40.0392951965332,0
98,980205,0.006276441738009453,-0.03799796104431152,-1.0350593328475952,0.2807672321796417,-1.1204497814178467,-0.089989572763443,29.463626861572266,-10.508814811706543,40.00602340698242,0
99,989878,0.02400677651166916,-0.05897282436490059,-1.0491102933883667,1.2123233079910278,-0.41155362129211426,0.2925832271575928,29.057998657226562,-8.710830688476562,40.090763092041016,0
100,999915,-0.044582657516002655,0.031424473971128464,-0.9880834221839905,0.3599413335323334,0.5302619338035583,0.45116811990737915,29.10015296936035,-9.718796730041504,40.63027572631836,0
101,1010362,0.051326557993888855,0.013193759135901928,-0.9965505003929138,0.7276967167854309,0.10899285227060318,-0.17396976053714752,28.680490493774414,-8.550195693969727,40.39237976074219,0
102,1019902,-0.036126334220170975,0.06975676864385605,-1.0065581798553467,0.7332382798194885,-0.32592523097991943,0.17244106531143188,31.21531867980957,-8.056472778320312,40.14441680908203,0
103,1029849,0.01791216991841793,-0.10057506710290909,-1.0044559240341187,0.2438439279794693,0.5981093049049377,-0.06822273880243301,29.67957305908203,-10.722357749938965,40.509090423583984,0
104,1039966,0.04074906185269356,0.11356882005929947,-1.0128300189971924,0.21595034003257751,-0.1269056797027588,1.1215862035751343,29.875171661376953,-8.895244598388672,39.48486328125,0
105,1049689,0.028438597917556763,0.04751557111740112,-1.0262646675109863,0.3596011996269226,0.365652471780777,-0.664048433303833,29.2788028717041,-10.3475341796875,38.46260452270508,0
106,1060012,0.07967333495616913,-0.020933853462338448,-0.9664596319198608,0.09280380606651306,0.16021418571472168,-0.11301007121801376,28.70143699645996,-9.77745532989502,41.319252014160156,0
107,1070194,0.029907619580626488,0.0024158372543752193,-0.9922509789466858,0.2906528413295746,0.17454424500465393,-0.3481776714324951,30.26631736755371,-10.458464622497559,40.30254364013672,0
108,1080134,-0.05752501264214516,-0.0511963851749897,-0.9925532937049866,0.3487241566181183,0.5168959498405457,1.119937539100647,29.402616500854492,-9.703625679016113,39.69315719604492,0
109,1090014,-0.0006804998265579343,-0.019191130995750427,-0.9463179111480713,-0.41526487469673157,-0.4712250530719757,-0.3172370195388794,29.713232040405273,-11.525378227233887,38.9036750793457,0
110,1100296,-0.01562659814953804,-0.03165460750460625,-0.9705895781517029,-0.34072449803352356,-0.5584347248077393,0.21038460731506348,30.37279510498047,-8.568964958190918,38.756072998046875,0
111,1110156,0.017128651961684227,-0.008618221618235111,-0.991984486579895,0.3309755325317383,-0.029055355116724968,0.0757698193192482,29.700733184814453,-10.50757122039795,39.25559616088867,0
112,1120234,0.014437003061175346,-0.12792350351810455,-0.9821890592575073,-0.6973386406898499,0.35455483198165894,0.452226847410202,30.229541778564453,-9.690641403198242,41.41648864746094,0
113,1130124,-0.017509285360574722,-0.017522482201457024,-1.0144140720367432,-0.2845986485481262,-0.2301962673664093,-0.11483436822891235,30.89733123779297,-10.905669212341309,41.44590759277344,0
114,1140103,0.006599095184355974,0.014672325924038887,-1.020987629890442,-0.8660193681716919,-0.16164690256118774,-0.23987983167171478,30.935848236083984,-9.06655216217041,38.17189025878906,0
115,1149809,0.08663789927959442,0.01396472193300724,-0.9809736013412476,0.6150351166725159,-0.1405642032623291,0.326031357049942,28.980852127075195,-9.850151062011719,39.08963394165039,0
116,1160174,0.024549564346671104,0.033951789140701294,-1.0183323621749878,-0.4058876931667328,0.8195773959159851,0.12111719697713852,29.074596405029297,-10.215330123901367,39.47789764404297,0
117,1169875,0.11017423123121262,0.0016273909714072943,-1.0433731079101562,0.6025013327598572,0.0885031446814537,0.269501656293869,29.75847625732422,-8.88680362701416,41.95701217651367,0
118,1180007,-0.03804443031549454,0.01118449680507183,-1.0109021663665771,1.2326366901397705,0.10057682543992996,0.3643377125263214,29.433422088623047,-9.250373840332031,37.61739730834961,0
119,1189973,-0.0942598357796669,0.0317431315779686,-1.0514107942581177,-0.21690526604652405,0.44448181986808777,-0.7191406488418579,30.948833465576172,-10.375417709350586,41.030574798583984,0
120,1199896,0.042102109640836716,0.025775816291570663,-1.0126992464065552,-0.25888219475746155,0.7648728489875793,-0.11539312452077866,30.517309188842773,-11.024949073791504,39.189327239990234,0
121,1209863,0.03749831020832062,-0.03380700573325157,-1.006206750869751,0.20616202056407928,0.07467067986726761,0.587925136089325,29.730308532714844,-11.564384460449219,39.98601531982422,0
122,1220160,-0.05508863925933838,0.010787570849061012,-1.0021969079971313,0.5972526669502258,-0.5587373971939087,-0.11936382204294205,29.753578186035156,-10.204204559326172,40.57424545288086,0
123,1229986,-0.09361833333969116,-0.08464492857456207,-1.0108493566513062,0.47377437353134155,0.15071097016334534,-0.042370714247226715,29.90121078491211,-9.302573204040527,39.31266784667969,0
124,1239943,0.04897506535053253,0.047997064888477325,-1.0026464462280273,0.1350894719362259,-0.5231581330299377,-0.0021113473922014236,29.012226104736328,-9.446161270141602,39.99185562133789,0
125,1249895,-0.06939933449029922,-0.07811756432056427,-1.0186508893966675,-0.1262652575969696,0.2454979568719864,-0.10654007643461227,29.8016357421875,-9.77562141418457,39.791717529296875,0
126,1260145,0.07277104258537292,0.025171415880322456,-0.9900360703468323,0.1766349822282791,-0.1577901691198349,0.30313411355018616,30.86903953552246,-9.327683448791504,39.709312438964844,0
127,1269797,-0.0077461302280426025,0.02758147567510605,-1.0270007848739624,0.48277169466018677,1.075853943824768,0.19694942235946655,29.691720962524414,-10.979548454284668,40.413883209228516,0
128,1280311,-0.00596927385777235,-0.019355617463588715,-0.9937077164649963,0.23316048085689545,1.0153261423110962,-0.15150344371795654,31.012754440307617,-10.208049774169922,40.9360466003418,0
129,1289789,-0.00666044233366847,-0.05146166309714317,-1.0036861896514893,0.07464101910591125,0.47028106451034546,0.5785106420516968,30.760339736938477,-10.566460609436035,40.56956100463867,0
130,1299960,0.11890336871147156,0.015250764787197113,-0.9589273929595947,-0.2524285912513733,-0.048142753541469574,0.7212940454483032,31.114948272705078,-11.228266716003418,39.34151077270508,0
131,1309997,0.035822149366140366,-0.05119306966662407,-0.971493124961853,0.3754599094390869,0.10663236677646637,0.24649076163768768,30.903919219970703,-9.451430320739746,39.7087287902832,0
132,1320102,0.016869468614459038,-0.012423002161085606,-1.0285568237304688,0.02209349349141121,0.19155174493789673,-0.6132535338401794,28.462182998657227,-11.149903297424316,38.82943344116211,0
133,1330053,-0.05062629655003548,-0.0922781452536583,-1.0267466306686401,0.5454978346824646,0.7031237483024597,0.2148757427930832,30.067358016967773,-9.970465660095215,40.086021423339844,0
134,1340024,0.0279495008289814,-0.032055843621492386,-0.9853730201721191,0.39653345942497253,0.2838214933872223,-0.43126213550567627,29.6678409576416,-11.323022842407227,39.017601013183594,0
135,1349912,-0.05587604641914368,-0.008606970310211182,-1.004761815071106,-0.3415946662425995,0.09046682715415955,-0.08712717890739441,28.51069450378418,-8.831335067749023,38.36991882324219,0
136,1359991,0.03652792051434517,0.11860460042953491,-1.003153681755066,-0.1721741408109665,-0.877899706363678,-0.13080699741840363,30.170555114746094,-7.856781005859375,41.074684143066406,0
137,1370015,0.008363820612430573,0.04336726665496826,-0.9930535554885864,-0.1412637084722519,0.47873029112815857,-0.02284271828830242,30.436172485351562,-10.776095390319824,40.66891098022461,0
138,1379948,0.014527199789881706,0.01906587742269039,-0.9827727675437927,-0.7311103940010071,0.4603610634803772,-0.6833178997039795,30.727933883666992,-9.688606262207031,39.83115005493164,0
139,1389937,0.05256928876042366,-0.07830300182104111,-1.0068273544311523,0.6065550446510315,0.28193041682243347,0.5728127956390381,30.900148391723633,-9.993926048278809,39.88882064819336,0
140,1400107,-0.05365839973092079,0.03166086599230766,-1.0464779138565063,0.1082417219877243,0.35034215450286865,-0.3844754993915558,29.811614990234375,-10.822171211242676,39.84504699707031,0
141,1409957,-0.020089542493224144,0.02259771153330803,-0.9825701117515564,1.279373288154602,1.0608667135238647,0.05174681544303894,26.67473030090332,-10.441295623779297,40.479923248291016,0
142,1419834,-0.026039758697152138,0.028660526499152184,-1.0385689735412598,0.879305362701416,-0.042205508798360825,-0.3016926050186157,29.3562068939209,-10.836565017700195,39.59914016723633,0
143,1429918,0.08333636075258255,0.0640186294913292,-1.0105057954788208,-0.8105741739273071,-0.16492131352424622,-0.3071441650390625,30.73615837097168,-9.53815746307373,40.61216735839844,0
144,1439797,-0.011890407651662827,0.07679012417793274,-0.9719480872154236,-0.42953211069107056,0.03840719535946846,-0.8985087871551514,28.77916145324707,-7.453754425048828,39.634220123291016,0
145,1449750,-0.06641238182783127,-0.08842673152685165,-0.9909449219703674,-0.02191346138715744,-0.29650628566741943,-0.10653567314147949,27.88849639892578,-9.696294784545898,38.84575271606445,0
146,1459977,0.04303838685154915,-0.05411721020936966,-1.0079418420791626,-0.27458444237709045,0.3779540956020355,0.16320140659809113,29.23570442199707,-10.341439247131348,39.20878982543945,0
147,1469857,-0.03045905940234661,-0.005975470412522554,-0.9782934784889221,0.43084222078323364,-0.17833039164543152,-0.7923679351806641,30.24526023864746,-10.759774208068848,41.264434814453125,0
148,1479978,0.049464210867881775,0.038212645798921585,-1.0031741857528687,0.5331410765647888,0.20747311413288116,0.2438656985759735,31.256366729736328,-9.000697135925293,39.936920166015625,0
149,1489965,-0.014393160119652748,-0.031649813055992126,-0.9693347811698914,0.49147194623947144,0.20455551147460938,0.6784878373146057,28.14301109313965,-10.909465789794922,39.578006744384766,0
150,1499925,-0.059738077223300934,-0.08988885581493378,-0.981916606426239,-0.003520146245136857,0.5377047657966614,0.4881948232650757,31.137725830078125,-11.627063751220703,40.23936080932617,0
151,1510055,0.020000485703349113,0.019469428807497025,-1.0312856435775757,-0.42973804473876953,0.11416791379451752,0.6230600476264954,29.16326332092285,-10.795032501220703,39.364749908447266,0
152,1520019,-0.029806118458509445,-0.06790272891521454,-0.9791368842124939,0.20283891260623932,0.6943705677986145,-0.0026339979376643896,31.126554489135742,-9.507226943969727,40.23793029785156,0
153,1529931,0.06347260624170303,-0.007537569385021925,-0.9736854434013367,-0.35485848784446716,-0.09590576589107513,-0.43710097670555115,29.722002029418945,-10.58784294128418,41.0552978515625,0
154,1539950,0.00904913991689682,0.00873431097716093,-1.01857590675354,0.7855024933815002,0.24187378585338593,0.4775504469871521,30.99603271484375,-10.564268112182617,38.81544876098633,0
155,1550128,0.023754628375172615,-0.0417814701795578,-0.9818457365036011,0.29908740520477295,0.22050166130065918,-1.0957260131835938,30.32615089416504,-12.068483352661133,40.333927154541016,0
156,1560001,0.038592733442783356,0.01582934334874153,-1.0042471885681152,0.6866940259933472,-0.45502811670303345,0.7168153524398804,28.223543167114258,-10.274567604064941,38.89104461669922,0
157,1569976,0.05801377445459366,-0.08312559872865677,-1.004711389541626,-0.21533535420894623,0.33583196997642517,0.3527427911758423,29.889732360839844,-10.285619735717773,41.460208892822266,0
158,1580223,-0.04050072282552719,-0.027811111882328987,-0.9946971535682678,-0.6782636642456055,0.48501822352409363,-0.09093477576971054,30.044057846069336,-11.110870361328125,40.55492401123047,0
159,1590248,-0.10338956862688065,-0.0059243845753371716,-1.0052576065063477,0.43757185339927673,0.9341194033622742,0.3820838928222656,29.8009090423584,-9.376215934753418,38.08311080932617,0
160,1599948,-0.01911405473947525,-0.07510160654783249,-0.993779182434082,0.6424460411071777,-0.8816291093826294,0.4264092445373535,30.75520896911621,-11.007405281066895,40.22834014892578,0
161,1609898,0.044502921402454376,-0.0042409044690430164,-0.9862446188926697,0.32709455490112305,-0.13708923757076263,0.7526450157165527,29.350311279296875,-9.931884765625,39.98026657104492,0
162,1620133,-0.026040654629468918,0.048090677708387375,-0.9819962382316589,-0.6648750901222229,-0.2823641300201416,-0.20901837944984436,30.898319244384766,-8.688241958618164,38.520267486572266,0
163,1630231,-0.040460702031850815,0.07302063703536987,-0.9699675440788269,-0.49695417284965515,-0.3894542455673218,-0.0927920714020729,30.24256134033203,-9.129057884216309,40.54355239868164,0
164,1640024,-0.021135350689291954,0.01766374334692955,-1.0237843990325928,0.48913902044296265,0.8017167448997498,-0.37684357166290283,29.85601806640625,-11.696961402893066,39.664337158203125,0
165,1650054,-0.040175557136535645,-0.0444059818983078,-1.0369764566421509,-0.4683865010738373,0.5621688961982727,-0.0619945302605629,29.416616439819336,-12.563586235046387,40.12125778198242,0
166,1659891,-0.05100506544113159,0.059772130101919174,-1.0011775493621826,-0.15460984408855438,0.1046140044927597,0.9751988053321838,28.449478149414062,-10.635661125183105,39.319210052490234,0
167,1670300,-0.016255760565400124,0.006517608184367418,-1.001298189163208,0.488331139087677,0.8922713994979858,1.067436695098877,29.01776123046875,-8.209457397460938,41.3132438659668,0
168,1679854,0.04093935340642929,0.03993774577975273,-1.0172901153564453,0.3413565456867218,0.20053327083587646,-0.38782766461372375,29.618112564086914,-10.704771041870117,40.215354919433594,0
169,1690177,0.020263155922293663,-0.008932868018746376,-0.9745952486991882,0.9692238569259644,0.03647385537624359,-0.46991294622421265,30.623212814331055,-8.736629486083984,38.05216979980469,0
170,1700014,0.027570970356464386,-0.0084479209035635,-0.9961238503456116,0.8129884600639343,0.6551437377929688,0.27262449264526367,29.569400787353516,-9.930144309997559,41.73797607421875,0
171,1710000,0.09515319019556046,0.013093337416648865,-1.0079718828201294,0.019609563052654266,0.4057770371437073,0.12732943892478943,30.829477310180664,-10.655637741088867,38.32960891723633,0
172,1719891,-0.11879957467317581,-0.0034834155812859535,-1.0168681144714355,0.7831461429595947,-0.03680768236517906,-0.5319380760192871,32.00656509399414,-9.970170021057129,40.86970138549805,0
173,1729938,-0.0025975427124649286,0.0025602513924241066,-1.0361344814300537,-0.08362529426813126,0.19334952533245087,0.8484885692596436,28.855064392089844,-10.105659484863281,39.613407135009766,0
174,1740031,-0.014834221452474594,0.038309067487716675,-0.9653871059417725,-0.5047854781150818,1.015295147895813,-0.3151213228702545,27.963260650634766,-9.02287483215332,40.09132766723633,0
175,1749852,-0.025332503020763397,0.016350800171494484,-1.0344792604446411,0.6457585096359253,-0.2203083038330078,-0.18330302834510803,29.506763458251953,-11.634331703186035,41.06515121459961,0
176,1760456,-0.04365430027246475,0.011374815367162228,-1.011290431022644,0.20871762931346893,0.05600440502166748,0.02176607958972454,29.13163185119629,-11.376436233520508,39.35639572143555,0
177,1769569,0.08147093653678894,-0.05929861590266228,-1.0253117084503174,0.11653343588113785,-0.4625605046749115,-0.15758338570594788,29.1999454498291,-9.32744026184082,41.948402404785156,0
178,1779991,-0.01300752256065607,-0.042760543525218964,-0.9798356294631958,1.0059001445770264,0.10066492110490799,0.11600548028945923,29.704444885253906,-9.258986473083496,40.92483901977539,0
179,1789942,-0.08046246320009232,0.09753964841365814,-0.9974179863929749,-0.0827656239271164,-0.46946918964385986,-0.8516212701797485,27.630605697631836,-11.586687088012695,38.76161575317383,0
180,1799943,0.03130951523780823,-0.03650641441345215,-1.0047340393066406,-0.3364856541156769,0.732157289981842,-0.9632664322853088,29.052907943725586,-10.515761375427246,40.11258316040039,0
181,1809788,-0.008484159596264362,-0.04823711887001991,-1.0025479793548584,-0.33047378063201904,-0.30182400345802307,0.9788281321525574,31.381103515625,-9.342977523803711,39.7985725402832,0
182,1820005,0.05457409471273422,-0.054216090589761734,-1.0354632139205933,0.30497676134109497,-0.702549934387207,-0.2621419131755829,30.254091262817383,-10.29526424407959,39.3326301574707,0
183,1830041,0.012882803566753864,0.005525403656065464,-0.9924800992012024,0.4213791787624359,1.4229319095611572,0.8166444897651672,29.47600555419922,-9.59805965423584,40.117919921875,0
184,1839831,0.06545484811067581,-0.03314606845378876,-0.9902240633964539,-0.5558466911315918,0.7379931807518005,-0.25920355319976807,31.308128356933594,-11.502251625061035,39.97624588012695,0
185,1850138,0.08270769566297531,-0.06679080426692963,-0.980843186378479,-0.28412818908691406,-0.3789401650428772,-0.9196904301643372,28.541706085205078,-8.51026725769043,37.110374450683594,0
186,1860009,-0.019110379740595818,-0.0010706435423344374,-0.9852858781814575,0.6503919959068298,0.6073733568191528,0.1719401627779007,30.058713912963867,-8.785869598388672,40.47450256347656,0
187,1869823,0.01646186225116253,0.006862697657197714,-0.9720969200134277,-0.41553592681884766,0.8009067177772522,-0.0549912303686142,30.847341537475586,-7.7264790534973145,41.070133209228516,0
188,1879742,0.032609838992357254,0.00966432224959135,-0.96149742603302,1.0736794471740723,-0.8689540028572083,-0.14193204045295715,29.172874450683594,-10.260239601135254,41.392860412597656,0
189,1890135,0.019216250628232956,0.040037672966718674,-1.0048929452896118,-0.9333589673042297,0.4855011999607086,-0.21818846464157104,31.56875228881836,-8.480313301086426,38.201751708984375,0
190,1899977,0.011514758691191673,0.048788875341415405,-0.9987234473228455,-0.2597586512565613,-0.18808716535568237,1.6261963844299316,29.207386016845703,-11.675743103027344,39.3079948425293,0
191,1909968,-0.1252768188714981,0.06872335076332092,-0.9647403359413147,1.092911720275879,0.6686661243438721,0.7873333096504211,30.7064208984375,-9.631972312927246,39.300994873046875,0
192,1920222,-0.011912194080650806,0.0007103672833181918,-1.0654375553131104,1.044389247894287,1.0272399187088013,-0.3783337473869324,29.531843185424805,-10.445789337158203,40.62360763549805,0
193,1929799,-0.026371007785201073,0.010703112930059433,-0.9913531541824341,0.4990891218185425,0.17068515717983246,0.6184853315353394,27.782859802246094,-9.69215202331543,39.68027114868164,0
194,1940138,0.045410994440317154,0.06514710932970047,-0.9872525930404663,-0.40449148416519165,-0.07024279236793518,-0.47613880038261414,29.983068466186523,-9.787095069885254,38.71952819824219,0
195,1950057,-0.0021747322753071785,0.002417193725705147,-1.011171579360962,0.33991390466690063,0.505171000957489,-0.2113201767206192,29.71288299560547,-9.048870086669922,40.54901885986328,0
196,1960000,0.03576023876667023,0.0468016117811203,-1.0102109909057617,0.41783565282821655,-0.5455758571624756,0.11651191115379333,32.30235290527344,-9.229723930358887,40.01771545410156,0
197,1970010,0.008024112321436405,-0.09477440267801285,-0.9769144058227539,1.129472255706787,0.8133728504180908,-0.7597433924674988,29.949155807495117,-9.349145889282227,39.6407470703125,0
198,1979870,-0.023234568536281586,-0.0480237640440464,-1.0231267213821411,-0.12899243831634521,0.5095088481903076,-0.7814369201660156,30.084806442260742,-10.382037162780762,40.20222854614258,0
199,1990119,0.006381097715348005,0.011847088113427162,-1.0023338794708252,0.26255184412002563,1.0328044891357422,0.49214333295822144,29.640230178833008,-10.287322998046875,39.54646301269531,0
200,1999855,0.05054054781794548,-0.06418640166521072,-1.005793571472168,1.0205408334732056,-0.21505413949489594,0.45147597789764404,31.135848999023438,-9.851905822753906,40.06382369995117,0
201,2009854,0.05171144753694534,0.09426874667406082,-0.9831283688545227,-0.6178993582725525,-0.35279372334480286,-1.0739315748214722,30.595897674560547,-8.533099174499512,40.88188552856445,0
202,2020162,0.032715827226638794,-0.041437841951847076,-1.0081270933151245,0.31353676319122314,0.45035484433174133,0.3160093128681183,27.663599014282227,-8.545465469360352,40.53200149536133,0
203,2029957,-0.05405541881918907,0.00504014827311039,-1.0001896619796753,0.3117123246192932,-0.38900026679039,0.5479730367660522,30.393741607666016,-9.092330932617188,41.2572135925293,0
204,2039981,0.06465623527765274,0.05430016294121742,-0.985153317451477,0.35708823800086975,0.01716616563498974,0.07609609514474869,31.984750747680664,-9.399731636047363,37.962623596191406,0
205,2050073,0.03430420160293579,0.009379032999277115,-1.0162760019302368,-0.0018494827672839165,-0.2347836047410965,-0.43524301052093506,29.571435928344727,-11.882034301757812,39.66112518310547,0
206,2059785,-0.027461079880595207,0.008785859681665897,-1.0046910047531128,-0.5063815116882324,-0.47447502613067627,-0.8701731562614441,30.629919052124023,-11.169726371765137,40.626163482666016,0
207,2070007,-0.1060563400387764,0.08085818588733673,-0.9692716002464294,-0.25227153301239014,0.38775041699409485,0.5320905447006226,29.709033966064453,-11.525312423706055,40.513343811035156,0
208,2079757,0.061808567494153976,-0.06638160347938538,-1.0168821811676025,-0.15689271688461304,-0.17137373983860016,0.12332265824079514,28.779966354370117,-9.535242080688477,39.14269256591797,0
209,2089934,-0.0356830358505249,-0.04416603222489357,-0.9968708157539368,-0.41480788588523865,0.1530739814043045,-0.022980574518442154,30.430065155029297,-10.609319686889648,39.208518981933594,0
210,2100047,0.01948653720319271,0.0040602972730994225,-1.000780463218689,0.10411038249731064,0.07965119928121567,-0.6707773804664612,29.847660064697266,-9.325827598571777,39.573577880859375,0
211,2110064,0.10106470435857773,0.015817223116755486,-0.989697277545929,-0.37707293033599854,0.15353617072105408,0.32506465911865234,31.122060775756836,-10.514705657958984,39.91154861450195,0
212,2119839,0.06012596935033798,-0.06168604642152786,-1.0080745220184326,0.30912888050079346,-0.09218544512987137,0.26317569613456726,31.304656982421875,-9.128851890563965,38.204551696777344,0
213,2129902,-0.025728128850460052,-0.01954149641096592,-1.0298817157745361,0.19207382202148438,0.07715997844934464,0.26346200704574585,28.878419876098633,-9.826643943786621,40.18940734863281,0
214,2139992,-0.019129883497953415,0.11332929134368896,-1.0192614793777466,-0.27498507499694824,0.40040668845176697,-0.5614829659461975,29.69952964782715,-9.52062702178955,39.4419059753418,0
215,2150074,0.05656694620847702,0.0396045483648777,-0.9832742810249329,-0.0424373559653759,-0.4552325904369354,-0.09374106675386429,28.321020126342773,-10.697121620178223,38.3642692565918,0
216,2160093,-0.13505014777183533,0.03668706864118576,-1.0024120807647705,0.830231785774231,0.1343774050474167,-0.38638821244239807,29.13275146484375,-9.719283103942871,39.06862258911133,0
217,2169792,-0.06833365559577942,-0.02766592428088188,-1.0469857454299927,0.0973997414112091,0.46557214856147766,0.41021469235420227,27.25517463684082,-9.746794700622559,37.27784729003906,0
218,2179935,0.02952667884528637,0.043800801038742065,-0.992630660533905,1.5714319944381714,0.13594922423362732,-0.34446969628334045,31.20634651184082,-9.268693923950195,38.869747161865234,0
219,2189938,-0.04544868692755699,-0.0077636390924453735,-0.9967077970504761,-1.140627145767212,-0.17087435722351074,0.30710503458976746,30.372201919555664,-9.393525123596191,38.940696716308594,0
220,2199887,-0.06216922774910927,0.02838577702641487,-1.0270723104476929,0.13270102441310883,0.8126924633979797,-0.4554913341999054,29.80191421508789,-10.02223014831543,40.524539947509766,0
221,2209869,0.00591972004622221,0.021671228110790253,-0.9778262972831726,0.6835296154022217,-0.5898141264915466,-0.28091004490852356,29.713050842285156,-10.67711353302002,38.753746032714844,0
222,2220033,-0.059957899153232574,-0.003895567962899804,-1.0006308555603027,0.8792226910591125,-0.4939359724521637,0.9867530465126038,29.73060417175293,-9.595747947692871,40.60411834716797,0
223,2229958,-0.06883612275123596,0.03244231268763542,-1.0143777132034302,0.9224681258201599,-0.20565922558307648,0.0911397635936737,30.199703216552734,-9.21523380279541,38.6524658203125,0
224,2239917,-0.016981452703475952,0.023020992055535316,-0.9993566274642944,-0.24617619812488556,-0.3876723349094391,-0.9853317737579346,28.00851821899414,-9.318136215209961,38.52363967895508,0
225,2249808,0.04850490391254425,-0.04024085775017738,-1.0133792161941528,-0.3752081096172333,-0.12276778370141983,1.2983695268630981,27.47275733947754,-8.926477432250977,40.00019454956055,0
226,2259842,0.02997674234211445,-0.019061503931879997,-1.0253112316131592,-0.42360660433769226,-0.5747364163398743,0.5100052952766418,29.63016700744629,-9.695350646972656,37.52863311767578,0
227,2270000,-0.00868377648293972,0.04640790820121765,-0.9923107624053955,0.9049281477928162,0.3318139314651489,-0.02300317771732807,31.169063568115234,-10.175019264221191,39.83724594116211,0
228,2279811,0.04858541116118431,-0.03063955530524254,-0.9706515073776245,0.1646091192960739,-0.454751580953598,-0.5659008026123047,29.54686737060547,-10.951373100280762,39.795135498046875,0
229,2289855,0.02416684478521347,0.006219376809895039,-0.9728589057922363,-0.12682756781578064,-0.3040474057197571,-0.7100191116333008,29.895601272583008,-9.459393501281738,40.5240364074707,0
230,2299974,0.08955502510070801,-0.07000993192195892,-1.0223523378372192,0.5766960382461548,0.2900592088699341,-0.17124255001544952,29.74835777282715,-10.521726608276367,40.294429779052734,0
231,2310085,-0.010649636387825012,-0.025688380002975464,-1.0064976215362549,0.22825288772583008,0.060343075543642044,-0.04216890037059784,30.87099266052246,-9.937657356262207,39.27003479003906,0
232,2319935,-0.00011234864359721541,0.0201434213668108,-0.9938485026359558,-0.427122563123703,-0.23355288803577423,0.9110522866249084,29.14229965209961,-12.749139785766602,40.60734939575195,0
233,2330209,-0.017384927719831467,-0.019229330122470856,-1.0029405355453491,0.895118236541748,-0.7283992767333984,0.14679639041423798,31.04062843322754,-11.112067222595215,39.852821350097656,0
234,2339822,0.011858494952321053,-0.0004245415620971471,-0.9744682312011719,0.11766792088747025,1.19195556640625,0.5047339797019958,29.664766311645508,-10.597967147827148,40.40082550048828,0
235,2349965,-0.06102129444479942,0.08307443559169769,-0.9851568341255188,0.6469364762306213,0.0670098289847374,0.6903508305549622,30.392406463623047,-10.297774314880371,39.10462951660156,0
236,2359996,-0.002568580908700824,0.00475101824849844,-1.0094503164291382,-0.9747552871704102,-0.0449986569583416,0.22921636700630188,30.43982696533203,-10.135557174682617,38.984893798828125,0
237,2370077,0.01921912655234337,-0.027662230655550957,-0.993570864200592,-0.0018720426596701145,-1.1786094903945923,-0.02225729636847973,29.94930076599121,-10.334019660949707,39.946773529052734,0
238,2380013,-0.0554770864546299,-0.04526330903172493,-0.9883155822753906,-0.2905539274215698,0.435294508934021,-0.33045488595962524,29.862512588500977,-8.844459533691406,39.341407775878906,0
239,2390073,-0.034809984266757965,0.003969407174736261,-0.976453959941864,-0.19865557551383972,0.6594918370246887,-1.0157049894332886,29.54218864440918,-9.906764030456543,40.846492767333984,0
240,2400109,-0.002682937541976571,-0.029466450214385986,-0.9655892848968506,0.2754618227481842,0.3284628391265869,-0.06381390243768692,30.230283737182617,-9.953423500061035,40.119728088378906,0
241,2410197,-0.008095904253423214,-0.05894607678055763,-1.0065723657608032,-0.2144739031791687,-0.22890502214431763,-0.02231476455926895,28.924137115478516,-8.883975982666016,41.092445373535156,0
242,2419908,-0.03460940346121788,0.011410952545702457,-0.9804161787033081,0.0265386663377285,-0.15882861614227295,0.8074126243591309,29.70585823059082,-10.267333030700684,39.573341369628906,0
243,2430251,0.050126273185014725,0.02570885419845581,-0.9588898420333862,0.00301098870113492,0.07827065140008926,0.4081621766090393,29.600915908813477,-10.205066680908203,40.55039978027344,0
244,2439988,0.002137264469638467,-0.015062632039189339,-1.0098035335540771,0.28267955780029297,-0.07388745248317719,0.599575936794281,31.617294311523438,-10.061594009399414,40.123043060302734,0
245,2450102,0.02467799186706543,0.0025997792836278677,-1.0234748125076294,-0.2973901331424713,0.4452691078186035,-0.19474416971206665,30.366809844970703,-11.263333320617676,39.40061569213867,0
246,2459924,-0.10443234443664551,-0.01151434425264597,-0.9804543256759644,0.31188076734542847,0.3527549207210541,0.11963086575269699,30.86392593383789,-9.580074310302734,42.297340393066406,0
247,2470019,-0.009825021959841251,-0.018204307183623314,-1.0107492208480835,1.2730560302734375,0.16120895743370056,-1.0038790702819824,31.465646743774414,-10.4948148727417,39.53379821777344,0
248,2480174,-0.06356842815876007,0.01910865306854248,-1.0037288665771484,-0.374676376581192,0.5413450598716736,0.12585464119911194,30.647768020629883,-11.742597579956055,39.528724670410156,0
249,2490039,-0.051906436681747437,0.04479198157787323,-0.9904001951217651,-0.5307590365409851,0.10877842456102371,-1.1645365953445435,29.593454360961914,-10.657438278198242,40.26640701293945,0
250,2500037,-0.028951041400432587,-0.0666908472776413,-0.9991217255592346,0.704041600227356,0.6557248830795288,0.4673216938972473,29.40189552307129,-9.7267484664917,40.15900421142578,0
251,2510232,0.05162652209401131,0.0035604448057711124,-0.9876010417938232,-0.030008377507328987,-0.3750426173210144,-0.5691543221473694,29.88872718811035,-11.350618362426758,41.77399444580078,0
252,2519971,0.0015391261549666524,-0.021120499819517136,-0.972981870174408,0.3883098363876343,-0.1500042974948883,-0.003940756898373365,30.178863525390625,-10.411774635314941,40.96197509765625,0
253,2529973,-0.010024625808000565,0.02971305139362812,-1.0024293661117554,0.1288895457983017,-0.138815775513649,0.45884740352630615,31.71552848815918,-9.313042640686035,37.84859848022461,0
254,2540059,-0.03450785577297211,0.07380034029483795,-0.9848385453224182,0.620903730392456,0.8244518041610718,-0.052537064999341965,30.541324615478516,-11.260030746459961,40.406246185302734,0
255,2549993,0.0012178256874904037,-0.06704645603895187,-0.9805020689964294,0.3559386730194092,-0.03971119225025177,1.1322987079620361,28.879318237304688,-9.962740898132324,41.29834747314453,0
256,2560144,0.03620029240846634,-0.00579862529411912,-0.9671112298965454,-0.26411062479019165,-0.005614904686808586,0.13789579272270203,30.617389678955078,-7.948342800140381,39.686702728271484,0
257,2570109,0.03374679014086723,0.0730176791548729,-0.9885229468345642,0.807195246219635,-0.08974073827266693,-0.637642502784729,28.749000549316406,-8.574567794799805,39.33972930908203,0
258,2579683,-0.03231656923890114,0.08691737055778503,-0.9930999875068665,-0.2951434552669525,0.6823892593383789,-0.09300284832715988,29.487178802490234,-8.509696960449219,39.438663482666016,0
259,2589832,-0.014479843899607658,0.0011821965454146266,-0.9601476192474365,0.33398836851119995,0.24020978808403015,0.6915389895439148,27.749462127685547,-12.026446342468262,40.04638671875,0
260,2600072,0.000629782269243151,-0.003858063602820039,-0.9878539443016052,0.5763300061225891,0.05567345768213272,0.7104142904281616,30.55040740966797,-10.335652351379395,40.0750617980957,0
261,2610099,0.015488766133785248,0.06777241826057434,-1.0182329416275024,-0.1721312403678894,-0.06877467036247253,0.18462413549423218,29.357746124267578,-9.323209762573242,40.01647186279297,0
262,2620494,0.043122828006744385,-0.00447089271619916,-1.0132278203964233,-0.4327258765697479,-0.3511411249637604,-0.3089289963245392,30.132320404052734,-9.900671005249023,39.141605377197266,0
263,2630090,0.005940819624811411,-0.03405718877911568,-1.0270429849624634,-0.2397783249616623,-0.989705502986908,-0.7181712985038757,29.55034637451172,-9.877975463867188,39.86109924316406,0
264,2639796,-0.00154505530372262,0.03154616430401802,-0.980606734752655,-0.009616930969059467,0.5180617570877075,0.13546814024448395,29.72711944580078,-11.258633613586426,39.75478744506836,0
265,2649842,0.029006896540522575,-0.02344551496207714,-0.9831958413124084,-0.1434929519891739,-0.21936684846878052,-0.0335627980530262,28.01821517944336,-8.504508972167969,39.628257751464844,0
266,2659893,0.006758738774806261,0.07815859466791153,-1.0190105438232422,0.8907102942466736,-0.923872709274292,0.3803195357322693,29.65567970275879,-9.887493133544922,40.67915725708008,0
267,2669869,-0.08859327435493469,-0.022371618077158928,-0.995765745639801,0.013792385347187519,0.09983983635902405,0.15961125493049622,30.161108016967773,-7.963813781738281,39.753658294677734,0
268,2680056,0.00032510157325305045,0.05053787678480148,-0.9922736287117004,-0.05114626884460449,0.23278853297233582,0.3016793429851532,30.076677322387695,-9.919892311096191,39.31258010864258,0
269,2690082,-0.041333723813295364,0.07911238074302673,-0.971714437007904,0.5467147827148438,0.15053889155387878,-0.40129315853118896,31.59259796142578,-9.900411605834961,40.58232498168945,0
270,2699797,-0.05563998594880104,-0.006216487847268581,-0.9789606928825378,0.12285453081130981,-0.5948904752731323,-0.35676583647727966,31.773324966430664,-9.497456550598145,41.311031341552734,0
271,2709772,0.031171418726444244,-0.12958428263664246,-0.9765459895133972,0.3216347396373749,0.5385711193084717,0.03682912886142731,29.348451614379883,-9.772541999816895,41.13564682006836,0
272,2720169,-0.032862644642591476,-0.029605813324451447,-1.006654143333435,-0.289043128490448,-0.558176577091217,0.8678517937660217,30.38391876220703,-9.516160011291504,39.02763748168945,0
273,2730039,-0.0017754315631464124,0.09852281957864761,-0.9820638298988342,0.4562142789363861,-0.27262091636657715,-0.6410105228424072,30.0655460357666,-9.612802505493164,39.47120666503906,0
274,2739879,0.002716692863032222,0.039740677922964096,-1.0461370944976807,-0.28745749592781067,0.13313522934913635,0.7086005210876465,30.749767303466797,-9.751144409179688,39.430850982666016,0
275,2750080,-0.018343627452850342,-0.009815081022679806,-0.988796055316925,0.17439402639865875,-0.014267109334468842,0.07915806770324707,29.825096130371094,-10.599690437316895,40.80775451660156,0
276,2760091,-0.003011983120813966,0.05819664150476456,-1.020093321800232,0.4545477330684662,-0.049945149570703506,0.3764604330062866,28.78141975402832,-10.959307670593262,38.1541862487793,0
277,2769872,0.005595378577709198,0.02226286008954048,-1.0275888442993164,0.8267345428466797,0.05770571902394295,0.08250312507152557,29.618267059326172,-10.13698959350586,39.520774841308594,0
278,2779961,0.03167545422911644,-0.0005345043609850109,-1.0369930267333984,-0.41817694902420044,0.8098204135894775,-0.7955648899078369,28.653974533081055,-8.271749496459961,39.3845329284668,0
279,2790153,0.07170560956001282,0.05732265114784241,-0.9802483320236206,1.0922027826309204,-0.33304256200790405,-0.14638344943523407,31.39873695373535,-10.454019546508789,40.448062896728516,0
280,2799900,0.019665058702230453,-0.05145036056637764,-0.9921429753303528,-1.1603337526321411,-0.6326621174812317,0.28971612453460693,30.788848876953125,-10.14892578125,40.369911193847656,0
281,2809995,0.053657080978155136,-0.061335619539022446,-1.0130016803741455,-0.669866681098938,0.5306487679481506,0.34052401781082153,28.17098045349121,-10.319084167480469,40.13118362426758,0
282,2819899,-0.02813459187746048,-0.0452989786863327,-0.9862627983093262,0.1529015600681305,0.20395280420780182,0.6657910943031311,31.30498504638672,-9.407156944274902,40.99226379394531,0
283,2830053,0.08053019642829895,0.033365994691848755,-0.976405680179596,0.273883193731308,0.3966834843158722,-0.46474114060401917,27.496923446655273,-9.995247840881348,39.32850646972656,0
284,2839974,-0.073202945291996,0.0020381903741508722,-1.0095651149749756,0.33768248558044434,0.5561122894287109,0.2148708999156952,29.087085723876953,-8.697919845581055,40.5108642578125,0
285,2850134,0.04585583880543709,0.003270090790465474,-0.9942470192909241,0.11949065327644348,0.00653641065582633,-0.0719313994050026,30.165348052978516,-9.62381649017334,37.73752212524414,0
286,2859978,0.07344484329223633,0.025210879743099213,-0.9796015024185181,0.18784186244010925,0.20133280754089355,0.45786499977111816,30.857946395874023,-12.394314765930176,39.934837341308594,0
287,2869928,-0.1263638585805893,0.0454680398106575,-0.9970284700393677,0.20374031364917755,-0.027164874598383904,-0.5129541754722595,29.267335891723633,-10.193096160888672,37.806575775146484,0
288,2879893,0.04773007705807686,0.03948044404387474,-1.021454930305481,-0.044393301010131836,-0.6958669424057007,0.10862322896718979,28.65382194519043,-10.290751457214355,41.18732452392578,0
289,2889913,-0.01836884766817093,0.028353413566946983,-1.011038064956665,0.5022305846214294,0.2471269965171814,-0.46063753962516785,28.49392318725586,-11.768853187561035,39.262847900390625,0
290,2900038,0.004932713229209185,-0.0510420948266983,-1.0347484350204468,-0.9275186061859131,0.14904946088790894,0.21631580591201782,30.310733795166016,-8.556290626525879,40.51808547973633,0
291,2910029,0.08641766756772995,-0.013568772003054619,-0.9900339245796204,0.18945802748203278,1.0005658864974976,0.4521821141242981,29.681074142456055,-10.861600875854492,41.76355743408203,0
292,2920048,-0.048299405723810196,-0.01860218681395054,-0.9978227019309998,0.527499258518219,0.39378342032432556,0.3444823622703552,28.734352111816406,-11.266816139221191,41.93858337402344,0
293,2929953,0.08016683161258698,0.04378679022192955,-0.9775295257568359,-0.18218889832496643,0.21641527116298676,-0.5977469682693481,32.48235321044922,-9.567633628845215,40.19904327392578,0
294,2939963,-0.05863598361611366,0.030568497255444527,-0.9823155403137207,-0.9985814690589905,-0.12057866156101227,0.6177597641944885,29.86577606201172,-9.358526229858398,39.451114654541016,0
295,2950248,-0.07246031612157822,0.007325077895075083,-0.976117730140686,0.1558927595615387,0.041477642953395844,0.653485119342804,27.55347442626953,-8.846250534057617,37.784671783447266,0
296,2959996,-0.10085995495319366,0.016399206593632698,-0.9980014562606812,0.07319615036249161,0.04159719496965408,0.7198472023010254,30.448232650756836,-9.143864631652832,40.45751190185547,0
297,2970023,0.041508886963129044,0.02506295032799244,-0.981161892414093,-0.3505014479160309,0.21907693147659302,0.2847132980823517,28.348283767700195,-10.390668869018555,38.63814163208008,0
298,2979990,0.009389853104948997,0.07333902269601822,-1.0227192640304565,0.41736894845962524,0.5532420873641968,-0.8631300330162048,30.712867736816406,-9.242218971252441,39.00466537475586,0
299,2990015,-0.08057306706905365,-0.04945356771349907,-0.9819024205207825,-0.07250349968671799,-0.005426629912108183,-0.3330030143260956,29.605937957763672,-9.937865257263184,41.93122863769531,0
300,2999867,-0.05167564004659653,0.0192416999489069,-0.9598798155784607,-0.06555371731519699,0.06853928416967392,-0.1768893003463745,30.03830909729004,-9.622122764587402,38.1172981262207,0
301,3009994,0.003734518541023135,-0.013824029825627804,-0.9974488019943237,-0.04526696354150772,-0.20676757395267487,-0.4726797640323639,30.403066635131836,-11.614104270935059,39.47759246826172,0
302,3019611,0.038862697780132294,0.04109552875161171,-1.0006898641586304,-0.8530806303024292,-0.03028848208487034,-0.14125564694404602,30.36380958557129,-11.104524612426758,39.55446243286133,0
303,3029898,-0.0006623172084800899,0.00013157387729734182,-0.9919489622116089,-0.5481842160224915,-0.7363873720169067,0.7084782719612122,30.81787109375,-9.159266471862793,36.7783088684082,0
304,3039905,-0.07964250445365906,0.04645000025629997,-0.9768880605697632,1.0454845428466797,0.6352893710136414,0.3043280839920044,30.243139266967773,-9.724492073059082,40.669193267822266,0
305,3050013,0.06510083377361298,0.05450112745165825,-0.9720230102539062,0.07634641975164413,-0.3653141260147095,-0.10377420485019684,29.577960968017578,-9.034191131591797,40.79561996459961,0
306,3060001,0.037140123546123505,-0.027529332786798477,-1.0124142169952393,-0.5098163485527039,0.5752524137496948,0.33863601088523865,29.75740623474121,-10.341506958007812,40.528385162353516,0
307,3070033,0.03932886943221092,0.05424771085381508,-1.0089291334152222,-0.16271010041236877,-0.8405914306640625,-1.2927061319351196,29.229970932006836,-9.603496551513672,41.30606460571289,0
308,3080026,0.05028167739510536,0.07519998401403427,-0.9978234767913818,1.079788088798523,0.14428579807281494,0.19205883145332336,31.47829246520996,-10.388080596923828,40.60886001586914,0
309,3090035,0.18107296526432037,0.06405024230480194,-1.0222570896148682,-0.10566118359565735,-0.5051664113998413,-0.044399939477443695,31.412776947021484,-10.812324523925781,42.16131591796875,0
310,3100189,-0.0048803663812577724,0.03810787945985794,-0.9976790547370911,-0.19336292147636414,0.7348295450210571,0.5895373821258545,30.055166244506836,-10.491070747375488,39.32639694213867,0
311,3110050,0.010523015633225441,-0.06510040909051895,-1.0030057430267334,0.020082904025912285,-0.41919320821762085,-0.17662015557289124,30.230056762695312,-7.938832759857178,39.84100341796875,0
312,3120093,-0.021840699017047882,0.06206580996513367,-1.0247913599014282,0.6731231808662415,0.16948050260543823,-0.2797447443008423,29.32651138305664,-10.313163757324219,40.73806381225586,0
313,3129936,-0.0268118754029274,-0.01968751661479473,-1.0106350183486938,-0.2243369072675705,0.3830743730068207,0.10786444693803787,30.480684280395508,-10.564712524414062,38.28400421142578,0
314,3140015,0.015494315885007381,0.043660398572683334,-1.0049769878387451,-0.44474464654922485,0.05518892779946327,0.5359528660774231,29.94546127319336,-8.988746643066406,39.600128173828125,0
315,3150097,0.03848710283637047,-0.05207398533821106,-0.9610019326210022,-0.311244934797287,-0.280683308839798,0.717221736907959,30.732013702392578,-10.3067626953125,39.03899383544922,0
316,3159853,-0.019940756261348724,0.027365567162632942,-1.0203051567077637,-0.257099986076355,-0.7960326671600342,-1.550987958908081,28.91534423828125,-9.046853065490723,39.34856033325195,0
317,3170000,-0.07217883318662643,0.02760552056133747,-1.0023391246795654,-0.48561394214630127,-0.7748352289199829,-0.05104479566216469,29.263254165649414,-9.245298385620117,41.16173553466797,0
318,3179913,-0.016828252002596855,-0.002958757570013404,-0.9816793203353882,0.12856817245483398,0.5853882431983948,0.23442351818084717,28.87283706665039,-10.187116622924805,40.18754196166992,0
319,3190052,-0.04000134393572807,-0.007679886184632778,-0.9622375965118408,-0.5980955362319946,-0.11247748881578445,-0.21885325014591217,29.415422439575195,-10.365906715393066,40.75892639160156,0
320,3199695,-0.004147840663790703,-0.07190772891044617,-0.9928422570228577,-0.5949915051460266,0.08579086512327194,-0.016539111733436584,30.02222442626953,-11.434356689453125,39.72563934326172,0
321,3209964,-0.08744676411151886,-0.0425398051738739,-1.0226516723632812,0.5626845955848694,-0.3859517574310303,-0.1978524625301361,28.622785568237305,-11.253506660461426,38.008113861083984,0
322,3220052,0.01591881364583969,0.045732125639915466,-1.009054183959961,-0.9055345058441162,-1.0820392370224,-0.5525899529457092,29.66874885559082,-9.370050430297852,39.61363220214844,0
323,3230192,-0.030412746593356133,-0.022996708750724792,-0.979224443435669,0.023736465722322464,0.37681734561920166,-1.2296489477157593,29.8624210357666,-9.313982963562012,39.07747268676758,0
324,3240030,-0.027518784627318382,0.00629725307226181,-0.9996492266654968,0.6722353100776672,-0.5439602732658386,-0.03329238295555115,27.97003746032715,-10.361490249633789,38.89955139160156,0
325,3249854,0.00781938899308443,-0.037409983575344086,-0.9759026169776917,0.16541121900081635,0.39154118299484253,0.1732761114835739,30.426433563232422,-10.266507148742676,38.383811950683594,0
326,3259941,-0.07736751437187195,0.024006441235542297,-1.0106045007705688,-0.6029918789863586,0.744198203086853,-0.7814268469810486,32.00991439819336,-7.919522285461426,40.231258392333984,0
327,3269997,-0.09942182898521423,-0.010789831168949604,-1.010917067527771,-0.07528423517942429,-0.33395522832870483,0.8512011766433716,29.4895076751709,-10.49031925201416,37.737815856933594,0
328,3280116,-0.013408348895609379,0.01999039761722088,-1.01002836227417,0.4531792998313904,-0.5594128370285034,1.0928364992141724,28.836633682250977,-10.752152442932129,41.00553512573242,0
329,3290092,-0.07526404410600662,0.02096637524664402,-1.0465799570083618,-0.0055927252396941185,0.19893577694892883,-1.0420476198196411,30.404071807861328,-9.015105247497559,40.662662506103516,0
330,3299918,0.017479054629802704,-0.1100442036986351,-1.0021216869354248,-0.43493565917015076,0.29871755838394165,-0.16173391044139862,31.10759925842285,-11.677767753601074,40.87635803222656,0
331,3309939,-0.07936247438192368,-0.058928895741701126,-1.0279163122177124,-0.6795337200164795,0.3081589937210083,-0.7594395279884338,27.791471481323242,-9.356439590454102,40.58948516845703,0
332,3320021,-0.03670985624194145,0.013902751728892326,-1.0200324058532715,-0.8955903053283691,-0.005958307068794966,-0.059015385806560516,29.2781925201416,-9.971948623657227,40.40644836425781,0
333,3330145,-0.033155277371406555,-0.001247515669092536,-0.9990784525871277,-0.21473094820976257,0.17141230404376984,-0.37280717492103577,30.5411319732666,-9.706724166870117,39.20697021484375,0
334,3339597,0.07064209878444672,-0.01796664111316204,-0.9983469247817993,0.1700720638036728,0.19145946204662323,0.5242114663124084,28.465431213378906,-10.505583763122559,40.5568733215332,0
335,3350000,0.04855114966630936,0.012496992014348507,-1.0097295045852661,0.18876251578330994,-0.5980833768844604,0.4863518178462982,30.2902889251709,-9.465021133422852,38.20756530761719,0
336,3359976,0.0906962901353836,-0.041623298078775406,-1.0185697078704834,-0.2548315227031708,-0.4766048789024353,0.6981451511383057,32.377506256103516,-10.70802116394043,39.227630615234375,0
337,3370027,0.11492414027452469,-0.008255510590970516,-0.9809584617614746,0.5631375312805176,-0.5932598114013672,-0.5631375908851624,28.43393325805664,-9.93356990814209,37.99648666381836,0
338,3379893,0.05298081785440445,0.09491516649723053,-0.9968565106391907,0.6827958226203918,-0.490322083234787,-0.12643131613731384,31.12688636779785,-9.949576377868652,38.956024169921875,0
339,3390015,-0.03745639696717262,0.04812830686569214,-1.0076861381530762,0.20063962042331696,0.17253705859184265,0.31111177802085876,29.773231506347656,-9.32746410369873,38.69591522216797,0
340,3400167,-0.05971956625580788,0.10497244447469711,-0.9692221283912659,-0.533607006072998,0.36485376954078674,0.36379221081733704,29.478191375732422,-7.460090637207031,38.96183776855469,0
341,3410060,-0.034614723175764084,0.05432579293847084,-0.9728670120239258,-0.11377061903476715,0.0006551466649398208,-0.04914989322423935,29.269821166992188,-10.017646789550781,38.630985260009766,0
342,3419994,-0.03876945376396179,0.00357099249958992,-0.9861240983009338,-1.1519460678100586,0.2711586356163025,-0.9869721531867981,31.11733055114746,-11.037406921386719,40.26547622680664,0
343,3429967,0.03568148612976074,0.0054330118000507355,-0.9978191256523132,-0.8552300930023193,0.2587815225124359,-1.2168501615524292,29.10996437072754,-9.663944244384766,39.6947021484375,0
344,3440062,0.09269258379936218,0.057891685515642166,-1.0254173278808594,0.19987477362155914,-0.4683704376220703,-0.540433943271637,30.793285369873047,-9.821983337402344,40.892635345458984,0
345,3450022,0.0062034945003688335,0.0410110242664814,-1.0342631340026855,0.5512039065361023,0.28649893403053284,-0.5094965696334839,30.210657119750977,-11.113890647888184,40.479679107666016,0
346,3459830,-0.016542013734579086,0.05182645842432976,-0.975204586982727,-0.40369364619255066,0.0989849641919136,0.44338592886924744,30.3333797454834,-9.650339126586914,40.15101623535156,0
347,3470167,0.04922442510724068,-0.07842331379652023,-0.9857178330421448,-0.017750294879078865,0.046998389065265656,-0.24162252247333527,30.737459182739258,-9.03862476348877,39.830596923828125,0
348,3479745,0.02679065614938736,0.1338779181241989,-1.0162302255630493,-0.03414873033761978,0.7928597331047058,-0.10163537412881851,32.4663200378418,-9.904240608215332,40.506492614746094,0
349,3489823,-0.0148494066670537,-0.003510809037834406,-1.0121396780014038,-1.0730842351913452,-0.19097286462783813,0.2431463599205017,30.578895568847656,-9.241694450378418,39.36477279663086,0
350,3500051,-0.04680215194821358,-0.014978636987507343,-0.990036129951477,-0.504056990146637,0.5468409061431885,0.47826576232910156,29.0599308013916,-9.44107723236084,39.6307373046875,0
351,3510129,-0.05199391767382622,0.03170317783951759,-1.0170820951461792,0.700404942035675,0.003965046722441912,-0.022438164800405502,29.49010467529297,-10.26784610748291,39.27311325073242,0
352,3520028,-0.0330246202647686,-0.010295321233570576,-1.0180524587631226,0.15450376272201538,-0.28700488805770874,0.1780063509941101,30.360149383544922,-9.816850662231445,40.74991226196289,0
353,3530214,0.0022077991161495447,0.0735771432518959,-1.0161221027374268,0.7779334187507629,-0.6734063625335693,0.3731688857078552,32.98188018798828,-10.518528938293457,40.952510833740234,0
354,3539929,-0.017816226929426193,-0.009815639816224575,-1.007303237915039,-0.32847166061401367,-0.3548938035964966,-0.6578148603439331,29.715423583984375,-9.378944396972656,40.21986389160156,0
355,3549774,0.0806841030716896,-0.020288342610001564,-1.006080150604248,0.21928618848323822,-0.4404258131980896,-0.13361555337905884,30.566165924072266,-9.786121368408203,40.506744384765625,0
356,3559878,0.06817848980426788,0.019945085048675537,-1.0295687913894653,0.4275384545326233,-0.015317806974053383,0.6828884482383728,29.01886558532715,-10.669404029846191,39.67747497558594,0
357,3570119,-0.03780703991651535,0.01320969220250845,-1.0211347341537476,0.743736207485199,-0.27260279655456543,0.09145691245794296,30.377561569213867,-8.939184188842773,40.54060745239258,0
358,3580192,-0.013135422021150589,0.01983257196843624,-1.0029690265655518,0.7117926478385925,-0.6612661480903625,0.4570419192314148,30.391101837158203,-9.714680671691895,40.79502868652344,0
359,3589817,-0.048254236578941345,0.01355730276554823,-0.9787436127662659,0.46787890791893005,-0.24985602498054504,-0.29065924882888794,29.664987564086914,-9.986593246459961,39.38589096069336,0
360,3600021,-0.0448678657412529,-0.05684768408536911,-1.0546385049819946,-0.24199138581752777,0.35223254561424255,0.35972321033477783,29.592466354370117,-9.740890502929688,40.843482971191406,0
361,3610095,-0.06867670267820358,0.10233179479837418,-0.9902195930480957,-0.20649971067905426,-0.9064424633979797,0.10234912484884262,30.928268432617188,-11.053603172302246,40.39556884765625,0
362,3619979,-0.01681537739932537,-0.049151647835969925,-0.9878315329551697,0.4069177210330963,-1.1081651449203491,0.7405024170875549,29.492094039916992,-10.329503059387207,39.48528289794922,0
363,3630095,-0.042004216462373734,0.057863518595695496,-0.9947428107261658,-0.22738490998744965,0.035897232592105865,-0.18814176321029663,29.79698371887207,-9.307934761047363,39.326148986816406,0
364,3639938,-0.061782822012901306,-0.04836506396532059,-0.9888643026351929,-0.4715256690979004,-0.3729454278945923,-0.7240058779716492,30.228618621826172,-10.678451538085938,40.08018112182617,0
365,3650103,-0.013930248096585274,-0.04009653255343437,-0.9892659187316895,-0.5203466415405273,0.13930726051330566,-0.4987907111644745,30.16511344909668,-11.619911193847656,38.9406623840332,0
366,3660117,0.002270766766741872,0.057208407670259476,-1.0009160041809082,0.43087121844291687,-0.5519276261329651,0.030851515009999275,31.117422103881836,-9.38124942779541,40.529151916503906,0
367,3670114,-0.015200012363493443,0.035299040377140045,-0.9947118759155273,0.4087789058685303,0.2840609848499298,0.7847528457641602,30.183414459228516,-11.460848808288574,41.22480392456055,0
368,3679945,0.03211033344268799,-0.056848328560590744,-1.0289314985275269,-0.6779451966285706,-0.7266388535499573,-0.3257807195186615,28.736093521118164,-8.533002853393555,40.2131233215332,0
369,3689950,-0.07007893919944763,0.07051528245210648,-0.9964159727096558,-1.2033425569534302,-0.15399794280529022,0.017503861337900162,28.803804397583008,-10.32613754272461,39.92265701293945,0
370,3700093,-0.06797701120376587,-0.04559425264596939,-0.9955199360847473,-0.9023685455322266,-0.009337936528027058,0.7539815902709961,31.063119888305664,-10.101277351379395,41.45988082885742,0
371,3710097,0.023287761956453323,-0.050646886229515076,-0.9898675680160522,-0.5633273720741272,-0.635632336139679,-0.6456564664840698,29.181642532348633,-11.227853775024414,39.77169418334961,0
372,3719977,-0.014103878289461136,0.0070424010045826435,-0.9837178587913513,0.5168558955192566,0.10801850259304047,0.12067629396915436,29.473215103149414,-9.14195442199707,41.65897750854492,0
373,3729756,0.08314568549394608,0.041353896260261536,-0.9983019232749939,-0.19055023789405823,-0.0016478741308674216,0.5354896783828735,28.61136245727539,-11.765594482421875,39.39390563964844,0
374,3740045,0.07051251828670502,0.11682070046663284,-0.9846810102462769,-0.24885094165802002,0.1698315292596817,-0.3039015233516693,31.69571876525879,-9.782886505126953,39.32161331176758,0
375,3749985,0.07219885289669037,-0.14946365356445312,-0.9972352981567383,0.3208841383457184,1.109292984008789,-0.2501291036605835,29.416128158569336,-7.033921241760254,39.674869537353516,0
376,3760174,0.03473011776804924,-0.03421744331717491,-1.0153367519378662,0.6832321882247925,-0.08075419813394547,0.5238155126571655,31.421476364135742,-9.571529388427734,40.053958892822266,0
377,3769897,0.010882697068154812,0.09664154052734375,-0.9967782497406006,-0.812588632106781,-0.6835295557975769,0.40216895937919617,29.336244583129883,-10.826116561889648,40.95995330810547,0
378,3780067,-0.02921462059020996,-0.01083183754235506,-0.9978629350662231,0.2731315791606903,-0.38812071084976196,0.5442027449607849,28.64475440979004,-11.240797996520996,40.18048858642578,0
379,3789991,-0.056605350226163864,0.06578727066516876,-1.0227596759796143,-0.2650454044342041,0.8367452621459961,-0.7059908509254456,29.683544158935547,-8.581428527832031,41.51580047607422,0
380,3800048,0.018095193430781364,-0.0504084937274456,-0.9886388778686523,0.21996325254440308,0.7291332483291626,-0.20173285901546478,30.7905216217041,-8.6454496383667,38.47291564941406,0
381,3810056,-0.04706249013543129,-0.012082384899258614,-0.9838657379150391,-0.42494943737983704,0.5727931261062622,-0.9251581430435181,28.22281265258789,-10.139966011047363,40.7872200012207,0
382,3819877,0.021171897649765015,-0.008236613124608994,-0.9891871809959412,0.5053784847259521,0.8203785419464111,0.7674900889396667,31.42290687561035,-11.191780090332031,39.92446517944336,0
383,3830111,0.035568468272686005,-0.09860195964574814,-0.9837542176246643,-0.31625595688819885,0.027276791632175446,1.09691321849823,29.724689483642578,-12.28176498413086,39.31078338623047,0
384,3840028,-0.06123149022459984,0.0918286144733429,-0.9682505130767822,0.4582505524158478,-0.5042670965194702,0.855686366558075,29.26327133178711,-8.124441146850586,39.27880096435547,0
385,3849773,0.002133340109139681,-0.0182177871465683,-1.0340657234191895,0.35238298773765564,0.13928338885307312,-0.0926055982708931,29.031700134277344,-8.848212242126465,39.080196380615234,0
386,3859874,-0.0238779429346323,0.007306970655918121,-1.0085526704788208,0.7480589151382446,-0.5334703326225281,-0.19878847897052765,28.658723831176758,-10.655884742736816,40.025978088378906,0
387,3870011,0.052725858986377716,-0.034357789903879166,-1.0338304042816162,-0.602590799331665,-0.2553425133228302,-0.31000232696533203,31.475818634033203,-13.329927444458008,43.05619430541992,0
388,3880129,0.0345505028963089,0.004524242132902145,-0.982337474822998,-0.1824425458908081,-1.3333841562271118,0.16169671714305878,31.17003631591797,-8.812409400939941,40.62162780761719,0
389,3890010,0.01861765794456005,-0.09365879744291306,-0.9918074011802673,-0.10921662300825119,-1.2035279273986816,-0.20901061594486237,30.432994842529297,-10.54266357421875,38.18459701538086,0
390,3900057,0.0026787901297211647,0.00808650441467762,-0.9834669232368469,-0.035799022763967514,-0.3022487461566925,0.42102837562561035,30.701353073120117,-6.857573509216309,39.83806610107422,0
391,3909995,-0.02164330519735813,-0.06068902462720871,-0.9869096875190735,1.1766277551651,0.09946276992559433,-0.8235903382301331,28.82073402404785,-10.886408805847168,40.42868423461914,0
392,3920190,-0.08798705786466599,-0.0037003904581069946,-0.986729085445404,0.39565205574035645,-0.02382253296673298,0.05640815570950508,29.379291534423828,-9.13634967803955,38.938602447509766,0
393,3929883,0.08990418910980225,0.002480175346136093,-0.988702654838562,-0.3371293544769287,-0.5101214051246643,-0.10192761570215225,28.588960647583008,-10.11191463470459,40.034053802490234,0
394,3939878,0.04964070022106171,-0.07399849593639374,-0.9937437176704407,-0.22953656315803528,0.3755849301815033,-0.24289774894714355,30.857433319091797,-10.64299488067627,40.372276306152344,0
395,3950112,0.021223263815045357,0.02320646308362484,-0.9961859583854675,-0.3219788074493408,0.5439929366111755,-0.9138602018356323,29.875890731811523,-8.67307186126709,39.489444732666016,0
396,3959789,-0.001618747366592288,0.02875032089650631,-0.9942411780357361,0.1255819946527481,0.599430501461029,0.6102039813995361,29.91701316833496,-10.254335403442383,41.086090087890625,0
397,3970038,0.08087968826293945,0.02899959310889244,-1.000923991203308,0.41516393423080444,-0.4167214035987854,-0.8925041556358337,29.802082061767578,-8.320195198059082,38.83885192871094,0
398,3980151,-0.06137808412313461,-0.018378285691142082,-1.020194411277771,0.08881709724664688,0.7516312003135681,0.03948528692126274,29.185888290405273,-8.980335235595703,40.08510971069336,0
399,3990060,0.020262954756617546,-0.06613092869520187,-0.9671558737754822,0.14815936982631683,-0.3706412613391876,0.04456588625907898,29.778841018676758,-10.439583778381348,39.0629768371582,0
400,3999801,-0.039912447333335876,0.006170347798615694,-0.9984996318817139,0.15512920916080475,0.678108811378479,0.2821449041366577,30.252273559570312,-7.769474983215332,39.95622253417969,0
401,4009775,0.024552153423428535,-0.028691381216049194,-0.9887993335723877,-0.8097180128097534,0.40805914998054504,-0.027119673788547516,30.25197410583496,-9.240721702575684,41.11287307739258,0
402,4019764,0.007573402486741543,0.08563867211341858,-1.0239235162734985,0.39165863394737244,0.07641539722681046,-0.15778177976608276,29.56023406982422,-10.179283142089844,40.69432067871094,0
403,4030002,0.042548418045043945,-0.007883880287408829,-1.0117396116256714,-0.028839947655797005,0.34965184330940247,-0.28178444504737854,29.901447296142578,-10.480846405029297,37.9584846496582,0
404,4039742,0.05339859426021576,-0.029383281245827675,-0.9826425909996033,-0.17639662325382233,0.192913219332695,0.5355716347694397,30.311765670776367,-8.124199867248535,38.373512268066406,0
405,4050131,-0.0819183886051178,-0.005438067018985748,-0.9940232038497925,0.5070002675056458,0.5265687704086304,-1.0590122938156128,30.77154541015625,-9.61641788482666,40.95006561279297,0
406,4059860,-0.0987076610326767,0.0073790294118225574,-1.033945083618164,-0.24684566259384155,0.3705635964870453,-0.6235519051551819,30.744205474853516,-12.45187759399414,41.16659164428711,0
407,4069807,-0.15509168803691864,-0.012895199470221996,-1.0020217895507812,-0.3885405361652374,0.4768642783164978,-0.5008628368377686,31.322612762451172,-8.118575096130371,38.950157165527344,0
408,4079816,0.015499245375394821,-0.029863718897104263,-0.9881030917167664,0.1393076330423355,-0.25423192977905273,0.22840695083141327,30.455163955688477,-9.734709739685059,39.366851806640625,0
409,4089819,0.03665352240204811,-0.06505781412124634,-1.0114840269088745,-0.2546226978302002,-0.045256584882736206,0.2867279350757599,30.41795539855957,-12.08509349822998,38.35512924194336,0
410,4100167,-0.008754667825996876,0.06350371986627579,-0.9775107502937317,0.5620718002319336,-0.17841164767742157,0.003697221167385578,30.949312210083008,-9.400721549987793,39.48904037475586,0
411,4110017,0.03339887782931328,0.161219522356987,-0.9775220155715942,-0.23354937136173248,-0.32250478863716125,0.40669137239456177,30.555118560791016,-8.064620018005371,39.39596939086914,0
412,4120092,0.006154740694910288,0.04429098218679428,-1.0104793310165405,-0.9306046962738037,0.5462380051612854,-0.7617749571800232,29.92762565612793,-9.067212104797363,39.54471206665039,0
413,4129894,0.06574108451604843,-0.018514523282647133,-1.0112078189849854,-0.2984950542449951,-0.9474309086799622,0.23502656817436218,30.14419937133789,-10.103139877319336,38.081485748291016,0
414,4140157,-0.025900039821863174,-0.10342211276292801,-0.9902122616767883,0.41477322578430176,-0.5724983215332031,0.5897666811943054,30.630443572998047,-11.339953422546387,39.81892013549805,0
415,4149852,0.0015633783768862486,0.07579509913921356,-0.9841114282608032,-0.15716293454170227,-0.23342390358448029,0.032322388142347336,29.70649528503418,-10.944046020507812,40.42932891845703,0
416,4159945,0.08490119874477386,0.03604970499873161,-1.0280824899673462,-0.32845067977905273,0.5475412011146545,-0.1744023710489273,29.538928985595703,-9.660395622253418,40.0701904296875,0
417,4170012,-0.033481765538454056,0.051026154309511185,-1.0067806243896484,-0.39598730206489563,0.9123793244361877,0.27771294116973877,29.239227294921875,-10.065986633300781,41.02488327026367,0
418,4180221,-0.037045642733573914,0.04356933385133743,-0.9711475372314453,0.005139498505741358,-0.26904723048210144,0.031451642513275146,30.389596939086914,-10.211427688598633,38.630157470703125,0
419,4190113,0.008298945613205433,0.07037976384162903,-0.9956964254379272,-1.0015478134155273,0.01061304658651352,-0.24730442464351654,29.756086349487305,-11.61874008178711,40.26050567626953,0
420,4200009,0.010237106122076511,-0.046056315302848816,-0.9951480627059937,-0.038673702627420425,0.4600236117839813,-0.0605391263961792,31.60995864868164,-10.501124382019043,39.78657913208008,0
421,4209954,-0.01158581580966711,0.07998477667570114,-1.0081076622009277,0.1594080626964569,1.0963335037231445,0.5204625725746155,29.623926162719727,-9.344568252563477,40.82136535644531,0
422,4219949,-0.010100136511027813,0.012210301123559475,-0.9909969568252563,0.11717331409454346,0.8418991565704346,-0.5740735530853271,29.71290397644043,-10.832197189331055,40.93051528930664,0
423,4229931,-0.023142965510487556,-0.03581991791725159,-1.0097591876983643,0.3837684690952301,1.1994948387145996,0.028529681265354156,29.757543563842773,-11.786404609680176,40.62455368041992,0
424,4240113,0.004550210665911436,-0.10095281898975372,-1.0159862041473389,0.510397732257843,-0.7716561555862427,-0.304145485162735,29.398162841796875,-9.013026237487793,38.26396560668945,0
425,4250234,-0.00911200512200594,-0.10254106670618057,-0.9963245391845703,-0.00210580718703568,-0.4011392295360565,-0.40623462200164795,31.448143005371094,-9.100972175598145,40.0596809387207,0
426,4259982,0.05705678090453148,0.020536188036203384,-1.0139238834381104,0.5989489555358887,-1.0462558269500732,0.10921767354011536,30.517868041992188,-10.875261306762695,38.96986389160156,0
427,4270111,0.01058355625718832,0.07170086354017258,-1.008003830909729,0.8016313314437866,0.1643403321504593,-0.2582235634326935,28.96982765197754,-9.970358848571777,40.13161087036133,0
428,4279969,0.009939159266650677,-0.051649514585733414,-1.001157283782959,1.1241021156311035,-0.2631162106990814,0.07819381356239319,28.715316772460938,-10.446166038513184,38.329139709472656,0
429,4289959,-0.049343373626470566,-0.04411771893501282,-0.9807570576667786,0.5808061361312866,-0.02443976141512394,0.12448057532310486,31.80068588256836,-10.41966724395752,38.20859909057617,0
430,4300018,-0.0249731857329607,-0.056802622973918915,-0.9651342034339905,-0.22643370926380157,1.1468931436538696,0.43609607219696045,30.144643783569336,-9.67099666595459,39.026588439941406,0
431,4310041,0.06330418586730957,-0.05025091394782066,-0.9995034337043762,-0.07329980283975601,0.5421048402786255,0.00018332355830352753,30.933897018432617,-8.468899726867676,38.978858947753906,0
432,4319999,0.04953350871801376,-0.10930369049310684,-0.9713414907455444,1.081173300743103,0.39478036761283875,0.35097387433052063,28.66722297668457,-9.718960762023926,40.01213836669922,0
433,4330084,-0.007796711754053831,0.03828613460063934,-0.9846109747886658,0.10848214477300644,0.11259474605321884,-0.8399121165275574,29.219730377197266,-10.571879386901855,39.526756286621094,0
434,4340038,-0.0026518197264522314,-0.09064513444900513,-0.9929200410842896,0.3862694799900055,0.1807413399219513,-0.09371320903301239,30.265153884887695,-8.720587730407715,39.47979736328125,0
435,4350011,0.08307218551635742,-0.08174191415309906,-1.0003260374069214,0.260614812374115,0.8038614392280579,-0.4328517019748688,29.387588500976562,-8.480485916137695,41.381141662597656,0
436,4360038,-0.06021680682897568,0.0078004696406424046,-0.9955244660377502,0.026907391846179962,0.0975942462682724,-0.7052807807922363,30.14780616760254,-10.653626441955566,40.390045166015625,0
437,4369962,0.04909132048487663,-0.01282930001616478,-1.015011191368103,0.45629769563674927,0.02535693533718586,-0.633443295955658,30.312652587890625,-11.415587425231934,40.436222076416016,0
438,4380067,0.02477768249809742,0.08418354392051697,-0.9783499836921692,-0.0772860199213028,0.7063174843788147,0.1779356747865677,29.783926010131836,-10.448409080505371,41.330997467041016,0
439,4389838,-0.0854504331946373,0.008098697289824486,-0.9925832152366638,-0.5788030028343201,-0.06236693635582924,-0.004859177395701408,30.490217208862305,-9.360055923461914,41.806636810302734,0
440,4399931,0.04092442989349365,0.019554244354367256,-0.9678545594215393,0.21772293746471405,0.5524376630783081,0.18699535727500916,31.380971908569336,-9.068839073181152,40.29843521118164,0
441,4410031,-0.011488902382552624,-0.01461757905781269,-0.9962417483329773,-0.17781542241573334,0.3704091012477875,0.24411670863628387,29.70330047607422,-9.360363960266113,37.89816665649414,0
442,4420052,-0.0922442078590393,0.0006683326209895313,-1.0246268510818481,0.5321699976921082,0.6344761252403259,-0.41051048040390015,30.719131469726562,-7.646491527557373,38.676212310791016,0
443,4430158,0.0017953377682715654,0.08967405557632446,-1.0355221033096313,1.495211124420166,0.2687815725803375,-0.07725628465414047,30.841083526611328,-10.775469779968262,39.90910339355469,0
444,4439865,-0.06059708073735237,0.02741433121263981,-0.9632188081741333,-0.3616478741168976,0.19136734306812286,-0.38022488355636597,29.582502365112305,-9.247749328613281,39.77557373046875,0
445,4449887,-0.0734400525689125,-0.016334930434823036,-1.041144847869873,-0.15752024948596954,-0.2952004373073578,-0.898440420627594,30.263473510742188,-8.527207374572754,40.25052261352539,0
446,4460072,0.011699815280735493,0.0189700685441494,-0.992670476436615,0.9440112113952637,-0.8311963677406311,-0.41954517364501953,28.81730079650879,-10.514347076416016,39.52406311035156,0
447,4470152,-0.0422234907746315,0.02733374945819378,-0.996368944644928,-0.20899352431297302,0.027676917612552643,-0.9603782296180725,28.94632339477539,-10.281123161315918,39.756927490234375,0
448,4479864,-0.06916191428899765,0.08087809383869171,-1.024302363395691,0.13407526910305023,-0.04195297136902809,-0.2627952992916107,29.94330596923828,-9.736190795898438,39.91678237915039,0
449,4489961,-0.003507917746901512,0.016182634979486465,-0.9846320748329163,0.22855238616466522,1.1233243942260742,-0.7216120362281799,29.964385986328125,-9.992073059082031,41.94078063964844,0
450,4499907,0.057327546179294586,-0.011638153344392776,-0.9954964518547058,-0.08082742989063263,-0.05395112559199333,-0.12394072115421295,28.54413414001465,-11.726275444030762,39.30727005004883,0
451,4510205,0.07066618651151657,0.07881297916173935,-0.9815783500671387,-0.7734444737434387,1.1195330619812012,0.23113739490509033,29.556421279907227,-11.79859447479248,38.82978820800781,0
452,4520229,-0.05240761116147041,-0.07773290574550629,-1.0431615114212036,-0.33983269333839417,0.07814554870128632,0.06923941522836685,30.489416122436523,-10.867490768432617,40.20783233642578,0
453,4529970,0.00173495605122298,0.019798556342720985,-1.0225131511688232,-0.7789629101753235,-0.028526658192276955,0.6022350192070007,27.263025283813477,-9.483686447143555,40.59798812866211,0
454,4539857,0.021506572142243385,-0.0767819806933403,-0.9758718609809875,0.3204382061958313,-0.0480499230325222,0.7264687418937683,29.498430252075195,-10.386643409729004,38.644840240478516,0
455,4550134,-0.050958458334207535,-0.03927399963140488,-1.0120433568954468,-0.2670333683490753,-0.6967532634735107,-0.8143320679664612,28.319765090942383,-9.52608871459961,39.756282806396484,0
456,4560142,0.010352934710681438,0.038573358207941055,-0.9839738011360168,0.058657772839069366,0.6227846741676331,0.4882817268371582,31.36130142211914,-9.340608596801758,40.3834228515625,0
457,4569917,0.00021753262262791395,-0.05696217343211174,-1.005020260810852,0.5106202960014343,-0.26807770133018494,-0.1856343150138855,28.155332565307617,-9.90687084197998,39.854820251464844,0
458,4579989,0.049337491393089294,-0.05643360689282417,-1.0142725706100464,0.49476221203804016,0.06339848041534424,-0.5480859279632568,27.582088470458984,-11.408224105834961,38.78200149536133,0
459,4590099,-0.06307289749383926,-0.06903304159641266,-0.9997342228889465,-0.6862963438034058,-0.46967294812202454,-0.24991475045681,30.70357894897461,-9.889790534973145,40.425437927246094,0
460,4599880,0.026163721457123756,-0.04227359592914581,-1.0207206010818481,0.3085683584213257,-0.747730553150177,0.28237366676330566,29.670347213745117,-9.364858627319336,40.80745315551758,0
461,4609732,-0.0301026850938797,0.0053867376409471035,-0.9923576712608337,-0.8003189563751221,0.41206467151641846,-0.06784562021493912,28.92323875427246,-8.75557804107666,39.900169372558594,0
462,4619935,-0.04947185888886452,0.017883915454149246,-0.974136471748352,-0.03506512939929962,0.9076400995254517,0.044077225029468536,30.046733856201172,-9.831074714660645,39.28554916381836,0
463,4629879,-0.11031470447778702,-0.07338350266218185,-0.9784872531890869,-0.06882582604885101,-0.26773327589035034,-0.3995860517024994,30.447282791137695,-9.815778732299805,40.14020919799805,0
464,4640126,0.10798440128564835,0.10399258881807327,-0.9890762567520142,-0.5796222686767578,-0.18199805915355682,-0.041581012308597565,30.158145904541016,-10.367215156555176,41.264286041259766,0
465,4649945,0.005896396469324827,-0.03197137266397476,-1.0172696113586426,-0.5484610199928284,0.45769912004470825,-0.10172359645366669,30.876041412353516,-10.347167015075684,40.34364700317383,0
466,4659992,-0.009677163325250149,0.04575425758957863,-1.019893765449524,-0.11137156933546066,0.6827372908592224,-0.14180989563465118,31.709108352661133,-10.257365226745605,38.90484619140625,0
467,4669782,0.012131758034229279,-0.028620362281799316,-1.0159392356872559,-0.2509695887565613,-0.15910033881664276,0.014968457631766796,31.950542449951172,-10.36038589477539,39.2546501159668,0
468,4680203,0.00011601551523199305,0.01529410295188427,-0.9850939512252808,-1.0128906965255737,0.32403337955474854,-0.5966077446937561,30.576499938964844,-9.430320739746094,39.58308029174805,0
469,4689727,0.09299380332231522,-0.04047749564051628,-0.9886637926101685,0.10299792140722275,-0.10463298857212067,0.4499187171459198,30.565229415893555,-10.103211402893066,38.4603271484375,0
470,4699955,-0.05905504524707794,0.024690033867955208,-1.0733028650283813,-0.5293639302253723,0.09133780747652054,-0.3730388581752777,29.804956436157227,-10.12399959564209,40.34534454345703,0
471,4710104,0.06221631169319153,0.057329241186380386,-0.9871849417686462,0.12870275974273682,0.3847314417362213,-0.5875182151794434,28.887046813964844,-10.488876342773438,39.799827575683594,0
472,4719858,-0.020244330167770386,0.0929051861166954,-1.0293456315994263,0.04241611063480377,-0.4169871509075165,0.4465775489807129,28.534793853759766,-8.432425498962402,39.96719741821289,0
473,4729829,-0.05932183563709259,-0.07942915707826614,-1.0152732133865356,-0.4757481813430786,0.1688230335712433,-0.5496061444282532,29.795072555541992,-10.683810234069824,39.0147590637207,0
474,4740145,-0.02179098315536976,-0.08206111192703247,-0.9818763732910156,-1.3787620067596436,-0.708148181438446,-0.49543827772140503,28.519227981567383,-7.803971290588379,40.091346740722656,0
475,4749770,0.05364494025707245,0.041207995265722275,-0.9770732522010803,1.1559014320373535,-0.2552591562271118,0.6963810920715332,31.963180541992188,-9.03148078918457,40.51799392700195,0
476,4760028,0.024568436667323112,0.06215471774339676,-0.9457361102104187,0.15738242864608765,-0.29954180121421814,0.24180322885513306,29.57221221923828,-10.672821044921875,40.084632873535156,0
477,4770098,0.03971419855952263,0.06276634335517883,-0.9765229821205139,-0.6176141500473022,0.3360946476459503,0.6471899151802063,29.347209930419922,-10.969141006469727,39.79275894165039,0
478,4779965,-0.06875084340572357,0.023722073063254356,-0.981047511100769,-0.03737340122461319,0.00817270576953888,-0.25928688049316406,30.36789321899414,-9.283960342407227,39.541587829589844,0
479,4790016,-0.036401767283678055,-0.04004418104887009,-0.9981570243835449,-0.5026555061340332,-0.38878804445266724,0.5372933745384216,30.197975158691406,-9.922069549560547,39.93857192993164,0
480,4800136,-0.0050680129788815975,0.052243009209632874,-1.0072964429855347,-0.30903369188308716,0.5246108770370483,-0.5793417692184448,29.766551971435547,-10.089690208435059,38.946693420410156,0
481,4809896,-0.01716100610792637,0.019561920315027237,-1.0087335109710693,-0.09651493281126022,0.15206614136695862,0.4589857757091522,30.053035736083984,-9.319171905517578,39.39480972290039,0
482,4819823,-0.03505101054906845,-0.03133136406540871,-1.0068002939224243,-0.5663383603096008,-0.43536698818206787,-0.0007666668388992548,29.74382781982422,-9.785318374633789,39.3597297668457,0
483,4829883,-0.03480418026447296,-0.011409149505198002,-1.0172119140625,0.39974749088287354,0.3945351839065552,1.0355862379074097,29.264650344848633,-8.373470306396484,41.700443267822266,0
484,4840095,-0.004211578983813524,0.02006901241838932,-1.0092477798461914,0.018632564693689346,-0.0074073332361876965,-0.2008545696735382,30.107999801635742,-10.077364921569824,40.054420471191406,0
485,4849789,0.043499961495399475,0.006603749003261328,-1.0134178400039673,0.1381981372833252,0.07531747221946716,-0.3662889897823334,30.585901260375977,-9.427474021911621,40.350074768066406,0
486,4860010,0.07654914259910583,0.025753548368811607,-1.0003910064697266,-0.1141086220741272,0.36647355556488037,-0.10773401707410812,28.4091739654541,-8.684833526611328,40.96122741699219,0
487,4870066,0.004788664635270834,0.018693815916776657,-1.0280845165252686,0.2962844967842102,-0.33294177055358887,0.5591802000999451,31.093950271606445,-10.922104835510254,40.53653335571289,0
488,4879903,-0.04172740876674652,0.05144086107611656,-0.991902768611908,-0.8539230227470398,-0.0915214791893959,0.44645750522613525,29.654083251953125,-12.22251033782959,40.265281677246094,0
489,4889841,0.08118629455566406,-0.002296247985213995,-1.0170952081680298,0.11760653555393219,-1.0541810989379883,-0.892047643661499,29.964832305908203,-9.835856437683105,41.0848503112793,0
490,4899981,0.009950682520866394,-0.0020258782897144556,-1.0163904428482056,0.5166736245155334,-0.2354634702205658,-0.7498737573623657,30.72299575805664,-8.60798168182373,40.71528625488281,0
491,4909748,0.02121691219508648,-0.006833934690803289,-0.9844648838043213,0.07112549990415573,-0.2512994110584259,0.11467582732439041,28.930091857910156,-10.776301383972168,38.08183670043945,0
492,4920070,-0.052590079605579376,0.06449028849601746,-1.0179768800735474,-0.567796528339386,-0.28580808639526367,0.49832695722579956,30.270601272583008,-10.979036331176758,41.28470230102539,0
493,4930091,0.055470388382673264,0.1034737303853035,-0.999654233455658,0.10885459184646606,-0.06879296153783798,0.25102943181991577,29.130891799926758,-10.379101753234863,39.432071685791016,0
494,4940161,-0.00016238806711044163,0.06968564540147781,-0.9861513376235962,-0.549028754234314,0.43035316467285156,0.9633192420005798,28.770410537719727,-9.616141319274902,39.9379768371582,0
495,4950075,-0.009559690952301025,0.06369997560977936,-1.0150777101516724,0.10336589068174362,-0.16775575280189514,1.0443098545074463,29.91559410095215,-10.643279075622559,39.98915100097656,0
496,4960079,0.03403233364224434,-0.052047766745090485,-1.0031191110610962,-0.7603420615196228,0.2012951374053955,0.35731449723243713,30.017873764038086,-8.724003791809082,41.725765228271484,0
497,4970009,0.0027480130083858967,-0.02500721625983715,-1.0012903213500977,0.107624351978302,0.3452264666557312,-0.8291402459144592,30.997140884399414,-9.872281074523926,39.48514938354492,0
498,4979859,0.12438066303730011,0.06029603257775307,-0.9988548755645752,-0.06870266795158386,-0.3333553969860077,0.25706180930137634,27.809085845947266,-10.195191383361816,40.61262893676758,0
499,4989938,0.049109991639852524,-0.005182640161365271,-1.0044500827789307,0.1576053351163864,-0.10084705799818039,-0.217323899269104,29.896432876586914,-11.198732376098633,40.45465087890625,0
500,4999755,-0.050643473863601685,-0.02876322902739048,-0.979942262172699,-0.8604736328125,1.0187424421310425,-0.09339027851819992,29.97490692138672,-10.003832817077637,39.90314865112305,0
501,5009839,0.08304598927497864,0.10182671993970871,-1.014121651649475,0.6410151124000549,0.6201079487800598,0.8074124455451965,31.71312713623047,-11.025774002075195,39.52524948120117,0
502,5019796,0.01613018289208412,-0.11160147190093994,-0.984503984451294,-0.3694174289703369,0.5620288252830505,-0.6615116596221924,30.80939292907715,-7.745601654052734,39.483001708984375,0
503,5030142,0.053579725325107574,-0.0498378686606884,-0.9851003289222717,-0.7330401539802551,0.11140234768390656,-0.9899784326553345,30.128929138183594,-12.345559120178223,38.38263702392578,0
504,5040167,-0.013048381544649601,0.012384743429720402,-1.001314401626587,0.30073463916778564,-0.836665153503418,-0.015811195597052574,30.665796279907227,-9.897998809814453,38.09231185913086,0
505,5050069,-0.012622108682990074,-0.09485891461372375,-1.043837547302246,-0.08499903976917267,0.1487518846988678,-0.2818188965320587,28.644216537475586,-12.207834243774414,39.63862991333008,0
506,5060066,-0.006670907139778137,0.029008496552705765,-1.0249176025390625,0.5838369131088257,0.007309786509722471,0.18063999712467194,29.88041877746582,-9.823675155639648,40.57111740112305,0
507,5069878,-0.016620874404907227,-0.03891342133283615,-1.022983431816101,-1.0416605472564697,-0.8977584838867188,0.22457803785800934,30.412424087524414,-9.987334251403809,40.512794494628906,0
508,5080097,0.012026946991682053,0.050610337406396866,-0.9957091808319092,-0.39331507682800293,-0.3424363434314728,-0.25278186798095703,30.229740142822266,-11.378480911254883,38.7185173034668,0
509,5090143,-0.022531967610120773,0.02527814544737339,-0.9936720132827759,-0.5855401754379272,0.9074875712394714,-0.28305238485336304,29.621644973754883,-9.18013858795166,42.18291091918945,0
510,5099957,0.015535813756287098,-0.04349122568964958,-0.9965859651565552,0.2633779048919678,0.4075697064399719,-0.38973385095596313,29.019929885864258,-8.986714363098145,38.33789825439453,0
511,5109916,-0.08399315923452377,0.031808897852897644,-0.9847212433815002,-1.3999601602554321,0.2675842344760895,-0.011923030950129032,29.89931869506836,-11.035054206848145,40.825374603271484,0
512,5120023,0.09370145946741104,-0.00396478408947587,-0.9660159945487976,0.7827722430229187,-0.3023083508014679,0.6707784533500671,31.018388748168945,-8.78557014465332,38.86374282836914,0
513,5130117,2.998490526806563e-05,-0.03250551223754883,-1.001908779144287,0.1376485824584961,-0.31281834840774536,0.26241058111190796,30.357582092285156,-8.652299880981445,42.57319641113281,0
514,5139673,-0.006906687747687101,-0.06174681335687637,-1.0232734680175781,0.5939815640449524,0.8373928070068359,-0.21292239427566528,31.134077072143555,-8.431761741638184,42.551780700683594,0
515,5149974,0.0004498478665482253,-0.019958309829235077,-0.9544954299926758,0.22647801041603088,-0.33794721961021423,-0.16459813714027405,30.5748348236084,-9.916666984558105,40.93041229248047,0
516,5160021,0.04930748790502548,-0.0422004871070385,-0.9760071039199829,-0.14343346655368805,-1.339117169380188,0.2771695554256439,30.411470413208008,-10.170684814453125,40.28730010986328,0
517,5170033,-0.03416679427027702,0.050220753997564316,-0.9844609498977661,0.4472026526927948,-0.2137778252363205,1.3616429567337036,28.334531784057617,-9.615426063537598,39.81388854980469,0
518,5180222,0.07325248420238495,0.02921297587454319,-1.0206570625305176,-0.44461724162101746,-0.05072050914168358,-0.2898005545139313,30.019535064697266,-9.902936935424805,40.65855026245117,0
519,5189978,-0.07762380689382553,0.006269535981118679,-0.9671097993850708,0.13700638711452484,-0.1051640436053276,0.5476766228675842,29.362337112426758,-10.210987091064453,39.77307891845703,0
520,5200051,-0.038090795278549194,-0.02530083619058132,-1.0207457542419434,-0.7251220941543579,-0.31171804666519165,1.1145485639572144,28.428096771240234,-9.51510238647461,39.65834426879883,0
521,5209924,0.09261450171470642,-0.015404784120619297,-0.9734429717063904,-0.9161972403526306,-0.5382744669914246,0.5985432267189026,30.449899673461914,-7.875826835632324,39.598758697509766,0
522,5220169,0.03492072597146034,-0.052468590438365936,-0.9870317578315735,0.10694000124931335,-0.09313848614692688,-0.12665288150310516,30.05648422241211,-10.645248413085938,40.28880310058594,0
523,5229879,0.08016935735940933,0.061525534838438034,-0.9990952014923096,-0.05323357507586479,-0.20478151738643646,-0.9557124376296997,29.705738067626953,-9.803030967712402,40.653751373291016,0
524,5240018,0.07236694544553757,0.045502107590436935,-0.9843276739120483,0.11953368782997131,0.4589904546737671,0.20942910015583038,30.20479393005371,-9.889986991882324,39.28819274902344,0
525,5249956,-0.06365104764699936,0.05003172531723976,-0.9677733182907104,-0.6703594326972961,-0.7237233519554138,0.7179394364356995,31.197952270507812,-10.339468002319336,41.66465377807617,0
526,5260159,0.01770792156457901,-0.03548756241798401,-0.9888594746589661,-0.05124998837709427,0.09075655788183212,0.30865606665611267,29.72208023071289,-10.344027519226074,39.353492736816406,0
527,5270062,-0.12383822351694107,0.04818667098879814,-1.020052194595337,-0.5765159726142883,0.810886800289154,-0.4486762583255768,30.04745101928711,-10.847234725952148,39.355445861816406,0
528,5279778,0.0621226541697979,0.04578566923737526,-0.987027645111084,-0.5935346484184265,-0.31461411714553833,-0.21853965520858765,30.143264770507812,-7.989914417266846,38.578468322753906,0
529,5289701,0.05784483999013901,0.0195767879486084,-1.0001208782196045,0.21920178830623627,-0.033095601946115494,-0.8391774892807007,30.172937393188477,-10.332257270812988,41.36045455932617,0
530,5300372,0.0026174765080213547,-0.02594892308115959,-0.987228274345398,-0.9390701651573181,0.17390809953212738,-0.5351299047470093,28.713014602661133,-9.160219192504883,42.021881103515625,0
531,5309651,0.05002356320619583,-0.021113771945238113,-0.9497646689414978,0.48610958456993103,0.19357918202877045,-0.2256760150194168,29.5488224029541,-11.853185653686523,40.10621643066406,0
532,5319799,0.027999958023428917,-0.09175081551074982,-0.9856748580932617,-0.03135443478822708,-0.24331268668174744,1.0025049448013306,30.122970581054688,-10.315048217773438,39.285240173339844,0
533,5330024,-0.08169148862361908,0.0316111259162426,-0.9940513968467712,0.6143761277198792,0.14089623093605042,0.7594394087791443,30.313440322875977,-10.042672157287598,38.53114700317383,0
534,5340213,0.04232991114258766,-0.007435121573507786,-0.9939908385276794,-0.03452780842781067,0.19754542410373688,0.1845608800649643,29.952550888061523,-9.888691902160645,39.368316650390625,0
535,5350148,-0.05342947691679001,0.04398878291249275,-1.0122593641281128,0.5493500232696533,-0.059117428958415985,0.09005405008792877,29.646757125854492,-8.959218978881836,40.17341232299805,0
536,5360034,-0.0283754114061594,0.02290521189570427,-1.007709264755249,-0.22966621816158295,0.8225969672203064,0.5072891712188721,29.10309600830078,-9.005298614501953,40.23720932006836,0
537,5369823,0.07680320739746094,0.03425019606947899,-0.9967342615127563,0.6668300032615662,-0.6137135624885559,-0.009331542998552322,30.011619567871094,-11.72288703918457,39.50873947143555,0
538,5379832,-0.04519643262028694,0.06581828743219376,-1.0420230627059937,-0.45323896408081055,0.8757471442222595,-0.40391817688941956,29.473527908325195,-11.10901165008545,40.51183319091797,0
539,5390043,0.005273318849503994,0.05201829597353935,-1.0372952222824097,0.5905134081840515,-0.4438990652561188,-0.20787140727043152,29.32766342163086,-8.48089599609375,40.9444694519043,0
540,5399826,0.003502985928207636,0.046835899353027344,-1.0253479480743408,0.15300285816192627,-0.2452806532382965,-0.8232119679450989,29.072050094604492,-10.601691246032715,37.964996337890625,0
541,5410002,-0.06615768373012543,-0.03761138394474983,-0.9814758896827698,0.2017323076725006,-0.29609552025794983,0.774712324142456,30.906675338745117,-9.420846939086914,40.955238342285156,0
542,5419938,0.044370658695697784,-0.0188431553542614,-0.9809363484382629,-0.03716030344367027,0.7087664604187012,0.30308952927589417,30.455684661865234,-9.987415313720703,39.358985900878906,0
543,5429821,0.03279249370098114,0.012696088291704655,-1.0120437145233154,-0.9156880378723145,0.6512160897254944,0.03525286167860031,28.85532569885254,-10.16297435760498,41.15549850463867,0
544,5440057,-0.005969555117189884,0.04991791397333145,-1.013122797012329,0.18384435772895813,0.08382129669189453,-0.5631628632545471,29.195215225219727,-9.665831565856934,39.87887954711914,0
545,5450059,-0.09873536974191666,-0.06308238953351974,-0.9820828437805176,0.9736338257789612,0.44221559166908264,0.09984657168388367,30.387054443359375,-9.370790481567383,41.405452728271484,0
546,5460220,0.03935541957616806,-0.030589673668146133,-0.9811544418334961,0.06564159691333771,0.22195906937122345,-0.6874744296073914,31.14095115661621,-9.7520170211792,38.661399841308594,0
547,5469927,-0.08029457926750183,0.012410247698426247,-1.0156065225601196,-0.19013385474681854,0.06870955228805542,0.2037721574306488,30.725852966308594,-11.95640754699707,39.87510299682617,0
548,5480016,0.0008705547661520541,0.09221615642309189,-0.9581087827682495,-0.8744726777076721,0.33339035511016846,-1.1590030193328857,29.95480728149414,-9.395766258239746,40.972293853759766,0
549,5489979,0.01966901496052742,-0.004968102555721998,-0.994813859462738,-0.5026454925537109,-1.2149451971054077,-0.6351754665374756,28.993356704711914,-8.736137390136719,38.9079475402832,0
550,5499981,-0.028487034142017365,-0.02661522477865219,-1.0155487060546875,-0.13532322645187378,-0.14894402027130127,-0.6072013974189758,29.84039878845215,-9.598308563232422,40.29694366455078,0
551,5509868,-0.03696558251976967,-0.02326168678700924,-1.0130512714385986,-0.11505977064371109,-0.16468283534049988,0.7110012173652649,31.108217239379883,-11.242074966430664,37.729766845703125,0
552,5519925,-0.078610360622406,-0.03473597392439842,-0.9655463099479675,0.7921856641769409,0.7592316269874573,-0.19892656803131104,29.72007942199707,-10.357173919677734,38.53315353393555,0
553,5530108,-0.019711073487997055,-0.012047877535223961,-1.0286400318145752,-0.9745467305183411,-0.043295059353113174,-0.20461255311965942,28.357465744018555,-11.57577133178711,39.47815704345703,0
554,5539922,0.055665355175733566,-0.015272878110408783,-1.0051096677780151,-0.713376522064209,0.7408713698387146,-0.7268022298812866,30.759347915649414,-10.744126319885254,40.438201904296875,0
555,5550204,0.03607574850320816,0.042259346693754196,-1.0136862993240356,-0.21224583685398102,-0.11694769561290741,-0.6867560148239136,27.927398681640625,-11.09068489074707,38.75627899169922,0
556,5560029,0.033562880009412766,-0.013941545970737934,-0.9717956185340881,-0.7290226817131042,-0.326700896024704,0.22379082441329956,29.039155960083008,-9.220298767089844,39.77314758300781,0
557,5570096,0.06540866941213608,0.02212081104516983,-1.0313870906829834,0.5003214478492737,0.5214973092079163,-0.17571386694908142,30.30963706970215,-9.802680969238281,39.4915771484375,0
558,5580036,-0.05219460651278496,0.013714171014726162,-1.0078999996185303,-0.7247154116630554,-0.17687676846981049,0.09500431269407272,30.5283260345459,-9.207132339477539,38.950321197509766,0
559,5589920,-0.04927421361207962,-0.03773386403918266,-1.0053879022598267,0.0869622603058815,0.28028517961502075,-0.297124981880188,30.018983840942383,-10.159721374511719,39.256343841552734,0
560,5599946,0.10537104308605194,0.009278418496251106,-1.0223406553268433,-0.7985621094703674,-0.18748316168785095,-0.40565285086631775,30.50031852722168,-8.867826461791992,40.94636154174805,0
561,5609983,0.05734226107597351,-0.0035412635188549757,-0.9735074639320374,-0.35430559515953064,-0.45227357745170593,-1.3301701545715332,28.353181838989258,-9.119730949401855,40.12023162841797,0
562,5620144,0.07426190376281738,-0.03193025663495064,-1.0140821933746338,-0.735881507396698,-0.1517193615436554,-0.23869509994983673,29.48826026916504,-9.696581840515137,40.33406066894531,0
563,5630065,0.01348564401268959,-0.06662049889564514,-1.0264447927474976,-0.11796333640813828,0.28263136744499207,-0.12749920785427094,27.219369888305664,-10.80923843383789,41.638729095458984,0
564,5640235,0.06876630336046219,0.07314421236515045,-1.0182205438613892,0.22033441066741943,0.39383623003959656,0.26657888293266296,30.777708053588867,-8.452079772949219,42.01438522338867,0
565,5649966,-0.06515748798847198,-0.06082414835691452,-1.0089094638824463,0.12040388584136963,-0.12936975061893463,-0.2606433928012848,29.73843765258789,-9.477373123168945,40.86308670043945,0
566,5660130,-0.03999089449644089,-0.0597086176276207,-1.0243544578552246,0.13701921701431274,-0.6169586777687073,0.8493216037750244,31.53135871887207,-9.880663871765137,40.499671936035156,0
567,5670107,0.07045502960681915,0.02105778455734253,-1.0156688690185547,-0.5150629281997681,-0.2797771394252777,0.5263289213180542,31.69416618347168,-8.72691822052002,38.141929626464844,0
568,5679987,0.04705438390374184,-0.015866266563534737,-0.9787439703941345,0.244966059923172,0.6733217239379883,-0.12059131264686584,29.90381622314453,-10.08962345123291,39.04030227661133,0
569,5689711,-0.021643994376063347,0.060385774821043015,-0.9880156517028809,-0.294189453125,-0.7034372091293335,-0.13045239448547363,29.68212127685547,-10.068038940429688,40.191837310791016,0
570,5699947,0.01537986472249031,0.09755806624889374,-1.0025793313980103,-0.45275750756263733,-0.3114872872829437,0.14349830150604248,30.30350112915039,-10.166045188903809,39.549625396728516,0
571,5709921,0.04762989282608032,-0.004452099092304707,-1.0268217325210571,0.5426969528198242,0.4193684756755829,0.6457931995391846,30.900800704956055,-10.035215377807617,38.62747573852539,0
572,5720071,-0.06442875415086746,-0.020943136885762215,-1.025759220123291,0.7755177021026611,-0.011818707920610905,0.010347532108426094,29.067468643188477,-9.101822853088379,37.14139938354492,0
573,5730125,0.016224659979343414,-0.052133746445178986,-1.010448694229126,-0.718850314617157,-0.1834261268377304,-0.6298019886016846,31.05116844177246,-9.70877742767334,40.860595703125,0
574,5740090,-0.01136840507388115,-0.014953193254768848,-0.9977267980575562,-0.46555599570274353,0.4061960279941559,0.2733204960823059,28.455013275146484,-11.331989288330078,40.79942321777344,0
575,5749954,-0.01914065331220627,-0.06746909022331238,-1.0105528831481934,-0.31482332944869995,-0.13511912524700165,0.2195349782705307,29.21874237060547,-11.738543510437012,38.116485595703125,0
576,5760022,-0.02823348343372345,-0.011381318792700768,-1.0016663074493408,0.30020251870155334,0.10968726873397827,-0.1488974392414093,29.83129119873047,-9.178094863891602,40.208030700683594,0
577,5770281,-0.08665473759174347,0.040718525648117065,-1.0020369291305542,0.7356063723564148,-0.608905017375946,0.15339776873588562,29.0887393951416,-10.05284309387207,41.5930061340332,0
578,5780113,0.07960795611143112,0.015945998951792717,-1.0284868478775024,0.3448222875595093,-0.06931501626968384,-0.6189925670623779,29.285486221313477,-9.13567066192627,39.94001388549805,0
579,5790055,-0.0011617188574746251,0.027286283671855927,-0.9708876013755798,0.1922624409198761,0.10390515625476837,0.3953685164451599,32.108890533447266,-10.934944152832031,38.537662506103516,0
580,5799715,0.02361300401389599,0.06878102570772171,-0.9855930209159851,-0.8512524962425232,-0.00681290915235877,0.056188102811574936,30.065593719482422,-11.43209457397461,41.392608642578125,0
581,5809999,0.029330339282751083,-0.046471007168293,-1.0040477514266968,0.4717467427253723,-0.3013870120048523,-0.23582683503627777,29.8231258392334,-9.670999526977539,38.952972412109375,0
582,5819868,0.05132049322128296,-0.03310047835111618,-0.999838650226593,0.49873343110084534,0.15928667783737183,-0.1746634691953659,30.600566864013672,-8.025172233581543,40.00847625732422,0
583,5830002,-0.07517191767692566,0.016361165791749954,-0.9891374111175537,0.040219392627477646,0.6787267923355103,0.2582213282585144,32.210304260253906,-9.528443336486816,41.7772216796875,0
584,5839782,0.06597160547971725,-0.07950824499130249,-1.04446542263031,-0.06358932703733444,-0.11707580834627151,-0.012883198447525501,30.840824127197266,-10.124687194824219,39.80997848510742,0
585,5850252,-0.024028290063142776,-0.04700036346912384,-0.9873232841491699,-0.1280362606048584,0.622238278388977,0.8903655409812927,28.927417755126953,-10.067965507507324,39.59423828125,0
586,5859868,-0.04418839141726494,-0.0235437024384737,-1.0060235261917114,0.4447781443595886,0.3255179822444916,-0.08788450807332993,31.452810287475586,-10.50659465789795,39.10880661010742,0
587,5870081,0.03634100407361984,0.02385871112346649,-0.9790989756584167,-0.023291287943720818,0.24990886449813843,-0.25707322359085083,29.090164184570312,-10.278203010559082,38.56855010986328,0
588,5880068,-0.03901049494743347,0.11308376491069794,-1.0457173585891724,-0.29897385835647583,-0.3016817569732666,-0.5522173047065735,30.294994354248047,-9.622271537780762,39.612972259521484,0
589,5890099,-0.07735738158226013,-0.0012731167953461409,-0.978509247303009,0.3954090178012848,0.10763625055551529,-0.38528504967689514,30.115949630737305,-11.36900520324707,38.46733474731445,0
590,5899943,-0.11142671853303909,0.04962680861353874,-1.001200556755066,-0.1933104246854782,0.4285935163497925,0.716200053691864,30.59785270690918,-12.488787651062012,39.66401672363281,0
591,5910071,-0.04236214607954025,-0.07124633342027664,-1.0161372423171997,0.22936034202575684,0.6442346572875977,0.18275940418243408,27.86985206604004,-10.078912734985352,38.95343780517578,0
592,5919931,0.08222344517707825,-0.0017460183007642627,-0.9940693974494934,0.3209390640258789,-0.5842375159263611,-0.39793702960014343,28.865524291992188,-8.872222900390625,40.10770797729492,0
593,5929915,-0.03661469742655754,-0.09059780836105347,-1.0040396451950073,0.429851233959198,0.1734636276960373,0.7039029002189636,31.17147445678711,-9.998187065124512,40.89087677001953,0
594,5940018,0.020838147029280663,-0.02822730503976345,-1.0253770351409912,-0.1951083391904831,-0.5008413791656494,0.47616398334503174,32.3393669128418,-9.557242393493652,41.378047943115234,0
595,5949893,0.04177087917923927,0.036158718168735504,-0.9843317866325378,0.1927979588508606,-0.9165348410606384,-0.4434482157230377,30.75959587097168,-10.74040412902832,38.82032775878906,0
596,5959936,0.031662844121456146,0.004320203792303801,-0.9647109508514404,0.2855111062526703,0.38730210065841675,0.6122914552688599,30.032411575317383,-10.553658485412598,40.83006286621094,0
597,5970165,0.1000983715057373,0.044938065111637115,-0.9950628876686096,-0.45865288376808167,-0.4588994085788727,-0.36108583211898804,30.922574996948242,-11.032613754272461,40.00811767578125,0
598,5980025,-0.07807433605194092,-0.009810760617256165,-1.0045955181121826,-0.1851656287908554,-0.2846749424934387,0.6835888624191284,29.96232795715332,-8.605476379394531,39.72416687011719,0
599,5989874,0.008777556009590626,0.08928675949573517,-1.0117734670639038,-0.04213182255625725,0.1972465217113495,0.061340831220149994,28.931293487548828,-9.668045997619629,40.032413482666016,0
600,6000014,0.03290612995624542,-0.04385414347052574,-0.9790187478065491,0.771867036819458,0.2947481572628021,0.5278163552284241,29.686838150024414,-9.568280220031738,41.25212478637695,0
601,6010009,0.029568705707788467,-0.02770020253956318,-0.9620650410652161,0.379362553358078,-0.3293043375015259,0.7537975311279297,29.643476486206055,-7.989035606384277,38.43959045410156,0
602,6020141,0.0185402762144804,-0.0488131009042263,-1.0174144506454468,-0.05361763387918472,-0.9859331250190735,-0.29161936044692993,29.963865280151367,-10.59656047821045,39.431190490722656,0
603,6029677,0.09255500137805939,-0.0786106213927269,-0.9968202710151672,-0.2868863642215729,0.07898951321840286,-0.8094603419303894,31.163227081298828,-10.657119750976562,38.61750411987305,0
604,6039939,0.04079228267073631,0.05514111369848251,-0.9779446721076965,-0.44267863035202026,-0.2584418058395386,-0.7150315642356873,28.570655822753906,-7.800889492034912,40.825706481933594,0
605,6050050,-0.0031262673437595367,-0.03951747715473175,-0.9897791147232056,0.16275273263454437,0.785493016242981,-0.7363564372062683,29.843029022216797,-9.468465805053711,40.202125549316406,0
606,6059794,-0.003106315154582262,0.06459527462720871,-0.9946727156639099,0.22211766242980957,0.9981107115745544,1.0664989948272705,29.18018913269043,-10.292875289916992,38.386505126953125,0
607,6069742,-0.042006004601716995,0.039290521293878555,-0.9842047095298767,0.5297722220420837,0.5387669801712036,0.13414707779884338,29.36639976501465,-10.137195587158203,41.14159393310547,0
608,6079997,0.04936994984745979,-0.035435982048511505,-0.9799417853355408,-0.21380363404750824,0.7801493406295776,-0.45224103331565857,29.127168655395508,-11.264418601989746,40.348846435546875,0
609,6089685,-0.00461662607267499,0.024383949115872383,-1.0227985382080078,0.18346090614795685,-0.1415669322013855,0.4820409417152405,27.944711685180664,-10.92181396484375,39.68079376220703,0
610,6099998,-0.03283233940601349,0.02557704783976078,-0.9954743385314941,0.23366281390190125,0.2612212896347046,-0.7419994473457336,29.387554168701172,-10.187262535095215,41.4505615234375,0
611,6110044,0.03437989577651024,-0.002592716831713915,-0.9931566715240479,0.5315890908241272,-0.24061048030853271,-0.48997387290000916,30.131999969482422,-8.382125854492188,41.48568344116211,0
612,6120120,0.04789653792977333,0.0671391710639,-0.9791519641876221,0.13977783918380737,-0.16100503504276276,-0.6021190881729126,31.061620712280273,-8.580077171325684,38.98857116699219,0
613,6129587,0.0016613311599940062,0.062021903693675995,-0.9933293461799622,0.7287943959236145,0.6764854788780212,0.07778171449899673,30.068302154541016,-9.929322242736816,40.72867202758789,0
614,6139915,0.05535139888525009,0.017416616901755333,-0.9713655710220337,-0.7559232711791992,0.12744341790676117,0.19389475882053375,29.3696346282959,-9.944212913513184,39.239036560058594,0
615,6150104,0.037352029234170914,0.004366611130535603,-1.0052422285079956,0.22251394391059875,-0.9752102494239807,-0.3236832320690155,30.515043258666992,-10.755575180053711,39.941287994384766,0
616,6160101,0.04211428016424179,0.0576377734541893,-1.0136336088180542,0.07447567582130432,0.7990199327468872,-0.11940599977970123,30.115570068359375,-8.586529731750488,42.33038330078125,0
617,6169881,-0.037812698632478714,0.16032545268535614,-0.9813058972358704,0.5654727816581726,0.3851560950279236,0.909260630607605,29.472702026367188,-9.23508358001709,40.90373992919922,0
618,6179978,-0.06520041823387146,0.05250898376107216,-1.0251634120941162,0.19452814757823944,-0.05242554098367691,-0.06347137689590454,28.61620330810547,-9.181690216064453,38.97373962402344,0
619,6190218,0.052961498498916626,-0.01821000501513481,-0.9883320331573486,-0.06369846314191818,0.21095620095729828,-0.02358294650912285,29.7774715423584,-10.24264907836914,41.30960464477539,0
620,6200031,0.04112783819437027,0.027022751048207283,-0.9894002676010132,-0.394610732793808,1.1480162143707275,-0.22977563738822937,30.56330680847168,-10.22937297821045,40.36582565307617,0
621,6209966,-0.00537855876609683,-0.045362379401922226,-0.9848247766494751,-0.7904172539710999,-0.7099629044532776,-0.5585497617721558,29.077545166015625,-10.429387092590332,40.36039733886719,0
622,6220261,0.007653604727238417,0.029988018795847893,-1.033678412437439,-1.287598967552185,-0.22365805506706238,-0.6247641444206238,30.003297805786133,-10.864294052124023,40.7088623046875,0
623,6229991,0.09489301592111588,0.0030474686063826084,-1.002087116241455,0.3792971074581146,0.6320432424545288,-0.5803304314613342,29.397735595703125,-10.188305854797363,39.25520706176758,0
624,6239765,0.07562349736690521,-0.08149489015340805,-1.0189454555511475,0.913353443145752,-0.14253439009189606,-0.053937822580337524,31.9947566986084,-12.397414207458496,41.21495056152344,0
625,6250090,0.02151467651128769,0.07872316241264343,-1.0186227560043335,-0.5605992674827576,0.17439904808998108,-0.43210315704345703,31.1885986328125,-7.685138702392578,39.36341094970703,0
626,6260095,0.01476841326802969,-0.05362686142325401,-0.9902580976486206,0.04195478558540344,0.0283980555832386,0.48740923404693604,30.18867301940918,-9.353373527526855,41.20127868652344,0
