seq,time_us,ax,ay,az,gx,gy,gz,mx,my,mz,drop_flag
0,22,0.027558453381061554,-0.010526475496590137,-1.031237244606018,0.1298390030860901,0.3051372170448303,-0.3044421374797821,29.858928680419922,-8.55301570892334,40.24626159667969,0
1,10101,-0.00180827546864748,0.005982191767543554,-1.0154415369033813,0.20200438797473907,0.3363926112651825,0.5699867010116577,31.619455337524414,-11.016448020935059,40.67584228515625,0
2,19922,0.04341532662510872,-0.037686437368392944,-1.005947232246399,-0.6132990121841431,0.26887038350105286,0.06733302026987076,29.367313385009766,-9.989274978637695,39.29545211791992,0
3,29937,-0.08020351827144623,0.06366098672151566,-1.0260390043258667,0.3244299590587616,0.6325082182884216,0.5641055703163147,29.17624282836914,-9.557476043701172,39.75870132446289,0
4,39939,-0.02576778084039688,-0.008431089110672474,-0.9822998642921448,-0.12707304954528809,0.6508920192718506,-1.0254886150360107,29.398784637451172,-10.88866138458252,39.743656158447266,0
5,49850,0.0424785390496254,0.05388227477669716,-0.9845615029335022,1.4682749509811401,0.9365233778953552,0.07227353006601334,29.73422622680664,-11.493300437927246,39.81102752685547,0
6,60071,-0.026994409039616585,0.05845027044415474,-0.9892002940177917,0.01998716965317726,0.10040141642093658,0.10555757582187653,30.240184783935547,-10.975261688232422,40.18351745605469,0
7,70219,0.09144540876150131,0.008380870334804058,-1.0003480911254883,-0.48031219840049744,1.5179959535598755,0.29494112730026245,30.157577514648438,-10.052151679992676,40.629695892333984,0
8,79848,0.004016179591417313,0.05580371618270874,-0.9972516298294067,-0.42560139298439026,-0.0031447545625269413,-0.5103054642677307,29.855144500732422,-9.122756004333496,40.82712936401367,0
9,89974,0.057145923376083374,-0.0037396776024252176,-0.9922114014625549,0.3289167881011963,0.16584186255931854,0.2951137125492096,29.171138763427734,-9.040841102600098,40.51555633544922,0
10,99652,-0.07530739158391953,0.025631528347730637,-0.9813951849937439,0.7005332112312317,0.22636626660823822,0.8671661615371704,27.856502532958984,-8.689465522766113,39.8178825378418,0
11,110197,0.05184832587838173,0.03829105198383331,-0.9968904852867126,0.3555787205696106,-1.0002537965774536,0.2977225184440613,31.689489364624023,-10.10203742980957,40.42021560668945,0
12,120182,0.013689731247723103,0.016838135197758675,-1.0257421731948853,-0.01779109053313732,0.007525139953941107,-0.27034705877304077,28.787704467773438,-9.473481178283691,39.55097961425781,0
13,129785,0.09810717403888702,0.024895543232560158,-1.0167328119277954,-0.17097194492816925,0.8837913870811462,0.6981049180030823,31.883241653442383,-8.85462760925293,39.97999572753906,0
14,139960,-0.055542755872011185,0.06174277514219284,-1.0018075704574585,-0.36372625827789307,0.1263435184955597,-0.18378567695617676,28.154739379882812,-10.818519592285156,38.06938552856445,0
15,149996,0.050562579184770584,0.029222577810287476,-0.9924635291099548,-1.1749494075775146,0.6864157915115356,0.11956436932086945,28.707794189453125,-8.470277786254883,40.4611701965332,0
16,159672,0.034135013818740845,0.014337587170302868,-0.992647647857666,-0.18233446776866913,0.2691611647605896,-0.792377233505249,27.483381271362305,-9.38454818725586,38.01296615600586,0
17,169972,0.01858396641910076,0.12909665703773499,-1.011029839515686,0.7477988600730896,0.2784026563167572,-0.5539173483848572,30.14318084716797,-9.585323333740234,41.257164001464844,0
18,180195,-0.07479803264141083,0.07992779463529587,-1.0252928733825684,-0.5484223365783691,0.08654184639453888,0.2253415733575821,29.7685604095459,-10.243913650512695,40.921566009521484,0
19,189905,0.03224559128284454,-0.0345417857170105,-1.0000430345535278,0.2019461989402771,-0.17274925112724304,0.4316430687904358,29.632217407226562,-9.940587043762207,39.59037399291992,0
20,200109,0.0006261086091399193,0.025553513318300247,-0.996690571308136,0.03978772088885307,-0.005581199657171965,0.6429191827774048,29.3035831451416,-11.186751365661621,39.89521789550781,0
21,209967,-0.02071980945765972,-0.02070564590394497,-0.9696786403656006,-0.6941419243812561,-0.00047546185669489205,0.9515469670295715,28.66948127746582,-11.137288093566895,39.221065521240234,0
22,220126,-0.007031699642539024,-0.02378794178366661,-0.9831673502922058,-0.22594118118286133,-0.7011078596115112,-0.19825126230716705,30.265470504760742,-10.300800323486328,40.67414093017578,0
23,230158,0.025972051545977592,0.0370170883834362,-1.0028809309005737,0.4948894679546356,-0.8104574084281921,0.104791559278965,28.938108444213867,-10.048027038574219,38.52510452270508,0
24,240055,-0.018101630732417107,-0.06139916554093361,-0.9545395374298096,-0.3510085344314575,0.665034830570221,-0.28783997893333435,30.400367736816406,-11.258862495422363,40.47398376464844,0
25,249829,0.0281965434551239,0.07419403642416,-0.9920307993888855,0.1865054816007614,-0.38201600313186646,0.18942393362522125,30.042133331298828,-10.480245590209961,40.73880386352539,0
26,260002,0.0100256921723485,0.06464844942092896,-0.9942013025283813,1.2633461952209473,0.5996674299240112,0.5255032181739807,31.255830764770508,-11.252620697021484,39.681949615478516,0
27,270112,-0.0488450862467289,-0.015309793874621391,-0.9849086403846741,-0.08690226823091507,-0.43945613503456116,-0.21438252925872803,32.59125518798828,-10.134034156799316,40.77569580078125,0
28,280090,0.03660520166158676,0.1253478080034256,-1.0310039520263672,-0.5379015207290649,-0.3329434096813202,-0.3812021315097809,29.459978103637695,-10.315747261047363,40.13644790649414,0
29,290122,0.031191915273666382,-0.01047484576702118,-1.0083197355270386,-1.087048888206482,-0.07469412684440613,0.6727614402770996,29.5521297454834,-10.411128044128418,38.478126525878906,0
30,299929,0.017997557297348976,-0.04458872228860855,-0.9671450257301331,-0.40602684020996094,-0.05201153829693794,-0.24743762612342834,27.66898536682129,-10.31591796875,40.745662689208984,0
31,309967,-0.0009546541259624064,-0.0134931281208992,-1.0583467483520508,-0.282041996717453,0.7612041234970093,-0.32397282123565674,32.2508544921875,-8.783676147460938,40.88751983642578,0
32,320006,-0.08407893776893616,0.0016473217401653528,-1.0362573862075806,-0.8897258639335632,-0.7692305445671082,0.15847158432006836,29.53553009033203,-9.353351593017578,40.10597229003906,0
33,330133,0.07323851436376572,0.15112881362438202,-1.0178602933883667,0.27043184638023376,0.5399962663650513,-0.7946476340293884,30.33774185180664,-9.35261344909668,39.69938278198242,0
34,339970,0.021283842623233795,0.04962950199842453,-0.9952040314674377,-1.4343949556350708,0.00525182718411088,-0.10744359344244003,29.23020362854004,-9.138870239257812,40.98057556152344,0
35,350036,-0.012028715573251247,-0.03455668315291405,-0.9840475916862488,-0.5135492086410522,0.7395059466362,0.5865319967269897,29.41853904724121,-10.553056716918945,39.70542907714844,0
36,360122,0.041850194334983826,0.04902315512299538,-0.9794686436653137,-0.05589788034558296,-0.02793419547379017,-0.6589332818984985,30.549867630004883,-9.858929634094238,40.522674560546875,0
37,370032,-0.10619300603866577,-0.04698457568883896,-0.9931002259254456,0.05074147880077362,-0.11679485440254211,-0.519472062587738,29.689035415649414,-11.63325309753418,39.03464889526367,0
38,380052,0.0026605736929923296,-0.006415960844606161,-1.0358574390411377,-0.21842654049396515,-0.19946551322937012,-0.37954825162887573,30.138973236083984,-9.558083534240723,40.39381408691406,0
39,390344,-0.10440327972173691,0.025150785222649574,-1.0085523128509521,0.31653693318367004,0.636419415473938,-0.20982681214809418,28.9488468170166,-9.519139289855957,39.979610443115234,0
40,399870,-0.03276112675666809,-0.040508925914764404,-0.993992805480957,-0.06901545077562332,-0.7418986558914185,0.0920235887169838,29.313478469848633,-9.982187271118164,39.88224411010742,0
41,409910,-0.01283938530832529,0.04429634287953377,-0.9781044721603394,-0.45474883913993835,-0.0013531207805499434,-0.08856313675642014,31.230613708496094,-9.530009269714355,39.122291564941406,0
42,419896,-0.0676666796207428,0.018508538603782654,-0.9859349131584167,-0.577975869178772,-0.3061434030532837,-0.018824558705091476,30.16254234313965,-11.483830451965332,39.12764358520508,0
43,429856,0.005693577229976654,-0.022718632593750954,-1.0345330238342285,0.31217917799949646,-0.0063366335816681385,0.07570164650678635,29.909454345703125,-9.768460273742676,38.30933380126953,0
44,439785,0.04407713934779167,-0.08229566365480423,-0.9921132922172546,-0.32069331407546997,0.5755252242088318,0.1868126541376114,30.077604293823242,-9.264044761657715,41.762638092041016,0
45,450028,-0.002506871009245515,-0.01649509370326996,-0.9781696796417236,0.919151246547699,0.526384711265564,0.041473306715488434,30.0386905670166,-10.032082557678223,41.817962646484375,0
46,459987,-0.047233566641807556,-0.05572466552257538,-1.0122264623641968,-0.16797195374965668,0.7198500633239746,-0.6358482241630554,28.9638614654541,-11.509946823120117,41.30873489379883,0
47,469915,-0.00900848675519228,0.05441243574023247,-0.9918647408485413,0.5273878574371338,0.39348840713500977,0.5449591279029846,29.33209991455078,-9.410715103149414,41.03196334838867,0
48,479727,-0.05397873371839523,-0.0580829493701458,-1.0102806091308594,-0.014365749433636665,0.648459792137146,-0.9209619164466858,30.955612182617188,-9.954023361206055,39.586143493652344,0
49,489753,-0.0031626145355403423,0.05590151622891426,-1.000998854637146,-1.3027793169021606,-0.038840167224407196,0.9225366711616516,29.958162307739258,-9.733560562133789,39.86875915527344,0
50,499990,0.007585874758660793,0.021348413079977036,-1.0130808353424072,0.018921546638011932,0.6094399094581604,-0.06666624546051025,30.859437942504883,-8.372520446777344,41.051151275634766,0
51,509970,0.032154254615306854,0.0012874737149104476,-0.9654120802879333,0.15671242773532867,0.20995591580867767,0.6725164651870728,30.81526756286621,-9.885292053222656,38.914363861083984,0
52,519849,0.04331163689494133,-0.003229959635064006,-1.0103955268859863,-0.10016825795173645,-0.11309424787759781,-0.027549849823117256,31.041669845581055,-8.485655784606934,40.398162841796875,0
53,529981,0.021015232428908348,0.02543523721396923,-0.9826215505599976,0.5895159244537354,0.3034120500087738,0.8625674247741699,30.763566970825195,-8.654082298278809,40.60457229614258,0
54,540124,0.09843336790800095,-0.0575718991458416,-0.9761880040168762,-0.8530788421630859,-0.9590124487876892,0.3482365310192108,29.829187393188477,-9.722408294677734,39.36678695678711,0
55,550011,0.03633955121040344,-0.10545714944601059,-1.001035213470459,-0.40408191084861755,0.7922557592391968,0.11751075834035873,29.28278923034668,-10.728947639465332,40.30141830444336,0
56,560050,-0.012376098893582821,0.02150670252740383,-0.9564642906188965,-0.4625895321369171,0.14915798604488373,0.031211309134960175,30.110931396484375,-9.464019775390625,41.825164794921875,0
57,570128,0.09733913838863373,-0.0297491867095232,-1.0023661851882935,0.16049519181251526,-0.0794273391366005,0.009159734472632408,30.387907028198242,-11.113447189331055,39.45198059082031,0
58,580127,-0.0314718522131443,-0.018333468586206436,-0.9950180053710938,0.16924500465393066,-0.2836286425590515,0.11740384250879288,28.743854522705078,-11.201045036315918,41.60850143432617,0
59,589966,0.05640822649002075,-0.026628730818629265,-1.007251262664795,0.07391154021024704,-0.5723759531974792,-0.03012797422707081,29.48723602294922,-10.485595703125,40.223907470703125,0
60,600007,0.03148246929049492,0.060944125056266785,-1.0244014263153076,0.40835797786712646,0.27798521518707275,0.08991315215826035,29.613340377807617,-8.39887523651123,38.15680694580078,0
61,609814,0.0795060321688652,-0.03025362826883793,-0.9798495769500732,-0.07508405297994614,-0.1481139063835144,-0.49519050121307373,30.841548919677734,-8.193593978881836,39.10093688964844,0
62,620025,-0.04596903175115585,-0.017038604244589806,-0.9792351722717285,-0.49410128593444824,-0.05713983252644539,0.035974759608507156,28.87566375732422,-10.126855850219727,39.263736724853516,0
63,629625,-0.09985366463661194,-0.025793718174099922,-0.9373202919960022,-0.573650598526001,0.09499821066856384,0.2997153401374817,31.78109359741211,-10.45531177520752,40.613861083984375,0
64,639965,-0.014918681234121323,0.001848176121711731,-1.0228763818740845,0.39711788296699524,0.10326247662305832,0.1123979464173317,31.186086654663086,-10.86190128326416,42.20073318481445,0
65,650080,0.01153799332678318,0.05674336850643158,-0.9913588166236877,0.15864388644695282,-0.9189199805259705,-0.2123422473669052,29.131803512573242,-11.17227554321289,39.80347442626953,0
66,659901,0.047835949808359146,-0.02440267615020275,-0.976017415523529,-0.34032997488975525,0.36696189641952515,-0.2825813889503479,30.720468521118164,-8.922513008117676,39.085819244384766,0
67,670015,-0.04956340044736862,0.05594451725482941,-0.9378357529640198,-0.05712652578949928,-0.2723342776298523,-0.4863796830177307,27.850610733032227,-10.116232872009277,40.01716232299805,0
68,680376,-0.010463040322065353,0.11160896718502045,-0.9764211773872375,-0.08992426842451096,0.968467652797699,0.42155322432518005,30.003141403198242,-13.257909774780273,39.33544158935547,0
69,689961,-0.052128929644823074,0.03789495676755905,-0.9811619520187378,0.8227787613868713,-0.004817413631826639,0.22332435846328735,29.751955032348633,-10.478538513183594,40.88102722167969,0
70,700092,0.09363275021314621,-0.015381859615445137,-1.0038156509399414,-0.8591912388801575,-0.5709741711616516,0.20243367552757263,29.29306411743164,-8.840402603149414,38.5667610168457,0
71,710071,0.024212606251239777,-0.0020060560200363398,-0.9764353036880493,-0.03861231356859207,-0.6985804438591003,0.4830898344516754,29.74298667907715,-10.687195777893066,40.11093521118164,0
72,719834,-0.001964538125321269,-0.13554802536964417,-0.9932180643081665,-1.155911922454834,0.670577883720398,1.049347996711731,29.692777633666992,-8.174588203430176,40.41250991821289,0
73,730023,0.09504478424787521,-0.04167691990733147,-1.0210987329483032,-0.5754172801971436,-0.055977270007133484,-0.5336533188819885,30.293487548828125,-8.758203506469727,38.91264343261719,0
74,739982,0.10656058043241501,0.028111575171351433,-0.9912770390510559,0.5065515637397766,-0.38495370745658875,0.7723601460456848,27.77284812927246,-9.510334968566895,40.39093017578125,0
75,749922,-0.023333722725510597,-0.007656162604689598,-0.991656482219696,-0.1089990958571434,0.945556104183197,0.005215983372181654,29.90446662902832,-9.339731216430664,40.34067153930664,0
76,759864,-0.0025840632151812315,0.008665535598993301,-1.002405047416687,0.6406567096710205,-0.736670196056366,0.13782577216625214,30.299894332885742,-10.619555473327637,40.81196594238281,0
77,769869,-0.016899466514587402,0.05311419069766998,-1.0143113136291504,0.06647205352783203,-0.17896385490894318,0.10500268638134003,29.562334060668945,-10.142834663391113,40.77095413208008,0
78,780146,-0.0358906164765358,-0.040303442627191544,-0.9985184073448181,-0.3256911635398865,0.32042941451072693,0.12601636350154877,30.377418518066406,-10.314530372619629,40.65662384033203,0
79,790126,0.06122547760605812,0.054051127284765244,-1.0218747854232788,-0.17829400300979614,-0.4971104562282562,-0.5308011770248413,30.874534606933594,-10.911188125610352,40.09800338745117,0
80,799758,0.07355920970439911,0.1671423614025116,-0.9932740330696106,0.1809917390346527,0.4726300537586212,-0.8038108348846436,30.10478973388672,-9.589879989624023,40.272884368896484,0
81,810073,0.009154485538601875,-0.04546723514795303,-0.9856483340263367,1.1999452114105225,-0.6484075784683228,0.22603945434093475,30.950672149658203,-11.198076248168945,39.04511642456055,0
82,820097,0.08191148936748505,-0.07034503668546677,-1.0190019607543945,0.2179744839668274,-0.006440767552703619,-0.6289729475975037,31.38988494873047,-9.516600608825684,40.33683776855469,0
83,830185,0.0185939259827137,-0.03174752742052078,-0.9834558963775635,-0.09678573906421661,0.06823708862066269,-0.04096924886107445,30.24984359741211,-10.70584487915039,39.396949768066406,0
84,839859,0.047413695603609085,-0.051033079624176025,-0.9949735999107361,-0.264922171831131,0.4221671521663666,0.522136926651001,29.709007263183594,-9.207977294921875,40.760562896728516,0
85,850030,-0.05821714922785759,0.04884011298418045,-0.996383011341095,-0.29160216450691223,0.28535863757133484,-0.20588131248950958,31.02652931213379,-9.661154747009277,39.3322639465332,0
86,860097,-0.03584503009915352,0.01836499385535717,-0.9563311338424683,0.4930008351802826,-0.5318851470947266,-0.2947624921798706,31.110191345214844,-10.179145812988281,42.09642028808594,0
87,870052,-0.0864483192563057,0.015860820189118385,-0.9676827788352966,-0.999627411365509,-0.16284316778182983,0.36825913190841675,30.678186416625977,-11.151933670043945,38.987518310546875,0
88,880060,-0.0027822181582450867,0.08783511072397232,-1.0151082277297974,-0.18644404411315918,0.49112796783447266,-0.6805557012557983,28.141868591308594,-8.370035171508789,40.13013458251953,0
89,890127,-0.05555156618356705,-0.036482393741607666,-1.0125689506530762,0.021225249394774437,-0.31030452251434326,0.8698108792304993,29.40850830078125,-11.06485652923584,40.4741096496582,0
90,899936,0.06566958129405975,0.10923153907060623,-0.9715948700904846,-0.3253530263900757,0.16534630954265594,0.44920170307159424,29.986711502075195,-11.041245460510254,40.16343688964844,0
91,909788,0.010187189094722271,-0.02582489140331745,-0.9958891868591309,0.029380356892943382,-0.004161149729043245,-0.16030801832675934,29.662752151489258,-9.444214820861816,40.53813171386719,0
92,920041,0.031924255192279816,0.010949132964015007,-1.0113608837127686,-0.25501036643981934,-0.1156473308801651,-0.27347761392593384,29.56850814819336,-7.520278453826904,39.71598815917969,0
93,930043,0.0010888595134019852,0.04731801524758339,-0.9932516813278198,-0.16721752285957336,0.38091447949409485,0.06099505349993706,29.453414916992188,-10.977100372314453,40.30064010620117,0
94,939893,0.02945132926106453,0.052855491638183594,-1.0043530464172363,-0.14589743316173553,1.0103460550308228,1.0670437812805176,30.21428108215332,-9.41788387298584,39.90235137939453,0
95,950025,-0.03503023833036423,0.00801944825798273,-1.0018470287322998,0.061103660613298416,0.2700635492801666,-0.3091139793395996,30.478744506835938,-10.739646911621094,40.878814697265625,0
96,960024,-0.0034368736669421196,-0.03873360902070999,-0.9989832043647766,-0.8659912943840027,-0.027459708973765373,0.46080538630485535,29.371736526489258,-10.766132354736328,39.484378814697266,0
97,969966,-0.04207727313041687,0.06973883509635925,-0.9858285784721375,-0.21430329978466034,-0.17532901465892792,-0.468252956867218,30.52757453918457,-10.324028968811035,41.48728942871094,0
98,980134,0.04588054120540619,-0.002653194358572364,-0.9892091155052185,-1.1347284317016602,0.24902337789535522,-0.36520329117774963,31.202260971069336,-8.91436767578125,39.91870880126953,0
99,990132,0.061086930334568024,0.036509543657302856,-0.9844152331352234,-0.07620464265346527,-0.3578087389469147,0.20330475270748138,29.03755760192871,-10.447281837463379,41.35148620605469,0
100,1000093,-0.021295277401804924,0.05643431097269058,-1.0132052898406982,-0.512723982334137,0.5913156867027283,-0.38016894459724426,29.532939910888672,-9.751245498657227,42.36624526977539,0
101,1010227,-0.0444910004734993,0.05833366885781288,-0.9856753945350647,-0.13345842063426971,0.45665138959884644,1.3149702548980713,32.54014587402344,-10.636358261108398,39.492313385009766,0
102,1019979,-0.019580667838454247,0.006324933376163244,-1.0447447299957275,-0.4080241620540619,0.44617992639541626,-0.37174108624458313,29.057228088378906,-10.529444694519043,40.97175979614258,0
103,1029779,0.05108487978577614,0.006160021293908358,-0.960882842540741,0.10476928949356079,0.8353610634803772,0.1453954577445984,30.458602905273438,-9.442526817321777,39.55976104736328,0
104,1039992,-0.034466736018657684,-0.017306622117757797,-0.9948471784591675,-0.06062323600053787,-0.24325530230998993,0.0458110012114048,30.882553100585938,-10.714723587036133,40.174537658691406,0
105,1049932,0.0003831654030364007,-0.12263494729995728,-1.0055872201919556,-1.050776720046997,0.051892202347517014,-0.3252231478691101,31.080583572387695,-9.643538475036621,41.012969970703125,0
106,1059903,0.09436497837305069,0.013964091427624226,-0.9951172471046448,0.2967335283756256,-0.42773574590682983,0.49326008558273315,29.286088943481445,-10.950201034545898,41.52558517456055,0
107,1069871,-0.019389059394598007,0.061198897659778595,-1.0020077228546143,-0.5110636353492737,-0.08113337308168411,-0.15291228890419006,30.134347915649414,-9.9652099609375,40.303218841552734,0
108,1080008,-0.06415051221847534,0.011345673352479935,-0.9743787050247192,0.751466691493988,-0.5824292302131653,-0.5099884867668152,28.216876983642578,-8.785325050354004,40.521785736083984,0
109,1090104,-0.044303152710199356,-0.09776633977890015,-0.9719027280807495,-0.029335245490074158,-0.8842846155166626,0.10184162855148315,32.9107551574707,-11.454156875610352,40.70329284667969,0
110,1099948,0.021411551162600517,0.10758882761001587,-1.0024322271347046,-0.05306212604045868,-0.03549948334693909,0.325846791267395,30.50698471069336,-9.753417015075684,41.834434509277344,0
111,1110212,0.05727614462375641,-0.01612480729818344,-1.017535924911499,-0.4904540181159973,-0.2598420977592468,0.11027079820632935,29.606218338012695,-11.223114013671875,39.54056167602539,0
112,1120286,0.057045821100473404,0.06150304526090622,-1.0156478881835938,-0.5785992741584778,0.5021533370018005,-0.373683363199234,29.195167541503906,-9.571680068969727,39.649742126464844,0
113,1129839,0.09536954015493393,-0.03768663853406906,-0.9900562167167664,0.24733126163482666,0.7030836939811707,0.1495099514722824,29.572572708129883,-11.149328231811523,39.4890251159668,0
114,1140085,0.042769771069288254,-0.19547630846500397,-0.9770823121070862,0.340211421251297,0.04803040623664856,0.688078761100769,30.375295639038086,-10.008589744567871,41.22373580932617,0
115,1150189,0.07204726338386536,-0.06272862106561661,-1.018885612487793,0.4247979521751404,0.7756157517433167,-0.7028213739395142,29.209754943847656,-10.88843059539795,39.6541862487793,0
116,1160035,-0.007936893031001091,0.07988690584897995,-0.9599818587303162,0.17550060153007507,0.717612624168396,0.2892707586288452,30.422134399414062,-10.537009239196777,39.90301513671875,0
117,1170163,0.033047329634428024,-0.02759562060236931,-1.0064278841018677,-0.11148682236671448,-0.4305099546909332,-1.271421194076538,31.372045516967773,-9.993424415588379,40.486507415771484,0
118,1179743,0.011696443893015385,-0.017412878572940826,-1.0046781301498413,-0.017544949427247047,-0.7914077043533325,0.2861776351928711,30.22480010986328,-10.095319747924805,39.715179443359375,0
119,1189971,0.046078383922576904,0.04430927336215973,-0.9978207349777222,-0.171885147690773,0.06505779176950455,0.17607343196868896,29.784582138061523,-9.93642520904541,40.470603942871094,0
120,1199946,0.002452095504850149,-0.05440496653318405,-1.0327469110488892,-0.493226021528244,-0.6494323015213013,0.7751830220222473,29.33196449279785,-9.738680839538574,38.42646789550781,0
121,1210074,0.02371269464492798,0.06225813180208206,-1.017784833908081,-0.07229112088680267,-0.06830776482820511,-0.272874116897583,30.956331253051758,-7.044262409210205,39.74819564819336,0
122,1219675,0.021703576669096947,-0.030494775623083115,-1.0135375261306763,-0.5836709141731262,0.1289033442735672,0.18907923996448517,30.034706115722656,-10.776535034179688,39.401405334472656,0
123,1229948,0.014114673249423504,-0.005897251423448324,-1.0156182050704956,-0.07693473249673843,0.36151617765426636,-0.4684736430644989,30.27559471130371,-9.633100509643555,39.618099212646484,0
124,1240077,-0.0823303684592247,0.02478867955505848,-0.9995063543319702,0.5444245338439941,0.18786734342575073,0.014194030314683914,30.77671241760254,-8.385015487670898,39.449283599853516,0
125,1249883,0.012755166739225388,-0.022950759157538414,-1.0216093063354492,-0.22442695498466492,-0.1373404860496521,-0.02160055935382843,29.58055877685547,-9.465230941772461,39.050331115722656,0
126,1259897,-0.08467315882444382,-0.05710902065038681,-0.9818047285079956,0.3744230270385742,-0.30927470326423645,0.666853666305542,29.42060089111328,-9.74854564666748,40.03996658325195,0
127,1269909,-0.0278145894408226,0.0554162859916687,-0.9324588179588318,-0.5447302460670471,0.30803605914115906,-0.12735910713672638,31.7360897064209,-10.271525382995605,37.9946174621582,0
128,1279861,-0.11148665100336075,0.057685744017362595,-0.9977142214775085,-0.400409072637558,0.007288369815796614,-0.1315862536430359,30.194854736328125,-9.585759162902832,39.07685470581055,0
129,1289967,-0.03743121027946472,-0.022966725751757622,-1.009755253791809,0.13089042901992798,0.8903692960739136,-0.8101040124893188,30.91494369506836,-11.155828475952148,40.28711700439453,0
130,1300150,0.02314578741788864,0.010762938298285007,-1.0193716287612915,0.11400724947452545,0.2065061330795288,0.4436074495315552,30.262351989746094,-11.17036247253418,38.63042068481445,0
131,1310148,0.006310879252851009,0.028144877403974533,-0.9903435111045837,0.08425887674093246,-0.3057059049606323,-1.1851296424865723,30.08040428161621,-10.284985542297363,40.726139068603516,0
132,1320024,0.033643946051597595,-0.024197131395339966,-1.0425019264221191,-0.62701416015625,0.040991369634866714,0.5467267036437988,29.557554244995117,-7.601831436157227,38.61327362060547,0
133,1329979,0.0028486670926213264,-0.03517693653702736,-1.0267689228057861,0.5080655813217163,0.7761924266815186,0.1431182622909546,31.4642391204834,-10.435227394104004,39.078365325927734,0
134,1340185,-0.021635817363858223,-0.0738052949309349,-1.0009839534759521,-0.4211227595806122,-0.35352444648742676,0.24556289613246918,29.26963233947754,-8.158674240112305,40.38884735107422,0
135,1349673,0.004622534848749638,0.008713646791875362,-1.001036286354065,-0.33655500411987305,-0.5186960101127625,0.4636058211326599,30.620824813842773,-9.108835220336914,39.72841262817383,0
136,1359589,0.00764142069965601,-0.011118084192276001,-1.0139931440353394,-0.18541787564754486,0.5759006142616272,-1.3164668083190918,29.1929874420166,-11.402202606201172,37.59184646606445,0
137,1370030,0.02510310336947441,-0.017464039847254753,-1.0276566743850708,-0.20577135682106018,-0.47995346784591675,-0.13538192212581635,30.5583438873291,-11.020528793334961,39.814395904541016,0
138,1379853,0.031180763617157936,0.0027153929695487022,-0.9866427183151245,-0.10992231965065002,0.1771698296070099,0.1793018877506256,30.192371368408203,-9.955930709838867,38.96764373779297,0
139,1389965,-0.06614243239164352,-0.123042531311512,-1.0097013711929321,-0.7031399011611938,0.16317757964134216,0.6880480051040649,29.422590255737305,-10.156153678894043,40.41532897949219,0
140,1399769,0.016237664967775345,-0.021322647109627724,-1.0236608982086182,-0.2318459004163742,-1.8552247285842896,-0.802983820438385,30.664260864257812,-8.46397590637207,38.506439208984375,0
141,1409995,-0.1124190092086792,-0.007042326033115387,-1.0279749631881714,-0.7965649962425232,-0.5099944472312927,-0.026233162730932236,27.566722869873047,-8.526301383972168,39.6413688659668,0
142,1420068,0.020305316895246506,0.0654381588101387,-0.9832252264022827,0.4869213104248047,-0.44812726974487305,-0.37331509590148926,28.7839412689209,-10.47153091430664,39.24306106567383,0
143,1430058,-0.04319041967391968,0.06491199880838394,-0.9928881525993347,-0.5929278135299683,-0.1923871487379074,0.3492850065231323,29.331626892089844,-10.363262176513672,39.57524490356445,0
144,1440019,-0.0234727431088686,0.047426775097846985,-0.9945436120033264,0.25165441632270813,0.8651970624923706,0.36528775095939636,29.691925048828125,-9.681771278381348,42.05780029296875,0
145,1449921,-0.08896157145500183,0.04596676677465439,-1.0011447668075562,0.17543458938598633,0.41253167390823364,-0.009953368455171585,30.646390914916992,-10.504809379577637,39.66896057128906,0
146,1460082,-0.03988220542669296,0.031709298491477966,-1.0162930488586426,0.07705066353082657,-0.8653683066368103,-0.4015136659145355,29.918292999267578,-8.151196479797363,38.12599563598633,0
147,1469740,-0.025938892737030983,0.06639038026332855,-0.9923082590103149,-0.23171451687812805,-0.14739146828651428,0.6408799886703491,29.114377975463867,-10.57792854309082,40.4534797668457,0
148,1480102,0.057928431779146194,-0.0015933867543935776,-1.0252702236175537,0.30441147089004517,-0.5448984503746033,0.10306648910045624,30.671045303344727,-10.43362045288086,40.284149169921875,0
149,1490247,-0.076872818171978,0.0341256819665432,-1.0129213333129883,0.18793945014476776,0.4343588650226593,-0.25622743368148804,28.524810791015625,-9.730475425720215,40.82518005371094,0
150,1500048,-0.04539250209927559,-0.08791214972734451,-0.9909040331840515,0.357164204120636,0.26084601879119873,-0.08417029678821564,29.032461166381836,-9.602696418762207,40.312225341796875,0
151,1510309,-0.021835127845406532,-0.014237037859857082,-0.9864119291305542,0.5923532247543335,0.3629639446735382,-0.3050139844417572,30.14551544189453,-9.652885437011719,38.725502014160156,0
152,1519753,-0.0019384409533813596,-0.08322171866893768,-0.9751161932945251,-0.1700037568807602,-0.039788514375686646,0.29996034502983093,29.35146713256836,-7.799937725067139,40.397708892822266,0
153,1530048,0.03769452124834061,0.023515136912465096,-0.9680970907211304,-0.17613458633422852,0.5814961791038513,-0.49220213294029236,29.07281494140625,-11.031842231750488,40.95040512084961,0
154,1540168,0.11975420266389847,-0.054915327578783035,-1.0001249313354492,0.006985809653997421,-0.11782268434762955,0.21103888750076294,28.23174476623535,-8.67573070526123,39.1094856262207,0
155,1550116,-0.005394810810685158,-0.05203146114945412,-1.0093278884887695,-0.004527402110397816,-0.5681753158569336,-0.19646714627742767,28.28017234802246,-9.254190444946289,39.51907730102539,0
156,1560117,0.03533124551177025,-0.03434424474835396,-1.010834813117981,-0.5537080764770508,0.47242623567581177,-0.06664903461933136,31.705795288085938,-10.0084810256958,39.95103073120117,0
157,1569979,0.0033688414841890335,-0.031160103157162666,-0.9956177473068237,-0.1287834793329239,0.9633187055587769,-0.6330300569534302,29.31745147705078,-10.335592269897461,39.006778717041016,0
158,1579854,-0.08387059718370438,-0.067476786673069,-0.9970957636833191,-0.6441904902458191,1.0282807350158691,-1.339552640914917,30.979700088500977,-10.666675567626953,41.110130310058594,0
159,1589897,0.008570367470383644,-0.0007223860011436045,-0.9771245121955872,-1.2278741598129272,1.2264667749404907,-0.0682869702577591,28.862478256225586,-10.96608829498291,40.6257438659668,0
160,1599629,0.017417361959815025,-0.032637231051921844,-0.9850581288337708,-0.3302932381629944,0.6252281665802002,0.8913896083831787,31.373197555541992,-10.197243690490723,39.99348068237305,0
161,1610149,0.02317148447036743,0.0356331393122673,-0.984833836555481,0.050374213606119156,-0.5090598464012146,-1.3474640846252441,29.562326431274414,-8.675707817077637,38.71579360961914,0
162,1620062,0.07929347455501556,-0.010267301462590694,-1.017837405204773,1.037155270576477,0.16495946049690247,-0.25591638684272766,31.299306869506836,-10.29415512084961,41.20463943481445,0
163,1629741,0.04855737462639809,0.02580859325826168,-1.0030854940414429,0.6321249604225159,0.0816064402461052,0.4312499463558197,29.42510223388672,-8.103261947631836,38.59492492675781,0
164,1640220,-0.06458855420351028,0.0007700279238633811,-0.9873312711715698,-0.9582164883613586,-0.313140869140625,0.9904465675354004,30.70414924621582,-8.770767211914062,38.80428695678711,0
165,1650313,0.01193715538829565,0.015663670375943184,-0.9788761138916016,-0.41002053022384644,-0.07665019482374191,-0.4776669144630432,29.440078735351562,-9.434308052062988,39.22187042236328,0
166,1660251,-0.041719865053892136,0.023455064743757248,-0.9797742962837219,-0.037771448493003845,-0.21931076049804688,-0.8786198496818542,28.646074295043945,-9.786521911621094,39.108917236328125,0
167,1670236,0.11489798873662949,0.019654655829072,-1.0130137205123901,0.5478429794311523,0.7261021733283997,0.1554786115884781,31.81070327758789,-8.976301193237305,40.547000885009766,0
168,1679852,0.06185624748468399,0.0006750171887688339,-0.9640287756919861,-0.16748371720314026,0.4839799106121063,1.1755626201629639,30.20906639099121,-10.102216720581055,40.005130767822266,0
169,1689894,-0.02816600538790226,-0.04043120518326759,-1.0088427066802979,0.25911444425582886,-0.18209810554981232,0.13810725510120392,30.342613220214844,-11.29686450958252,41.405155181884766,0
170,1700360,-0.007241981104016304,-0.12957102060317993,-0.9930130839347839,0.5523532032966614,-0.5179576277732849,-0.5187743306159973,29.374235153198242,-10.86444091796875,39.64154815673828,0
171,1709883,-0.04829280078411102,-0.0682947188615799,-1.0212050676345825,0.006063514389097691,-0.43317899107933044,-0.943263828754425,29.077226638793945,-10.673004150390625,40.11221694946289,0
172,1719837,0.019992364570498466,-0.06844543665647507,-0.9885441064834595,0.2641647458076477,-0.5696752071380615,-0.18349047005176544,32.27763366699219,-7.922982692718506,39.718807220458984,0
173,1729838,-0.008175860159099102,-0.05045827105641365,-1.0008705854415894,-0.9191333651542664,-0.09001398086547852,-1.1763561964035034,28.717082977294922,-10.457562446594238,39.31065368652344,0
174,1739735,0.1208934634923935,-0.037826862186193466,-1.0126264095306396,-0.4222972095012665,0.04149836674332619,0.016735561192035675,29.853193283081055,-9.148889541625977,41.3626594543457,0
175,1750055,-0.0073812659829854965,-0.04159269854426384,-1.0056606531143188,-0.2271115928888321,0.5075733661651611,-0.5607782602310181,29.269332885742188,-10.470779418945312,39.00020980834961,0
176,1760136,0.06919043511152267,-0.096809022128582,-0.9762335419654846,-0.2526685893535614,0.687285840511322,-0.7327185273170471,28.473426818847656,-11.441142082214355,39.6326789855957,0
177,1770221,-0.0247634444385767,0.03398273512721062,-1.0102641582489014,-0.21390506625175476,0.37192437052726746,-0.6033982038497925,30.346263885498047,-10.487290382385254,38.49824142456055,0
178,1779840,-0.03390048071742058,-0.047608211636543274,-1.0478993654251099,-0.5166241526603699,-0.2180674970149994,-1.0583585500717163,31.20822525024414,-9.835172653198242,40.08168411254883,0
179,1789931,0.0016241869889199734,-0.026002919301390648,-0.9903202056884766,-0.16152146458625793,-0.9141544699668884,0.762936532497406,28.797454833984375,-8.915727615356445,39.51573181152344,0
180,1800021,-0.005739457439631224,0.02993180975317955,-1.0249240398406982,-0.4287410080432892,0.3339674174785614,0.597891628742218,30.516998291015625,-11.344730377197266,41.7714958190918,0
181,1809964,0.0024750586599111557,0.020115401595830917,-1.0200204849243164,0.40673574805259705,0.4309663474559784,-0.551417350769043,27.45088768005371,-11.459692001342773,40.359649658203125,0
182,1819925,0.11035829037427902,-0.00441947765648365,-0.9769019484519958,0.38618817925453186,0.15706579387187958,0.19769631326198578,30.455345153808594,-9.35440731048584,39.68748474121094,0
183,1830011,0.0004574844497255981,0.016169805079698563,-1.0013678073883057,-0.25834059715270996,-0.025599131360650063,0.07904602587223053,28.766569137573242,-11.262496948242188,39.75009536743164,0
184,1840174,-0.02263008989393711,0.051549870520830154,-0.9883211255073547,0.3550466001033783,-0.36763516068458557,0.3674144446849823,30.897878646850586,-12.382166862487793,40.021915435791016,0
185,1849902,0.07225343585014343,-0.004257156513631344,-0.9895855784416199,-0.8646398186683655,0.49842238426208496,0.5463621616363525,30.545940399169922,-10.694089889526367,39.66181182861328,0
186,1859915,0.03515005111694336,-0.07275690138339996,-1.0187325477600098,0.04645624756813049,0.44526880979537964,0.9357543587684631,30.25711441040039,-9.753822326660156,40.01751708984375,0
187,1870252,-0.007179721724241972,-0.036596715450286865,-1.0181814432144165,0.4547217786312103,0.24331404268741608,0.27316829562187195,28.38349723815918,-10.752888679504395,40.74279022216797,0
188,1879870,0.005171399563550949,0.011493505910038948,-0.999366283416748,1.406675100326538,0.9028464555740356,-0.36095649003982544,29.147600173950195,-8.905899047851562,40.944034576416016,0
189,1889680,0.011933504603803158,0.02496715821325779,-0.9848045706748962,0.17487630248069763,0.8626402616500854,0.23878821730613708,29.319211959838867,-10.226343154907227,39.191078186035156,0
190,1899987,-0.045506540685892105,-0.007804433815181255,-0.9935035705566406,-0.06283176690340042,-0.19418060779571533,-0.07764358073472977,29.769207000732422,-10.220240592956543,38.92877197265625,0
191,1909903,0.021137019619345665,0.009667337872087955,-1.0083799362182617,0.11010289192199707,0.9415469765663147,0.1905880570411682,29.318519592285156,-10.983417510986328,39.04539108276367,0
192,1920111,-0.09267815202474594,0.0036113064270466566,-0.9884939193725586,0.057995155453681946,0.19248643517494202,-8.338930638274178e-05,29.537282943725586,-10.359146118164062,41.07909393310547,0
193,1930002,0.06629075855016708,0.047220174223184586,-1.001779317855835,-0.1722951978445053,-0.8374342918395996,-0.46421197056770325,29.975793838500977,-8.122590065002441,39.61955261230469,0
194,1939971,0.05766356363892555,-0.027300870046019554,-1.0010278224945068,-0.5919614434242249,-0.15467125177383423,-0.4887654781341553,31.243772506713867,-10.075726509094238,40.86280059814453,0
195,1950267,-0.013315057381987572,0.025119809433817863,-0.9964117407798767,-0.4004823565483093,-0.08433739095926285,-0.19241076707839966,29.795944213867188,-10.504976272583008,39.68914794921875,0
196,1959912,-0.027241501957178116,0.018597574904561043,-1.0028462409973145,0.6066372394561768,-0.31521162390708923,0.21073013544082642,31.108352661132812,-11.271050453186035,41.01760482788086,0
197,1970223,0.01120041124522686,0.00418779905885458,-1.0013847351074219,0.20216575264930725,0.5179299712181091,-0.24625885486602783,30.724428176879883,-9.314901351928711,41.13671875,0
198,1980047,0.05696261301636696,-0.05002838000655174,-1.0117194652557373,0.4310808479785919,-1.0192207098007202,-0.06322652101516724,29.63094711303711,-9.255758285522461,40.268768310546875,0
199,1990099,0.08344320207834244,-0.09101009368896484,-1.0226329565048218,-0.3742222487926483,-0.10058175027370453,0.38190534710884094,28.47368049621582,-9.738508224487305,39.7085075378418,0
200,1999795,0.02702050656080246,-0.0440104678273201,-1.017000675201416,0.31512442231178284,-0.492188036441803,0.09316372871398926,31.37953758239746,-10.139577865600586,41.643131256103516,0
201,2010165,-0.07723136246204376,0.029020188376307487,-0.9976410269737244,0.31604307889938354,0.4117959141731262,-0.2053675502538681,28.586610794067383,-12.241117477416992,39.23191833496094,0
202,2019953,0.04026861861348152,-0.052458710968494415,-1.0034406185150146,0.7567653656005859,0.10661488771438599,0.12916721403598785,29.83613395690918,-10.330144882202148,41.11422348022461,0
203,2030239,0.03348129987716675,-0.033275056630373,-0.9854602217674255,0.6762274503707886,-0.9046276211738586,-0.40714922547340393,29.782718658447266,-9.489480018615723,38.32318878173828,0
204,2040148,-0.001134110032580793,-0.025390727445483208,-1.030631184577942,-0.4102686047554016,0.14566895365715027,0.17689333856105804,30.757375717163086,-10.782758712768555,40.6164665222168,0
205,2049874,0.1278582513332367,-0.125218003988266,-0.9999154806137085,0.022230790928006172,0.6532673835754395,0.39652788639068604,29.160938262939453,-10.598183631896973,39.97352600097656,0
206,2060066,0.025028057396411896,0.02938493713736534,-1.011938214302063,-0.1947454810142517,0.5844537019729614,0.041228100657463074,30.279813766479492,-9.534908294677734,39.068721771240234,0
207,2069813,-0.10292664170265198,-0.1571512222290039,-1.001550316810608,0.4743419289588928,0.3329569399356842,0.61186283826828,30.03860855102539,-10.717635154724121,40.764610290527344,0
208,2080105,0.006272519938647747,0.02237987518310547,-1.0147398710250854,0.1170966625213623,0.245018869638443,0.1654433161020279,30.277652740478516,-11.054316520690918,40.38472366333008,0
209,2089935,0.04926330968737602,-0.041638217866420746,-0.9783948063850403,-0.30442237854003906,0.9619196653366089,-0.6093061566352844,30.30443572998047,-9.919438362121582,40.211585998535156,0
210,2100000,-0.01792079582810402,0.01858067885041237,-0.9834616184234619,0.029703598469495773,-0.7246190309524536,-0.09169819951057434,30.75682258605957,-11.793556213378906,39.81608200073242,0
211,2109955,-0.011818047612905502,-0.03984513506293297,-1.054356336593628,-0.30006739497184753,0.24573232233524323,0.6939901113510132,30.810157775878906,-7.707274913787842,39.21694564819336,0
212,2119810,0.020116787403821945,0.005105670541524887,-0.9768825769424438,-0.4086327850818634,-0.8029662370681763,-0.20571789145469666,30.71472930908203,-9.098490715026855,39.584529876708984,0
213,2129986,-0.060817375779151917,0.02861250378191471,-0.9764975309371948,0.5614165663719177,-0.03930804505944252,-0.7931702136993408,30.39582061767578,-10.590314865112305,38.315101623535156,0
214,2139880,-0.0861038938164711,0.058592021465301514,-1.024458885192871,-1.2083969116210938,-0.3393006920814514,-0.14420756697654724,31.515789031982422,-9.256168365478516,37.327205657958984,0
215,2150062,-0.014212396927177906,0.06700152158737183,-0.9840997457504272,0.025265207514166832,-0.14524589478969574,0.5803444385528564,29.827213287353516,-10.589038848876953,40.41811752319336,0
216,2160095,-0.009405204094946384,0.010185088962316513,-0.9780341982841492,0.6342515349388123,-0.10675448924303055,-0.05568718910217285,30.14239501953125,-10.386481285095215,40.24633026123047,0
217,2170192,-0.0022756787948310375,0.06170549616217613,-0.9828179478645325,-0.09570373594760895,0.4061841070652008,0.17991022765636444,29.766925811767578,-9.816133499145508,40.556434631347656,0
218,2180078,-0.06358268857002258,0.041987597942352295,-1.0014533996582031,0.06059864163398743,-0.12655507028102875,-0.05520716309547424,29.97509002685547,-10.664844512939453,39.42940139770508,0
219,2189847,-0.020299674943089485,0.017214365303516388,-1.0229755640029907,0.07137706875801086,0.6991996765136719,0.5665333271026611,29.927444458007812,-11.322521209716797,40.30226516723633,0
220,2200045,0.08451570570468903,0.01079026609659195,-1.0023161172866821,-0.6010048985481262,0.0808880478143692,0.5485754609107971,29.60114288330078,-10.912357330322266,42.07444381713867,0
221,2209967,-0.003015681402757764,0.0446786992251873,-0.9799187183380127,0.13745422661304474,0.6019687652587891,0.7994652986526489,30.696849822998047,-9.972883224487305,39.91862487792969,0
222,2219946,0.024245988577604294,-0.018772976472973824,-1.0151675939559937,0.5659059286117554,0.3633699417114258,0.009590895846486092,29.089866638183594,-8.92812728881836,40.071720123291016,0
223,2230198,-0.03904992714524269,0.007712036371231079,-0.9564903378486633,0.15121915936470032,-0.003563167294487357,-0.34767860174179077,32.00474166870117,-9.454427719116211,39.57332229614258,0
224,2239964,0.07069852948188782,0.055826492607593536,-1.0166876316070557,0.0017098054522648454,1.0372179746627808,0.5572327375411987,30.30425453186035,-9.262764930725098,40.632938385009766,0
225,2250053,0.043884098529815674,0.09468714147806168,-1.00283682346344,0.3784500062465668,0.5734548568725586,0.12247404456138611,31.697755813598633,-10.656614303588867,40.92548370361328,0
226,2259966,0.07193434238433838,-0.08104763925075531,-0.9950453042984009,0.48683151602745056,0.3900153338909149,-0.6086345314979553,28.784751892089844,-9.587672233581543,40.37841033935547,0
227,2269834,0.05011340230703354,-0.03584782034158707,-0.9832375049591064,0.22232826054096222,0.291578471660614,-0.820419192314148,33.0738410949707,-9.487997055053711,40.9390983581543,0
228,2279845,0.06097082421183586,0.07078901678323746,-0.9752375483512878,0.4496522545814514,0.6551125645637512,-0.5281530022621155,30.582950592041016,-11.0846586227417,39.958160400390625,0
229,2290049,0.055885713547468185,-0.07999392598867416,-0.997050940990448,0.1593441218137741,-0.48773425817489624,0.012742222286760807,28.434953689575195,-9.934087753295898,40.020389556884766,0
230,2300201,-0.03231038898229599,-0.09839416295289993,-0.9698111414909363,0.3172837197780609,0.5330770015716553,0.0808916762471199,29.900556564331055,-10.51722240447998,40.1265983581543,0
231,2310056,-0.00297362357378006,-0.04072124883532524,-0.9749391078948975,0.08466895669698715,0.9034242033958435,0.9413360953330994,29.45567512512207,-11.3858060836792,40.62179946899414,0
232,2320317,-0.024803554639220238,0.03806576505303383,-1.0082184076309204,-0.5844169855117798,0.19618786871433258,-0.12838979065418243,29.977697372436523,-9.74947738647461,37.93273162841797,0
233,2330330,0.019486671313643456,-0.08898359537124634,-1.0224692821502686,0.1170991063117981,0.8147270679473877,-0.49403688311576843,30.431209564208984,-10.631003379821777,40.82009506225586,0
234,2340164,0.001954925712198019,-0.03260263800621033,-1.0309749841690063,-0.4657227396965027,0.1599501669406891,-0.5524068474769592,31.79779052734375,-8.527828216552734,40.224853515625,0
235,2350270,-0.031248314306139946,-0.07438917458057404,-1.0009535551071167,-0.6851804256439209,0.408500999212265,0.8315243721008301,30.27520751953125,-8.38481330871582,40.51211929321289,0
236,2359883,0.0408998541533947,0.018737193197011948,-0.9797200560569763,0.16353802382946014,0.5047271251678467,0.03956613689661026,31.18743324279785,-9.617181777954102,41.07685852050781,0
237,2369991,0.0010410096729174256,0.054598793387413025,-1.0120879411697388,0.7911074757575989,0.2558310329914093,0.8614538908004761,28.377363204956055,-10.138507843017578,40.07915115356445,0
238,2379971,-0.012160958722233772,-0.08088088780641556,-0.9536557793617249,-0.04884612187743187,-0.49417129158973694,0.12274789065122604,28.82050895690918,-8.758395195007324,39.84483337402344,0
239,2389789,-0.0660674199461937,-0.058778874576091766,-0.9533455967903137,-0.20212657749652863,-1.232210397720337,0.3460725247859955,28.49538230895996,-9.24402904510498,39.68704605102539,0
240,2399939,0.048082634806632996,0.023617904633283615,-0.9984115958213806,-0.4939388632774353,0.49235743284225464,-0.6974161267280579,29.76102066040039,-10.421553611755371,38.904937744140625,0
241,2410233,-0.06376046687364578,0.05685847997665405,-1.0152230262756348,0.4332979619503021,0.521779477596283,0.08347050100564957,30.361366271972656,-10.70283031463623,39.411102294921875,0
242,2420293,0.08176612854003906,-0.0233590267598629,-0.9986643195152283,0.04068230465054512,0.17832940816879272,-0.1444614976644516,28.187028884887695,-10.149062156677246,39.855918884277344,0
243,2430154,0.053052742034196854,0.03320535644888878,-1.0219203233718872,-1.528509259223938,0.14160104095935822,0.6812623143196106,28.701250076293945,-8.488991737365723,39.26606750488281,0
244,2440137,0.031108029186725616,-0.038304463028907776,-1.0135544538497925,-0.7046934962272644,0.16606123745441437,-0.218623548746109,28.1783447265625,-10.245391845703125,39.386741638183594,0
245,2450127,-0.01615609973669052,0.05604877322912216,-0.9769604206085205,0.4913300573825836,0.3283039331436157,0.1055908128619194,30.78656768798828,-10.45530891418457,41.693145751953125,0
246,2460070,0.0246915053576231,-0.0050195930525660515,-1.0175575017929077,0.30964145064353943,0.7199927568435669,-0.3512718081474304,29.10195541381836,-11.041154861450195,40.73003387451172,0
247,2470076,0.013168602250516415,-0.0031029495876282454,-1.008514165878296,-0.5070887207984924,0.33050692081451416,-0.18423129618167877,30.11168098449707,-8.847285270690918,40.89975357055664,0
248,2480108,-0.0015264502726495266,-0.078583262860775,-0.9966437220573425,0.313787579536438,0.31256893277168274,0.08230971544981003,30.4343204498291,-10.66379165649414,40.07863235473633,0
249,2490113,0.02864844724535942,-0.06845523416996002,-1.0097025632858276,-0.6943235397338867,0.2332763969898224,0.41681572794914246,30.807018280029297,-9.250734329223633,40.04350280761719,0
250,2499755,0.0553208664059639,0.0014115633675828576,-0.9901279211044312,0.07658056169748306,0.09430839121341705,0.6495184302330017,31.04232406616211,-11.00294017791748,41.7712516784668,0
251,2510091,-0.04102277383208275,0.07187087088823318,-1.0255547761917114,0.09786663204431534,-0.9265277981758118,0.900742769241333,31.286340713500977,-9.707246780395508,38.97709655761719,0
252,2519778,-0.03212340548634529,-0.057221751660108566,-0.9886942505836487,-0.3510914444923401,0.3356563448905945,0.41449299454689026,29.402976989746094,-8.817606925964355,38.77463912963867,0
253,2530257,0.0422990582883358,0.03560676798224449,-1.0293529033660889,-0.9182766079902649,-0.5164742469787598,-0.3632969260215759,28.510995864868164,-9.812358856201172,39.11602020263672,0
254,2539808,-0.01873125322163105,-0.0623924620449543,-1.013726830482483,0.7601770162582397,0.23002204298973083,0.7756150364875793,29.231647491455078,-9.537952423095703,39.4505729675293,0
255,2549990,-0.020063482224941254,0.04333317279815674,-0.9951727390289307,-0.6898077726364136,-0.0009672927553765476,-1.1144763231277466,30.3854923248291,-10.46795654296875,37.497657775878906,0
256,2559823,0.00027182200574316084,-0.03357883170247078,-0.9853426218032837,0.03201369196176529,0.643992006778717,0.04238072410225868,29.893712997436523,-10.671130180358887,39.18271255493164,0
257,2569965,0.04546765983104706,0.0896892100572586,-0.9774075746536255,-0.1967596411705017,0.3005722463130951,-0.07265257835388184,29.5135555267334,-10.573478698730469,37.98455810546875,0
258,2579943,0.05977214127779007,0.08016437292098999,-0.9903225302696228,-0.4268995225429535,0.5884539484977722,-0.800936758518219,30.791240692138672,-9.164231300354004,39.7497444152832,0
259,2590146,-0.03227906674146652,0.03450099378824234,-1.0149167776107788,-0.3429691791534424,-0.614419162273407,-0.03246930241584778,29.442096710205078,-10.209074020385742,41.072608947753906,0
260,2600061,-0.0034203501418232918,0.050019826740026474,-0.9889312386512756,0.4011264145374298,-0.13149338960647583,0.030923714861273766,28.01308822631836,-9.664977073669434,40.404415130615234,0
261,2609695,-0.03905360773205757,0.009150906465947628,-1.003021240234375,0.7899600863456726,0.5496513843536377,0.2533789277076721,30.83437156677246,-9.953320503234863,40.08772277832031,0
262,2619884,0.09700970351696014,0.007839404977858067,-0.9926466941833496,0.4965393543243408,-0.2775403559207916,-0.06750773638486862,30.135303497314453,-10.930919647216797,40.32122802734375,0
263,2629685,0.0317663811147213,0.013008633628487587,-1.0450199842453003,-0.2804335653781891,-0.6386295557022095,1.3323619365692139,31.94679832458496,-8.715540885925293,39.843936920166016,0
264,2640268,-0.034807078540325165,0.1134304478764534,-0.9923313856124878,0.15640591084957123,0.22191114723682404,0.2387671172618866,29.796838760375977,-10.194703102111816,41.6942253112793,0
265,2649840,-0.03164489567279816,-0.02171880379319191,-1.0003210306167603,-0.17202340066432953,-0.43563973903656006,-0.1840137094259262,29.0436954498291,-8.74014663696289,39.622169494628906,0
266,2660047,-0.009594717994332314,-0.023792622610926628,-1.0029468536376953,-0.18130016326904297,-0.23099493980407715,-0.3764103949069977,31.543859481811523,-9.027375221252441,39.10340881347656,0
267,2670134,-0.055383674800395966,0.020751027390360832,-0.9888310432434082,-0.11988796293735504,0.6097530722618103,-0.31821703910827637,30.503995895385742,-10.691246032714844,39.88273239135742,0
268,2680203,-0.12223783135414124,0.04161016270518303,-0.9627024531364441,0.41726356744766235,1.0109113454818726,0.3584398925304413,31.219236373901367,-9.57100772857666,41.34892654418945,0
269,2690130,0.09683967381715775,-0.04875083267688751,-0.9934353232383728,-0.7290996313095093,-0.4873385429382324,0.3221063017845154,31.200284957885742,-8.036996841430664,38.91447448730469,0
270,2699886,0.08696858584880829,0.018517952412366867,-1.0148212909698486,1.192916750907898,0.10871060192584991,0.08989740908145905,30.165843963623047,-9.386848449707031,39.964237213134766,0
271,2709787,-0.008997817523777485,-0.11134744435548782,-0.9995370507240295,0.7434316873550415,0.36416468024253845,-0.5049140453338623,30.54920196533203,-9.757661819458008,39.486412048339844,0
272,2720105,0.03490676358342171,0.025658613070845604,-0.9788147211074829,-0.14716127514839172,0.055804457515478134,-0.5479681491851807,29.34628677368164,-10.608539581298828,40.885292053222656,0
273,2730185,-0.001601909170858562,-0.004474612418562174,-0.9781001806259155,-0.2609822750091553,0.4629088342189789,-0.8934802412986755,29.91819953918457,-10.043964385986328,40.10005569458008,0
274,2739853,-0.04491645470261574,-0.06359085440635681,-0.9817977547645569,0.36996713280677795,0.09554387629032135,0.8314081430435181,29.931901931762695,-9.520102500915527,40.802391052246094,0
275,2750118,-0.00841336976736784,-0.08057737350463867,-0.9945158958435059,-0.8285113573074341,-0.7933391332626343,0.1848384141921997,31.809593200683594,-10.12734603881836,39.89934539794922,0
276,2760234,0.022026853635907173,0.05269637331366539,-1.0158685445785522,-0.07854121178388596,0.4264557361602783,0.23894621431827545,28.603534698486328,-9.899698257446289,40.59069061279297,0
277,2770225,-0.055236030369997025,0.00889313593506813,-1.0337467193603516,-0.04847243055701256,-0.019201776012778282,0.12739315629005432,29.754737854003906,-9.763684272766113,40.93209457397461,0
278,2779751,0.015225186012685299,-0.04651379957795143,-0.9969249963760376,-0.48901936411857605,0.05278225243091583,-0.05870318040251732,29.461143493652344,-10.865400314331055,38.674095153808594,0
279,2790053,0.004905907437205315,-0.03252513334155083,-1.0168087482452393,0.1421210765838623,-0.18416078388690948,0.2556530237197876,27.7535343170166,-8.218453407287598,40.45756912231445,0
280,2799949,-0.012969442643225193,-0.05762411281466484,-0.9973971247673035,-0.47932082414627075,0.18993069231510162,-0.7498570680618286,29.367216110229492,-10.082510948181152,40.465782165527344,0
281,2809893,-0.06533312797546387,-0.08180897682905197,-0.983863115310669,-0.33937788009643555,-0.5481449961662292,-0.4227748215198517,29.27598762512207,-9.525975227355957,38.37016677856445,0
282,2820086,0.004244147799909115,-0.003623002441599965,-0.9821823835372925,0.6719688773155212,-0.08403953164815903,-0.5047449469566345,31.236221313476562,-11.120195388793945,39.60254669189453,0
283,2829944,0.03416949138045311,-0.04813546687364578,-1.0073606967926025,0.5621646642684937,0.0901048481464386,0.33972182869911194,30.63570785522461,-9.181537628173828,37.53793716430664,0
284,2839954,-0.11479058116674423,-0.017254523932933807,-0.9707175493240356,0.7700074315071106,0.2395695447921753,0.20945724844932556,29.31624412536621,-8.368741035461426,40.88945770263672,0
285,2850206,0.001573139219544828,0.030073821544647217,-0.9735122323036194,-0.06796993315219879,-0.7178490161895752,-0.019861940294504166,31.058399200439453,-10.456279754638672,39.404701232910156,0
286,2860018,-0.10304862260818481,0.03630803897976875,-1.0293433666229248,-0.4399321377277374,0.039302896708250046,-0.5095288157463074,29.67139434814453,-11.784457206726074,40.379058837890625,0
287,2869851,0.07852039486169815,-0.006689546164125204,-0.9722209572792053,0.24146798253059387,0.31580156087875366,-0.7353674173355103,31.530811309814453,-10.160430908203125,38.348480224609375,0
288,2879923,0.01901167817413807,0.012598555535078049,-1.016804814338684,-0.390388548374176,-0.4472145438194275,0.7482568025588989,31.144142150878906,-10.742509841918945,38.958805084228516,0
289,2889918,0.03131378814578056,0.0015224750386551023,-1.031048059463501,-0.2515213191509247,-0.9016743898391724,-0.4150877892971039,29.617717742919922,-8.841666221618652,37.920291900634766,0
290,2900104,0.09556002914905548,-0.08564277738332748,-1.0211843252182007,-0.9982010722160339,0.2884292006492615,-0.3237465023994446,30.826723098754883,-10.636777877807617,38.51505661010742,0
291,2909895,0.04275025799870491,-0.015616434626281261,-1.0286006927490234,0.5909773707389832,-0.5210511684417725,0.04106432944536209,31.098737716674805,-8.735358238220215,37.36236572265625,0
292,2920052,0.025487078353762627,-0.016951292753219604,-0.9661712646484375,0.9727777242660522,-0.6964309811592102,0.09983570873737335,29.357759475708008,-9.834259033203125,41.33389663696289,0
293,2929911,-0.040849048644304276,0.01656535640358925,-1.067226767539978,-0.0008315479499287903,-0.05141362547874451,0.2154276967048645,29.646894454956055,-10.017436027526855,40.04938888549805,0
294,2940202,0.07999677956104279,-0.02991015836596489,-1.0062365531921387,0.3558412790298462,-0.6459304094314575,1.289678692817688,30.16390609741211,-8.99777889251709,39.44098663330078,0
295,2949903,0.052421387284994125,0.08093493431806564,-1.0184227228164673,0.13734200596809387,-0.06998959183692932,-0.05220850929617882,28.7619571685791,-9.271368980407715,38.751949310302734,0
296,2960184,-0.012763665989041328,0.09839360415935516,-1.01450514793396,0.4148402214050293,-0.05938474088907242,0.9173386096954346,31.502201080322266,-10.267841339111328,38.854034423828125,0
297,2970200,0.013038665987551212,-0.1011454239487648,-0.9692883491516113,0.3103109896183014,-0.5226805806159973,-0.20783834159374237,30.90535545349121,-8.573822021484375,38.69167709350586,0
298,2979942,-0.011797325685620308,0.07818421721458435,-0.9982266426086426,0.3750147521495819,0.45986220240592957,-0.07625836879014969,30.174827575683594,-8.847356796264648,40.040863037109375,0
299,2989952,-0.08891265839338303,0.0596502423286438,-1.0093439817428589,-0.7405524253845215,-0.12432226538658142,-0.5192749500274658,29.873414993286133,-8.242154121398926,41.482425689697266,0
300,2999748,-0.0007575014606118202,-0.0676303282380104,-0.970843493938446,-0.8912549018859863,-0.18621443212032318,-0.9773393869400024,30.533597946166992,-9.008729934692383,40.0830192565918,0
301,3010018,0.009478634223341942,0.022009504958987236,-0.9584948420524597,0.41655656695365906,0.2355094999074936,-0.4279913604259491,29.945377349853516,-9.860968589782715,39.451229095458984,0
302,3019970,0.0012885420583188534,0.015314648859202862,-0.9889468550682068,0.9530731439590454,-0.01994551718235016,0.6311149001121521,30.625062942504883,-8.186203002929688,41.505531311035156,0
303,3029910,0.029161719605326653,-0.07200563699007034,-0.9825041890144348,0.4055909216403961,-0.7620198130607605,-0.06701759994029999,30.132095336914062,-7.591549873352051,39.01131820678711,0
304,3039835,-0.007619503885507584,-0.06659481674432755,-0.9976759552955627,-0.12225674837827682,0.1837519109249115,0.917404294013977,29.57886505126953,-10.713629722595215,40.989234924316406,0
305,3050040,0.049579497426748276,-0.01742570474743843,-0.9916517734527588,0.6250143647193909,-0.34389784932136536,0.31367847323417664,30.647802352905273,-10.106424331665039,41.18020248413086,0
306,3060019,0.05595247820019722,0.022902870550751686,-0.9674429297447205,-0.38939791917800903,-0.8579173684120178,-0.18740949034690857,30.011110305786133,-9.636164665222168,39.33415603637695,0
307,3070172,0.08337754756212234,-0.027798304334282875,-1.0268394947052002,0.23323886096477509,0.4881383776664734,0.9740768074989319,31.0695858001709,-11.164521217346191,38.53533172607422,0
308,3079868,0.059519436210393906,-0.002494957996532321,-1.0073091983795166,0.001268382533453405,-0.3697221279144287,0.7999640107154846,28.826391220092773,-9.871512413024902,42.122352600097656,0
309,3090190,-0.030106624588370323,-0.04222027584910393,-0.9837152361869812,-0.35916027426719666,-0.16658228635787964,-0.3071500062942505,29.632633209228516,-8.98237419128418,39.73400115966797,0
310,3100035,0.01719573698937893,0.0020764947403222322,-1.0235331058502197,-0.09898877143859863,0.5465757250785828,-0.49095118045806885,29.936397552490234,-9.360754013061523,38.28957748413086,0
311,3110049,0.06806077063083649,0.06166602298617363,-0.9828721284866333,0.34282544255256653,0.07049570232629776,-1.184084177017212,29.082935333251953,-10.4052734375,40.789207458496094,0
312,3120009,0.002609577029943466,0.06720907986164093,-0.9922928810119629,-0.09927970916032791,0.1026732474565506,0.591128408908844,30.35121726989746,-8.892403602600098,38.60103988647461,0
313,3130202,-0.0005994957173243165,0.02506321296095848,-1.0019891262054443,-0.48368924856185913,-0.29251277446746826,-0.26815736293792725,29.88896369934082,-9.689898490905762,40.8778190612793,0
314,3140077,-0.06536506116390228,-0.022308018058538437,-1.036406397819519,-0.4651769995689392,0.5299888849258423,-0.5717949867248535,29.695232391357422,-11.631000518798828,40.28874588012695,0
315,3149895,0.019260378554463387,-0.0049940450116992,-1.0378669500350952,0.6523867845535278,0.5391646027565002,0.11862911283969879,30.49591827392578,-9.236367225646973,39.23877716064453,0
316,3159937,-0.029459133744239807,0.013627804815769196,-1.0633543729782104,-0.4942004382610321,1.2058933973312378,0.49459221959114075,29.372068405151367,-9.922201156616211,40.73601531982422,0
317,3169871,-0.014464045874774456,-0.019407739862799644,-1.0326790809631348,-0.5203520059585571,-0.4099879860877991,0.7451158165931702,27.390928268432617,-9.877898216247559,40.324832916259766,0
318,3179711,-0.003764873370528221,-0.06560415774583817,-0.9943625330924988,0.6197677254676819,-0.1361760050058365,-0.30089813470840454,29.870635986328125,-9.310678482055664,40.09206771850586,0
319,3189912,0.04384669288992882,-0.015994613990187645,-0.9848083257675171,0.08837678283452988,-0.3969839811325073,-0.4894354045391083,29.640188217163086,-11.693181991577148,40.652854919433594,0
320,3199858,-0.03354005515575409,0.014492888934910297,-0.9729978442192078,-0.9287753701210022,0.5124936699867249,-0.3400959074497223,30.096263885498047,-10.547006607055664,38.68861389160156,0
321,3209877,-0.03046850860118866,0.003944776952266693,-1.0137617588043213,0.5865780711174011,-0.1687825620174408,-0.7560768723487854,29.47864532470703,-10.026930809020996,39.54960250854492,0
322,3219914,0.011710397899150848,-0.00635212566703558,-0.9947378635406494,-0.011160062626004219,-0.4682525098323822,-0.14124689996242523,30.71539306640625,-10.09223461151123,39.962982177734375,0
323,3229727,-0.07774823158979416,-0.1086970865726471,-0.978121817111969,0.5191553235054016,0.020748181268572807,0.21157632768154144,32.042213439941406,-9.086703300476074,40.129180908203125,0
324,3239803,-0.015477890148758888,0.06209471821784973,-1.019446849822998,0.5465647578239441,-0.5751376748085022,0.1273297369480133,30.991992950439453,-10.010499000549316,38.856224060058594,0
325,3250084,0.07667255401611328,0.05835583433508873,-0.9935979843139648,-0.8823939561843872,-0.019758665934205055,0.2015043944120407,29.54584503173828,-10.621164321899414,40.003173828125,0
326,3259986,-0.017077218741178513,-0.09843694418668747,-1.0113434791564941,-0.05184273421764374,-0.3103867173194885,0.27861544489860535,31.137483596801758,-9.44401741027832,39.3812370300293,0
327,3270089,-0.0776008889079094,0.10196515917778015,-1.0121970176696777,-0.21519139409065247,-0.8819355964660645,0.17097267508506775,30.227733612060547,-9.514578819274902,39.591373443603516,0
328,3279984,0.06296832859516144,-0.0037121642380952835,-0.9905046820640564,0.25356951355934143,0.8392158150672913,0.05852381885051727,31.29869270324707,-10.27674674987793,40.52344512939453,0
329,3289876,-0.035704948008060455,0.06750112026929855,-0.9771896004676819,-0.03810279443860054,0.12963993847370148,0.6084021329879761,30.795215606689453,-11.312214851379395,39.373130798339844,0
330,3300228,-0.0927603617310524,-0.013705193065106869,-0.9821900129318237,-0.6675650477409363,0.3195245563983917,-0.23202785849571228,29.603939056396484,-9.348944664001465,41.648311614990234,0
331,3310006,0.02107020653784275,0.05467543005943298,-1.0223872661590576,0.4019555449485779,-0.013485952280461788,-0.20363469421863556,29.137699127197266,-8.660545349121094,39.583675384521484,0
332,3319987,-0.04376418888568878,0.05231451243162155,-1.0054677724838257,-0.4831041693687439,0.44771692156791687,0.08983751386404037,30.41024398803711,-9.938735008239746,37.995697021484375,0
333,3329932,0.016504647210240364,-0.01787729747593403,-1.0280859470367432,0.3243786096572876,0.5084393620491028,0.32647112011909485,29.726978302001953,-9.403481483459473,40.18614196777344,0
334,3339781,0.05533672124147415,0.008337809704244137,-0.9727622866630554,0.11005064845085144,-0.24576900899410248,-0.7362029552459717,29.343578338623047,-9.10327434539795,40.43181228637695,0
335,3349968,0.023132149130105972,0.03796060383319855,-1.0025382041931152,0.018691308796405792,0.2248527854681015,-0.4124166667461395,29.11134910583496,-10.3404541015625,40.70969009399414,0
336,3359816,0.016824407503008842,0.017056511715054512,-1.0003045797348022,0.247965469956398,0.715419590473175,-0.43211814761161804,31.310230255126953,-11.473273277282715,40.253170013427734,0
337,3370192,0.004240356385707855,0.052024200558662415,-0.9823013544082642,0.6912404894828796,-0.36426103115081787,-0.45205259323120117,30.791261672973633,-11.174943923950195,38.960052490234375,0
338,3380265,-0.00042933947406709194,0.03425155207514763,-0.9807410836219788,-0.5521736741065979,0.08798842132091522,0.043600525707006454,31.578571319580078,-9.96172046661377,38.44098663330078,0
339,3389991,-0.04798521846532822,0.0015639839693903923,-1.0019747018814087,-0.6070670485496521,-0.47510650753974915,0.22657626867294312,30.280113220214844,-8.348780632019043,37.19200134277344,0
340,3400037,-0.12261053919792175,0.025796644389629364,-1.0117173194885254,-0.051777128130197525,-1.0302467346191406,0.24530908465385437,31.187393188476562,-8.363497734069824,41.033531188964844,0
341,3409993,0.055510442703962326,0.05527032911777496,-1.0012755393981934,-0.00300882151350379,-0.5251589417457581,-0.4074731469154358,30.634185791015625,-10.8454008102417,40.62443542480469,0
342,3419764,-0.06124856695532799,0.028709430247545242,-0.9701495170593262,-0.2712964713573456,0.40263018012046814,-0.9311116337776184,30.022947311401367,-11.038987159729004,40.227210998535156,0
343,3429795,-0.0660531297326088,-0.010844726115465164,-1.0120078325271606,-0.20706382393836975,-0.3830568492412567,0.43601128458976746,31.02081871032715,-9.331012725830078,40.394901275634766,0
344,3440018,-0.017944402992725372,0.00333401863463223,-0.9942525029182434,0.4007527232170105,0.7002997994422913,-0.10294535011053085,31.168018341064453,-9.789507865905762,40.23854446411133,0
345,3449990,-0.018625201657414436,-0.055043358355760574,-0.9943825602531433,0.2665243446826935,-0.2658097445964813,-0.05380462482571602,28.394094467163086,-11.30611801147461,40.131587982177734,0
346,3459781,-0.039742361754179,-0.062446411699056625,-0.9999822974205017,-0.5147709846496582,-0.884305477142334,1.4061306715011597,29.302276611328125,-11.960702896118164,39.28914260864258,0
347,3470186,-0.0020996483508497477,-0.02031603455543518,-1.0258219242095947,-0.030134130269289017,0.6038717031478882,-0.6426090002059937,31.93268585205078,-10.406061172485352,39.92226791381836,0
348,3480063,0.029089130461215973,-0.004078781232237816,-0.992942750453949,-0.38317176699638367,0.5131388902664185,-0.23436912894248962,32.03956604003906,-10.169204711914062,41.169002532958984,0
349,3490156,0.0036962300073355436,0.07502307742834091,-0.9943799376487732,-0.29536840319633484,-0.14341409504413605,0.7839211225509644,29.51300621032715,-11.018412590026855,41.83603286743164,0
350,3500106,-0.09635637700557709,-0.03053305670619011,-1.0116546154022217,-0.12279122322797775,-0.2379065752029419,-0.20660428702831268,31.66558265686035,-7.9673919677734375,37.95273208618164,0
351,3509547,0.05936871096491814,0.021191591396927834,-0.9986307621002197,-0.27789050340652466,0.2537650167942047,-0.06420747935771942,29.925447463989258,-9.4420166015625,39.93983459472656,0
352,3520120,-0.013031020760536194,-0.005080676171928644,-0.9887003898620605,-0.6796733736991882,0.4733150005340576,-0.20769989490509033,29.778520584106445,-7.668486595153809,41.19667434692383,0
353,3530225,0.052215415984392166,0.05284774303436279,-1.0271191596984863,0.25811782479286194,-0.27734729647636414,0.1559598594903946,28.858905792236328,-11.073664665222168,39.8169059753418,0
354,3540130,0.004660253878682852,0.04498795419931412,-1.0004369020462036,-0.06985998153686523,0.24448448419570923,-0.0646558478474617,31.15039825439453,-9.961405754089355,40.84867858886719,0
355,3549920,-0.01923833042383194,-0.018581440672278404,-0.9696403741836548,-0.5044378638267517,0.3740435540676117,0.39559629559516907,29.578369140625,-10.948498725891113,40.055198669433594,0
356,3559968,0.0309843011200428,0.045896440744400024,-1.0086796283721924,0.9165230989456177,-0.047449007630348206,0.5022937655448914,30.897205352783203,-9.894312858581543,40.293827056884766,0
357,3570211,-0.09225518256425858,0.029094642028212547,-1.0040068626403809,1.0893572568893433,-0.0740269273519516,1.1114758253097534,28.761707305908203,-11.54105281829834,39.09308624267578,0
358,3579894,0.023901326581835747,0.03518863022327423,-0.9868500232696533,0.9080994129180908,0.6747841238975525,0.1749831736087799,31.63875961303711,-10.53396987915039,40.40506362915039,0
359,3590067,0.005603291559964418,0.019478829577565193,-0.9713428020477295,0.3613661527633667,-0.438458651304245,-0.24845972657203674,29.56267547607422,-9.085843086242676,40.645755767822266,0
360,3599822,-0.019665900617837906,0.08176601678133011,-1.020836353302002,0.5588149428367615,-0.09119114279747009,-0.17256686091423035,29.37500762939453,-9.69856071472168,41.8121337890625,0
361,3610000,0.08218178153038025,-0.05508839711546898,-1.0310033559799194,-1.280184268951416,0.32013794779777527,-0.3706902861595154,29.55621337890625,-10.59160327911377,40.32619857788086,0
362,3619891,0.024077367037534714,-0.042853325605392456,-0.9974266886711121,0.1256963610649109,-0.01662105694413185,0.33956536650657654,28.70212173461914,-10.602346420288086,40.1074333190918,0
363,3630139,0.0005686033400706947,0.06373576074838638,-0.9962542057037354,0.06471267342567444,-0.8064504265785217,0.012614114210009575,32.0177116394043,-8.575542449951172,40.59224319458008,0
364,3640034,0.04533796012401581,-0.006204608827829361,-0.988900899887085,0.14324380457401276,-0.6759034991264343,-0.7885246276855469,30.81941795349121,-9.382152557373047,41.278953552246094,0
365,3649993,-0.1147514060139656,-0.01198023371398449,-0.9822572469711304,-0.518535315990448,-0.1143101155757904,0.00582937803119421,31.58394432067871,-8.196097373962402,38.884708404541016,0
366,3659891,-0.02407119795680046,0.005572184920310974,-1.0428305864334106,0.24124358594417572,0.5008020997047424,0.41421273350715637,30.166467666625977,-8.373435974121094,41.1049690246582,0
367,3670109,-0.052064161747694016,-0.09241516888141632,-1.0106711387634277,0.2861206531524658,-0.08601094782352448,0.42529186606407166,30.00058364868164,-10.880674362182617,38.7491569519043,0
368,3679972,0.01025334931910038,-0.037878602743148804,-0.9939830303192139,-0.0578390397131443,-0.6416544914245605,0.48981374502182007,29.9583740234375,-10.001172065734863,39.18061065673828,0
369,3690066,-0.03760497644543648,-0.004021874163299799,-1.0154318809509277,-0.28271210193634033,-0.4858728051185608,0.2542682886123657,30.276878356933594,-10.448500633239746,38.90175247192383,0
370,3700226,-0.06687702238559723,0.05243735387921333,-0.9884400367736816,0.5195968747138977,1.5594786405563354,-0.2667756676673889,29.00591468811035,-9.490193367004395,37.842552185058594,0
371,3710106,0.021782655268907547,0.044942524284124374,-0.9887353181838989,-0.01790137216448784,0.21327529847621918,0.4900657534599304,28.65898895263672,-10.064064979553223,39.06011199951172,0
372,3719967,0.008215385489165783,-0.00010384909546701238,-1.024990439414978,-0.21945174038410187,-0.2084272801876068,-0.2701129615306854,31.110126495361328,-10.233003616333008,40.33702850341797,0
373,3729969,-0.04242264851927757,0.02415487729012966,-1.0247787237167358,-1.0409047603607178,0.5939685106277466,0.4749213755130768,31.403467178344727,-10.296762466430664,41.58342742919922,0
374,3739902,-0.03260719031095505,-0.03299902006983757,-1.0438215732574463,-0.08185219019651413,0.07544639706611633,-0.22021406888961792,29.75048065185547,-9.603577613830566,40.72655487060547,0
375,3750129,-0.03804213926196098,0.021536817774176598,-0.9787501096725464,0.37085387110710144,0.010460984893143177,-0.5053435564041138,30.317806243896484,-10.280351638793945,39.9453125,0
376,3759892,-0.019464245066046715,0.0018994404235854745,-1.0316318273544312,-0.2964021861553192,-0.6851288080215454,0.12359113246202469,28.267024993896484,-10.267019271850586,41.99574279785156,0
377,3769921,0.032067298889160156,0.02502366155385971,-1.0013679265975952,0.32280421257019043,0.3239360451698303,0.06495692580938339,31.48114776611328,-9.860262870788574,39.42205810546875,0
378,3779776,0.03681163117289543,-0.015289857052266598,-0.9932438731193542,0.183559849858284,0.024519264698028564,0.3704899847507477,30.225631713867188,-9.677390098571777,40.47016906738281,0
379,3790004,-0.0476338192820549,0.0015885288594290614,-0.976358950138092,-0.14083777368068695,-0.12031367421150208,0.21821463108062744,31.08965492248535,-10.391288757324219,40.211997985839844,0
380,3799926,0.04989754408597946,0.008394434116780758,-1.0202149152755737,-0.12658658623695374,-0.7596617937088013,-1.1407389640808105,29.771799087524414,-8.629189491271973,38.74581527709961,0
381,3810089,0.026529528200626373,0.04323839396238327,-1.0398386716842651,0.22550982236862183,0.32021263241767883,0.072206512093544,29.597850799560547,-9.865096092224121,39.37372970581055,0
382,3820108,0.0096957478672266,0.03132207319140434,-0.9870366454124451,0.3981531262397766,-0.8340851664543152,0.42419949173927307,29.667390823364258,-9.80022144317627,39.62434768676758,0
383,3829720,0.010401873849332333,-0.028473475947976112,-1.0039138793945312,0.33072903752326965,0.3533784747123718,-0.1279674917459488,30.143774032592773,-10.87267780303955,40.82212448120117,0
384,3840000,0.11395639181137085,0.030697962269186974,-1.014409065246582,-0.013928357511758804,-0.7081677913665771,-0.10932362079620361,29.634248733520508,-11.053144454956055,40.12578201293945,0
385,3850092,0.017574001103639603,0.023588459938764572,-0.9935305714607239,0.06432650238275528,-0.35282835364341736,0.2843388617038727,30.806737899780273,-10.410439491271973,40.870941162109375,0
386,3859781,0.061045773327350616,0.13733184337615967,-0.9895214438438416,0.7667654156684875,0.7383338212966919,-0.39945924282073975,28.611814498901367,-9.714125633239746,40.72999954223633,0
387,3870214,-0.12637577950954437,-0.026308877393603325,-0.9833358526229858,1.3204622268676758,-0.32294028997421265,-0.3207092881202698,30.468324661254883,-9.245014190673828,39.109622955322266,0
388,3880064,-0.022757915779948235,0.04954149201512337,-0.9901036024093628,0.2704010009765625,0.08505170792341232,1.3130055665969849,28.744369506835938,-9.050189018249512,40.71446228027344,0
389,3889870,-0.06502837687730789,-0.014758226461708546,-0.9970501661300659,-0.1893591284751892,0.6351910829544067,0.1524198055267334,29.57056427001953,-9.659318923950195,40.934505462646484,0
390,3900073,-0.0425419956445694,-0.002946091117337346,-1.0585863590240479,0.19364018738269806,-0.33911073207855225,-0.6076425313949585,28.94151496887207,-11.016810417175293,39.71671676635742,0
391,3909848,0.03120071440935135,-0.052121374756097794,-0.9804706573486328,-0.33828216791152954,0.41502004861831665,-0.48269638419151306,29.5839786529541,-10.584278106689453,37.51829147338867,0
392,3919928,-0.007578978780657053,0.06231553107500076,-1.020614743232727,0.41998744010925293,1.3496383428573608,0.14428912103176117,30.39621925354004,-10.403775215148926,38.7874755859375,0
393,3930122,-0.01809835620224476,-0.0004467062244657427,-1.0056341886520386,-0.23633798956871033,-0.21879051625728607,-0.5385386347770691,29.831262588500977,-8.90673828125,40.53947448730469,0
394,3940265,0.005045531317591667,0.04356659576296806,-1.028544306755066,-0.18858282268047333,-0.2206335812807083,-0.21422353386878967,30.73225212097168,-10.068713188171387,39.92007064819336,0
395,3949731,0.008314888924360275,-0.02893914468586445,-0.9868147969245911,-0.47729161381721497,0.32045650482177734,-1.1699389219284058,28.943283081054688,-9.449705123901367,39.64141845703125,0
396,3959906,-0.05241824686527252,-0.09373469650745392,-0.9802880883216858,-0.864416778087616,-0.2889575660228729,0.24122458696365356,29.446144104003906,-11.30188274383545,39.11903381347656,0
397,3970168,-0.04166962578892708,0.021988196298480034,-1.0145825147628784,-0.340652197599411,0.6189559698104858,-0.578903317451477,29.942546844482422,-10.057257652282715,41.57612228393555,0
398,3979561,-0.016791896894574165,-0.027580853551626205,-1.0001779794692993,0.13073612749576569,0.5319965481758118,-0.9076828956604004,29.763938903808594,-9.643837928771973,40.188568115234375,0
399,3989964,0.01243250910192728,0.014743311330676079,-0.9896751046180725,1.1983070373535156,0.7790122628211975,-0.23926962912082672,28.704078674316406,-10.141816139221191,40.28352355957031,0
400,4000255,-0.07638866454362869,-0.07981579750776291,-1.0160454511642456,0.4545583128929138,0.38905027508735657,-0.27852973341941833,28.65174102783203,-9.977642059326172,41.37385559082031,0
401,4010030,0.08331145346164703,0.03458939865231514,-1.0262342691421509,-0.42047491669654846,0.6198573112487793,0.13118988275527954,30.720993041992188,-9.026104927062988,39.707366943359375,0
402,4019665,-0.037488341331481934,-0.02090270072221756,-1.0164350271224976,-0.0627746731042862,0.25938400626182556,0.38290151953697205,31.674226760864258,-8.911788940429688,38.28699493408203,0
403,4029955,-0.030717849731445312,-0.022610854357481003,-0.9840967059135437,0.13499394059181213,0.0554027296602726,1.09615159034729,30.385629653930664,-10.327717781066895,40.1092414855957,0
404,4040203,0.08882232755422592,0.035017743706703186,-1.010412335395813,-0.935643196105957,-0.10580825805664062,0.4764058589935303,29.661102294921875,-10.27595329284668,40.084293365478516,0
405,4050097,0.07477216422557831,0.019083654507994652,-0.9831693768501282,0.541558027267456,-0.43742793798446655,0.0214537400752306,30.325260162353516,-11.941373825073242,40.33877944946289,0
406,4060060,-0.06465122103691101,-0.09082463383674622,-1.0383063554763794,-0.5522372126579285,-0.011024708859622478,-0.17992843687534332,30.54296875,-11.517073631286621,39.751007080078125,0
407,4069848,-0.0002139436110155657,-0.018714994192123413,-0.9704726338386536,0.47669634222984314,0.22533999383449554,0.4887987971305847,31.198741912841797,-9.471559524536133,41.00235366821289,0
408,4079893,-0.11629404127597809,-0.04031083360314369,-1.0219119787216187,-0.36229968070983887,0.14120526611804962,-0.7369855046272278,29.548038482666016,-8.506190299987793,39.91761016845703,0
409,4090019,0.019475549459457397,-0.024941297248005867,-1.059415340423584,0.30631309747695923,-0.19641268253326416,0.3749473989009857,29.503740310668945,-10.313530921936035,40.02840042114258,0
410,4099962,0.053654178977012634,0.049552880227565765,-1.0149271488189697,-0.3022376298904419,0.39571186900138855,-0.2665317952632904,31.345138549804688,-9.047718048095703,38.856292724609375,0
411,4110112,0.004975438117980957,0.06496214866638184,-1.0219367742538452,0.18964122235774994,0.13785161077976227,-0.30540117621421814,28.37261390686035,-10.881942749023438,40.13545227050781,0
412,4120192,-0.029780883342027664,-0.06594652682542801,-0.9843212366104126,-0.19293975830078125,-0.28940340876579285,-0.5603959560394287,28.45921516418457,-10.850421905517578,39.23377990722656,0
413,4130293,0.04570156708359718,-0.02335788682103157,-1.0118720531463623,0.34843382239341736,-0.2136775702238083,-0.21743640303611755,29.72832679748535,-9.316010475158691,39.890811920166016,0
414,4139905,-0.007695232052356005,0.14368648827075958,-1.0148195028305054,-0.4993492662906647,-0.2279166728258133,-0.012530935928225517,29.93169593811035,-9.412532806396484,39.91278839111328,0
415,4150010,-0.06998707354068756,0.05169914662837982,-1.0048937797546387,0.30316677689552307,0.7123138308525085,0.41560718417167664,29.615262985229492,-10.91651725769043,38.98024368286133,0
416,4160057,0.05998891219496727,-0.051805347204208374,-0.9864435195922852,1.2331311702728271,-0.7186022400856018,0.08909552544355392,30.698863983154297,-9.319901466369629,40.381629943847656,0
417,4170015,0.019999586045742035,-0.0649363100528717,-1.014817714691162,0.3570059835910797,-0.30692243576049805,0.6560537815093994,29.809612274169922,-10.874056816101074,40.58997344970703,0
418,4180119,-0.014721591956913471,0.026723826304078102,-0.9878792762756348,-0.10120387375354767,0.2722305953502655,0.6980162858963013,30.365612030029297,-9.357742309570312,39.957820892333984,0
419,4190038,-0.03587508946657181,-0.0004650670744013041,-0.9642149209976196,-0.11779344826936722,-0.24822299182415009,0.34314167499542236,31.321895599365234,-9.052717208862305,40.8663444519043,0
420,4200214,-0.0016458557220175862,-0.04271915555000305,-1.0199756622314453,0.05057292804121971,1.391025424003601,0.08754545450210571,30.556978225708008,-8.31356430053711,40.816062927246094,0
421,4209849,-0.048494212329387665,0.0011024990817531943,-0.9995373487472534,0.8483129739761353,-0.334469735622406,-0.03925925865769386,31.199542999267578,-11.788152694702148,38.82635498046875,0
422,4219823,-0.018628384917974472,0.0029306961223483086,-1.00125253200531,-0.400588721036911,-0.6786566376686096,-0.17368412017822266,31.973060607910156,-9.322040557861328,39.11351776123047,0
423,4229786,-0.08326096832752228,-0.014088557101786137,-1.0050957202911377,-1.2611943483352661,0.07721032947301865,-0.6225463151931763,30.067157745361328,-9.039051055908203,40.34737777709961,0
424,4239924,-0.04310007020831108,0.007879971526563168,-1.0237035751342773,-0.020957546308636665,-0.5180625915527344,-0.6889193058013916,30.273395538330078,-9.107032775878906,39.1383056640625,0
425,4250116,-0.04169831797480583,0.03783775120973587,-0.991895854473114,0.004690267611294985,-0.4043694734573364,-0.4758414030075073,29.452722549438477,-9.735936164855957,38.10850143432617,0
426,4259797,-0.0946093425154686,0.0332944355905056,-0.9897640347480774,0.846932590007782,0.21586227416992188,0.17136052250862122,30.69355583190918,-10.583748817443848,38.55347442626953,0
427,4270251,-0.017020991072058678,0.033508047461509705,-0.9920399785041809,-0.48644450306892395,-0.13707350194454193,0.21806418895721436,30.361644744873047,-9.83416748046875,39.37837219238281,0
428,4279868,0.05557822063565254,-0.04017576575279236,-1.0263595581054688,0.06421242654323578,0.7793897390365601,-0.053955163806676865,30.359800338745117,-9.350440979003906,40.843833923339844,0
429,4290084,-0.005389010068029165,0.006794699467718601,-1.0067027807235718,0.45086392760276794,0.2610377371311188,-0.01900063082575798,30.56640625,-10.825017929077148,40.08151626586914,0
430,4299926,0.001999771222472191,-0.06930946558713913,-0.985187828540802,-0.3141557276248932,0.35442355275154114,-0.030360935255885124,29.004783630371094,-9.315857887268066,39.609134674072266,0
431,4309993,-0.06033492833375931,0.09301827847957611,-0.9655008912086487,-0.5634469985961914,0.5431903600692749,0.14340129494667053,29.552995681762695,-9.296249389648438,38.47479248046875,0
432,4320210,0.05791196599602699,-0.07451258599758148,-0.9914384484291077,0.13098253309726715,-0.27812856435775757,-0.15925166010856628,31.816173553466797,-10.077018737792969,40.19996643066406,0
433,4330000,-0.019503364339470863,-0.055990979075431824,-0.9944815635681152,-0.04295486956834793,-0.8064003586769104,0.33880752325057983,30.39627456665039,-9.926126480102539,40.638790130615234,0
434,4339961,-0.009261847473680973,-0.07199839502573013,-1.033993124961853,-0.6996361613273621,-0.09411560744047165,0.25100576877593994,29.743627548217773,-11.664345741271973,38.291351318359375,0
435,4349948,0.05458066239953041,0.0013313698582351208,-0.9830034375190735,-0.1851166933774948,-0.007208773400634527,-0.11855866760015488,30.68882942199707,-8.003206253051758,40.442176818847656,0
436,4359968,0.005660641007125378,-0.020237630233168602,-1.03174889087677,-0.8209455609321594,0.360226571559906,0.3924048840999603,29.6844482421875,-10.861379623413086,40.94233322143555,0
437,4369921,0.04097028449177742,0.06146471947431564,-0.9839426279067993,0.321429967880249,0.5519805550575256,0.7234591841697693,30.126123428344727,-11.249198913574219,40.30823516845703,0
438,4379860,-0.053069401532411575,0.029568970203399658,-0.9846067428588867,-0.05484006553888321,-0.4160516858100891,-0.560675323009491,28.96908187866211,-9.030203819274902,40.204078674316406,0
439,4390019,0.03546688333153725,0.014851348474621773,-1.033720850944519,-0.2886127233505249,0.9363845586776733,-0.08727439492940903,29.727691650390625,-9.956459045410156,40.460445404052734,0
440,4399980,0.02896338328719139,0.04813460260629654,-1.0070730447769165,-0.25785914063453674,-0.29330337047576904,-0.32501211762428284,30.085832595825195,-10.686488151550293,41.99100112915039,0
441,4410001,0.0852339118719101,-0.024285713210701942,-0.9758935570716858,1.6492677927017212,-1.160364031791687,-0.10323777794837952,31.19377326965332,-9.722837448120117,41.534000396728516,0
442,4420199,0.07682076096534729,-0.0057476176880300045,-0.9741581678390503,0.2633897662162781,-0.4796971082687378,0.45123547315597534,28.947683334350586,-9.240473747253418,39.93598175048828,0
443,4430010,-0.049035776406526566,-0.008835486136376858,-1.0426281690597534,-0.766252875328064,0.29698804020881653,-0.5897204875946045,30.436817169189453,-8.86563777923584,40.259544372558594,0
444,4439980,0.05233537033200264,0.000724160810932517,-1.014083743095398,-0.8321456909179688,-0.2690565884113312,1.255048394203186,31.141454696655273,-10.303335189819336,41.47063446044922,0
445,4449950,-0.008341853506863117,0.026995889842510223,-1.005545735359192,0.583797812461853,0.029142701998353004,-0.042853888124227524,28.834850311279297,-9.900073051452637,40.78022003173828,0
446,4460117,-0.07441101968288422,0.01653916947543621,-1.0332633256912231,0.23520858585834503,0.07142321020364761,-0.00626943726092577,31.7078800201416,-8.144655227661133,38.87363815307617,0
447,4470054,-0.026543615385890007,0.025227269157767296,-0.9331459999084473,0.07056309282779694,-0.09501367807388306,0.9876675605773926,30.347536087036133,-7.400180816650391,40.87000274658203,0
448,4480170,-0.03260031342506409,0.13614638149738312,-0.9794566035270691,0.38780659437179565,0.07558166980743408,0.24549494683742523,31.730642318725586,-11.202033042907715,39.721248626708984,0
449,4489966,0.01684798114001751,0.012360826134681702,-0.9935367107391357,-0.22059494256973267,0.66888427734375,0.6215309500694275,27.323543548583984,-9.343667984008789,38.36112976074219,0
450,4500045,0.005923309829086065,0.010356695391237736,-0.9909255504608154,-0.3310706317424774,0.2270137220621109,1.0899658203125,31.3220157623291,-11.206869125366211,39.2463264465332,0
451,4510004,0.006784541066735983,-0.019437938928604126,-1.0219858884811401,0.7433111071586609,0.25044652819633484,0.1263289749622345,30.526735305786133,-10.325960159301758,41.38845443725586,0
452,4519932,0.015485021285712719,-0.028478678315877914,-1.0043977499008179,-0.25992095470428467,-0.7223849892616272,0.22843393683433533,30.990522384643555,-9.828128814697266,40.2194709777832,0
453,4529764,-0.05515769496560097,0.05343030020594597,-1.01301908493042,-0.7257797718048096,0.6245390772819519,0.904694676399231,29.29743766784668,-10.533392906188965,39.65587615966797,0
454,4540056,0.01689942367374897,-0.06869731098413467,-1.003207802772522,0.07712999731302261,0.4048825204372406,-0.38715630769729614,31.613372802734375,-7.977298259735107,39.473487854003906,0
455,4550073,0.03963102400302887,-0.017742745578289032,-1.016945481300354,0.017058663070201874,0.16486746072769165,-0.7077479958534241,29.27645492553711,-11.261577606201172,39.120628356933594,0
456,4560093,-0.048053231090307236,0.0143468352034688,-1.003218412399292,0.47654369473457336,0.26047390699386597,-0.08639540523290634,31.678056716918945,-10.399056434631348,40.47867202758789,0
457,4570191,-0.04491414502263069,-0.08438048511743546,-1.0301430225372314,0.18623222410678864,-0.3712175488471985,0.6651141047477722,28.21012306213379,-10.079005241394043,39.405860900878906,0
458,4579867,0.050426118075847626,-0.0071002766489982605,-0.9958824515342712,-0.7249709367752075,-0.3286016285419464,-0.8447731137275696,30.665210723876953,-11.250836372375488,39.73653030395508,0
459,4590056,-0.01768563687801361,0.03694136068224907,-0.9887493848800659,0.2155277132987976,-0.10360642522573471,0.2894322872161865,29.656509399414062,-8.341856956481934,38.83174133300781,0
460,4600224,-0.0009982597548514605,0.01727749966084957,-1.031231164932251,-0.6918341517448425,0.14319433271884918,0.055972982197999954,30.285913467407227,-10.669903755187988,39.24711990356445,0
461,4609952,0.021655702963471413,0.03406369686126709,-1.0060635805130005,-1.0539621114730835,-0.26755788922309875,-0.3813268542289734,28.83811378479004,-11.951608657836914,39.61782455444336,0
462,4620010,0.03113802708685398,0.05530158057808876,-1.0174411535263062,-0.5561015605926514,-0.5524923205375671,-0.5239366888999939,29.73158836364746,-10.173853874206543,40.41622543334961,0
463,4630109,0.004886346869170666,0.030006196349859238,-0.9631761312484741,-0.307961106300354,0.45859208703041077,0.5665656924247742,27.61727523803711,-10.49642562866211,40.03141403198242,0
464,4639945,-0.0671737939119339,0.0006910216761752963,-0.9978725910186768,-0.11768270283937454,-0.6617702841758728,1.0160044431686401,28.846176147460938,-8.904685974121094,39.44704055786133,0
465,4649971,0.05988675728440285,0.009624793194234371,-0.9850372672080994,-0.17771613597869873,0.3891235589981079,0.62070232629776,31.296321868896484,-11.141895294189453,39.25074005126953,0
466,4660007,0.06624390184879303,-0.00044930080184713006,-0.9804070591926575,0.783214807510376,0.40659865736961365,0.6940447688102722,30.05530548095703,-8.25747299194336,40.95624542236328,0
467,4670050,0.010947400704026222,0.06669074296951294,-0.9926638603210449,0.18565678596496582,-0.3343508839607239,1.2199738025665283,30.64286994934082,-9.881677627563477,41.570457458496094,0
468,4680298,-0.011794961988925934,-0.03652689978480339,-0.9921722412109375,0.1704573631286621,-0.03296636790037155,0.023387862369418144,30.284650802612305,-9.422001838684082,40.621089935302734,0
469,4690017,-0.02111576870083809,0.015191272832453251,-1.0336732864379883,-0.033907681703567505,-0.4035307466983795,0.7261867523193359,31.10468864440918,-9.641671180725098,41.88669204711914,0
470,4700131,-0.04946205019950867,0.02758057601749897,-1.0086029767990112,-1.5627249479293823,-0.06083577126264572,-0.5156394839286804,30.30270767211914,-10.608951568603516,41.3094482421875,0
471,4710113,0.02793099172413349,0.068067267537117,-1.0161628723144531,0.12190650403499603,-0.18949005007743835,-0.0655699148774147,29.431272506713867,-9.337709426879883,40.8214111328125,0
472,4720206,-0.0030774015467613935,-0.02059945836663246,-1.0270373821258545,0.23102721571922302,-0.6912224292755127,0.2920626997947693,30.89647674560547,-9.523929595947266,40.75779342651367,0
473,4729919,-0.0036695091985166073,0.009539195336401463,-0.955268919467926,-0.8049604296684265,0.7149209976196289,0.19220978021621704,28.290569305419922,-8.399298667907715,38.340518951416016,0
474,4740020,-0.01656278781592846,0.015088872984051704,-1.0085022449493408,0.4235219955444336,-1.091469645500183,0.016255881637334824,29.098987579345703,-9.899405479431152,41.210941314697266,0
475,4749868,-0.01970527321100235,-0.02653077431023121,-0.9729554653167725,-0.38461872935295105,-0.1352609246969223,-0.7068589925765991,30.165983200073242,-11.046743392944336,40.89374542236328,0
476,4759523,-0.007416853215545416,0.10139638185501099,-1.005048394203186,0.29171115159988403,0.09083709120750427,0.639009952545166,31.057218551635742,-10.706077575683594,39.792457580566406,0
477,4770214,0.04029785841703415,-0.012921935878694057,-1.004956841468811,0.2577454149723053,-0.6770550608634949,-1.068017601966858,29.400745391845703,-11.034565925598145,40.80527114868164,0
478,4780504,-0.0605531707406044,-0.01952684298157692,-0.9833321571350098,0.0592896044254303,0.07196250557899475,-0.6454513072967529,30.564857482910156,-9.363161087036133,40.07574462890625,0
479,4789897,0.07381397485733032,0.009982573799788952,-1.002784013748169,0.5194549560546875,-0.10028094798326492,-0.09796566516160965,30.141508102416992,-8.117189407348633,39.21232604980469,0
480,4799989,-0.02630045637488365,0.03480743616819382,-0.9869825839996338,-0.15944154560565948,-0.25107306241989136,-0.2640123963356018,30.268632888793945,-10.549705505371094,40.43482208251953,0
481,4810160,-0.018441487103700638,-0.013606193475425243,-1.0361156463623047,0.26137834787368774,0.3754329979419708,-0.32823604345321655,28.566133499145508,-10.444231033325195,40.4610595703125,0
482,4819967,0.035559434443712234,0.04077090695500374,-1.05196213722229,0.36321407556533813,0.014245066791772842,-0.22315101325511932,29.077762603759766,-11.010614395141602,38.32795715332031,0
483,4829847,-0.0317181758582592,0.011433818377554417,-0.9951943159103394,-0.24551922082901,-0.549412190914154,0.2723621129989624,30.469289779663086,-9.81202507019043,41.65201187133789,0
484,4840169,0.03362804651260376,0.0634446069598198,-1.022161841392517,-0.22457373142242432,0.13459819555282593,-0.1182311549782753,30.365644454956055,-10.8837251663208,40.51253890991211,0
485,4849834,-0.05746496468782425,-0.07949373871088028,-1.0056618452072144,-0.279778391122818,0.024788012728095055,-0.37425434589385986,28.877708435058594,-9.560717582702637,39.974769592285156,0
486,4860081,-0.03555803745985031,0.005922685842961073,-1.0185939073562622,0.21225127577781677,-0.2454669177532196,0.015097247436642647,30.383691787719727,-10.950601577758789,40.27107238769531,0
487,4870021,-0.03566141426563263,-0.07423492521047592,-1.0290603637695312,-0.2295403927564621,0.3526367247104645,0.3109947741031647,28.88784408569336,-10.167854309082031,40.74485778808594,0
488,4879726,-0.0024846908636391163,-0.022479025647044182,-1.0322084426879883,0.08011258393526077,0.0803828239440918,-0.3896874785423279,30.09583282470703,-8.811726570129395,39.82132339477539,0
489,4889963,0.014516819268465042,0.017317844554781914,-0.9781522154808044,0.7902020812034607,-0.21241891384124756,-0.26959386467933655,29.97638702392578,-8.969260215759277,40.875457763671875,0
490,4900084,-0.010681482031941414,0.03096114844083786,-0.9854030609130859,0.4889463484287262,-0.23591002821922302,-0.19482865929603577,30.43519401550293,-10.003006935119629,39.323890686035156,0
491,4910119,-0.033604856580495834,-0.06063372641801834,-1.0052211284637451,-0.14320771396160126,-0.7959026098251343,0.3172265291213989,29.823633193969727,-9.996729850769043,39.57299041748047,0
492,4919988,-0.046888966113328934,0.0167713463306427,-0.993955671787262,-0.047758642584085464,0.5041615962982178,0.18871735036373138,29.10059356689453,-9.871658325195312,39.15349197387695,0
493,4930320,0.03421948105096817,-0.026329336687922478,-0.991694986820221,0.5661106109619141,-0.6004345417022705,-0.8631239533424377,30.50315284729004,-7.692715167999268,40.03268051147461,0
494,4939878,-0.06012589856982231,0.10316730290651321,-0.9755683541297913,-0.3978256285190582,0.5688585638999939,-0.6629648208618164,29.426301956176758,-9.959064483642578,41.17095184326172,0
495,4949876,0.013311583548784256,-0.03670656308531761,-0.9806811213493347,-0.02239144593477249,-0.6517941951751709,-0.8224839568138123,30.015193939208984,-8.693979263305664,41.21626663208008,0
496,4959968,-0.003559767035767436,-0.07658272236585617,-1.0148321390151978,-0.12720656394958496,-0.26637089252471924,-0.9962891340255737,30.93576431274414,-9.565460205078125,39.16905212402344,0
497,4970023,0.046604983508586884,0.05923692137002945,-0.9738871455192566,0.04574806988239288,-0.12588860094547272,-0.5382447838783264,28.786714553833008,-12.03523063659668,40.54126739501953,0
498,4979799,0.01852402277290821,0.058562275022268295,-1.0040985345840454,-1.110749363899231,0.20142272114753723,-0.45019280910491943,29.939640045166016,-10.02066707611084,38.971012115478516,0
499,4989897,0.011924066580832005,-0.08635589480400085,-1.0082871913909912,-0.039134688675403595,0.30118390917778015,-0.19739258289337158,29.765745162963867,-8.903759956359863,37.97627258300781,0
500,5000245,-0.00663265585899353,-0.09329131245613098,-0.9849937558174133,0.5736575126647949,-0.15048004686832428,-0.9343265891075134,29.55068016052246,-8.771674156188965,38.55744171142578,0
501,5010048,0.09450385719537735,-0.008287106640636921,-0.9862886071205139,0.5428157448768616,0.2424727827310562,-0.32765263319015503,30.728694915771484,-12.15985107421875,40.02122116088867,0
502,5019891,-0.048497479408979416,-0.03543121740221977,-0.9781163334846497,0.32733288407325745,0.17114216089248657,-0.06656123697757721,29.301713943481445,-10.772322654724121,39.401729583740234,0
503,5029776,0.023233195766806602,0.015302575193345547,-1.0107221603393555,-0.2960543632507324,0.24844343960285187,-0.1775985062122345,30.01870346069336,-10.149962425231934,41.830291748046875,0
504,5039849,-0.03228338062763214,0.06306438893079758,-1.0051789283752441,0.47090592980384827,0.8172705769538879,-0.04848460108041763,30.021066665649414,-9.493950843811035,41.000587463378906,0
505,5049934,-0.08402789384126663,-0.11211638152599335,-0.9821290969848633,0.8985390663146973,-0.32366499304771423,-0.1152462363243103,30.472108840942383,-9.676909446716309,39.38650894165039,0
506,5060152,-0.06876331567764282,-0.011439124122262001,-1.0029714107513428,-0.356352835893631,0.10423766076564789,0.39122888445854187,30.145675659179688,-9.711565971374512,38.91923904418945,0
507,5069960,0.010959217324852943,0.023255635052919388,-0.9718659520149231,1.056064248085022,0.8016148805618286,0.6895692348480225,27.76091957092285,-12.034560203552246,39.59846496582031,0
508,5080080,0.006901831366121769,0.023314662277698517,-1.0084083080291748,0.6936344504356384,-0.12560200691223145,-0.28472229838371277,28.43093490600586,-10.88585376739502,41.150169372558594,0
509,5089982,0.04158351942896843,0.033863190561532974,-0.9749271869659424,-0.006106627639383078,0.33770203590393066,0.25311365723609924,31.160869598388672,-9.912740707397461,39.95854568481445,0
510,5099957,-0.021743783727288246,0.03436087816953659,-1.023984432220459,0.3480567932128906,-0.024684442207217216,0.5177700519561768,28.465614318847656,-11.396178245544434,39.504661560058594,0
511,5110009,0.00015258113853633404,-0.02724449150264263,-1.0305228233337402,0.16280734539031982,-0.2200707644224167,-0.523804247379303,30.094865798950195,-11.716191291809082,39.21259307861328,0
512,5119989,0.09194021672010422,0.006943350192159414,-0.9906527996063232,-0.3049357533454895,0.04118429124355316,0.6083937883377075,28.642704010009766,-12.582103729248047,39.315185546875,0
513,5129890,0.0011235777055844665,-0.009003661572933197,-1.0087504386901855,0.4968681037425995,0.13600274920463562,-0.1880667507648468,27.160972595214844,-11.308889389038086,40.157466888427734,0
514,5140069,0.03664282709360123,-0.041845373809337616,-0.9954336881637573,0.20317378640174866,-0.29558297991752625,-0.09316214174032211,29.34295082092285,-10.397566795349121,40.14777374267578,0
515,5149906,0.029467590153217316,-0.01897558942437172,-0.9986139535903931,0.35552361607551575,-0.6637663245201111,-0.5319916605949402,31.469085693359375,-9.124674797058105,40.218814849853516,0
516,5160136,-0.061888910830020905,0.05374015122652054,-0.9895713329315186,1.3265432119369507,-1.174208402633667,0.6846055388450623,30.007951736450195,-9.652584075927734,39.089317321777344,0
517,5169946,-0.00688784196972847,0.04872073605656624,-1.0244842767715454,0.8409814834594727,-0.5671361088752747,0.8740924596786499,28.06006622314453,-8.665398597717285,38.260128021240234,0
518,5180045,-0.03814961016178131,-0.07489406317472458,-1.0148366689682007,0.21080948412418365,-0.09932348132133484,-0.45133310556411743,29.30709457397461,-9.9946928024292,40.76012420654297,0
519,5189858,-0.05244701728224754,-0.019692974165081978,-1.0188935995101929,0.0226943027228117,-1.0207020044326782,1.0254541635513306,30.594898223876953,-11.227375984191895,40.108436584472656,0
520,5199966,-0.04679860547184944,0.02928076684474945,-1.0145705938339233,-0.01789691485464573,0.06004934757947922,0.24782072007656097,30.860366821289062,-10.491901397705078,40.918880462646484,0
521,5209910,0.04997687041759491,0.034422263503074646,-0.9540892243385315,0.12973514199256897,-0.07858860492706299,0.7885247468948364,30.668800354003906,-9.664658546447754,38.632625579833984,0
522,5220100,0.04876067489385605,0.05039931833744049,-0.9695624709129333,-0.5517985224723816,0.5357998013496399,0.2360222190618515,28.846288681030273,-10.038799285888672,39.759281158447266,0
523,5229955,-0.05660350248217583,-0.0171003807336092,-0.9922131896018982,0.4647930860519409,-0.3831421732902527,0.9407405257225037,30.006343841552734,-13.117159843444824,38.847530364990234,0
524,5240229,0.026403650641441345,-0.03725988045334816,-0.9914442300796509,0.6855476498603821,0.4558556377887726,0.29325011372566223,29.78402328491211,-9.473068237304688,40.10034942626953,0
525,5250157,0.03390893340110779,0.09855488687753677,-0.9909717440605164,0.03743218258023262,-0.2278226912021637,-0.36596226692199707,29.38482093811035,-11.44861125946045,38.958824157714844,0
526,5259986,-0.0255910474807024,-0.02235190011560917,-0.9891079664230347,0.04237687215209007,-0.21620939671993256,-0.44518259167671204,29.91353416442871,-9.045934677124023,38.69584274291992,0
527,5270074,0.052702851593494415,-0.0021280336659401655,-1.0113288164138794,0.3689596354961395,-0.9170551896095276,0.714938759803772,30.872272491455078,-10.177539825439453,40.31543731689453,0
528,5280260,0.009063460864126682,-0.034281376749277115,-1.0046439170837402,-0.8613445162773132,-0.03257795050740242,-0.026313811540603638,29.34654426574707,-9.070859909057617,39.686439514160156,0
529,5289761,-0.10264197736978531,0.01852993853390217,-0.9867128729820251,0.8695615530014038,-0.1281174272298813,0.4722420573234558,30.89651870727539,-10.420066833496094,40.60356903076172,0
530,5299933,-0.06598009169101715,0.08750864863395691,-0.9916068911552429,0.3244304955005646,0.16607633233070374,0.4720887541770935,29.74431800842285,-10.450582504272461,39.22248840332031,0
531,5309673,-0.07353898137807846,0.023037856444716454,-0.988364040851593,0.8972691893577576,-0.061520688235759735,-0.6888293027877808,29.864105224609375,-9.996404647827148,40.55596160888672,0
532,5319911,-0.04354102164506912,0.060531679540872574,-0.9914624094963074,-0.070275217294693,0.14510853588581085,0.2920129895210266,29.973064422607422,-10.60620403289795,38.83936309814453,0
533,5330134,0.0032335498835891485,-0.022923048585653305,-1.0104457139968872,-0.12721194326877594,0.03079844079911709,-0.04330858215689659,29.377349853515625,-9.375414848327637,42.54975891113281,0
534,5339892,0.016819745302200317,-0.04674936830997467,-1.0159345865249634,0.7183598875999451,-0.37766945362091064,0.300666481256485,29.390625,-10.941187858581543,39.3267936706543,0
535,5349831,-0.04483691602945328,0.027066633105278015,-0.9736670851707458,0.1296122819185257,-0.6457273960113525,0.791554868221283,30.479726791381836,-10.53420352935791,40.151187896728516,0
536,5359683,-0.00428604893386364,0.00511612044647336,-1.0063345432281494,-0.5185427069664001,0.5719660520553589,0.15209755301475525,30.377199172973633,-8.269746780395508,39.50376510620117,0
537,5370161,0.017426511272788048,0.027868147939443588,-1.0134520530700684,-0.38362008333206177,0.8482003211975098,0.6461628079414368,30.660078048706055,-10.39412784576416,39.351966857910156,0
538,5379731,-0.022463897243142128,-0.10038015991449356,-0.9996827840805054,0.27755850553512573,-0.43287861347198486,-0.6275770664215088,28.898162841796875,-10.421687126159668,38.62091064453125,0
539,5389814,0.02569006197154522,-0.005697670392692089,-0.9861872792243958,0.5696365833282471,0.25009045004844666,0.15324749052524567,30.19069480895996,-11.206256866455078,39.905982971191406,0
540,5399898,0.003195851342752576,0.0019246411975473166,-1.0214018821716309,-0.38731253147125244,-0.35415419936180115,0.44549551606178284,29.808706283569336,-10.866914749145508,39.89455795288086,0
541,5410000,-0.026942918077111244,0.16113345324993134,-1.014521598815918,-0.09837190061807632,-1.5026915073394775,-1.1226824522018433,29.473628997802734,-8.453986167907715,39.16992950439453,0
542,5420279,0.05579676479101181,-0.03679799288511276,-1.0062837600708008,0.7592530250549316,0.20714125037193298,-0.07354701310396194,28.633039474487305,-8.06764030456543,41.46657180786133,0
543,5430086,0.10949264466762543,0.045684006065130234,-0.9985098838806152,0.6651012301445007,0.007567060645669699,-0.21159210801124573,30.37737464904785,-11.421934127807617,40.744544982910156,0
544,5440108,0.0965990200638771,-0.053459666669368744,-1.017635703086853,-0.42466241121292114,-0.07013372331857681,-0.8335309028625488,28.296955108642578,-11.345817565917969,41.93831253051758,0
545,5449943,-0.07025369256734848,-0.029681866988539696,-0.9917803406715393,0.0381927527487278,0.07153487205505371,-0.17736035585403442,29.16429901123047,-9.33516788482666,40.00520706176758,0
546,5460207,0.01824842393398285,0.029977921396493912,-1.026997447013855,0.3356013596057892,-0.18765859305858612,-0.20710119605064392,30.0788516998291,-11.603604316711426,38.86359405517578,0
547,5469998,-0.02078532613813877,0.0525231659412384,-0.9997986555099487,0.08956623822450638,0.7183965444564819,-0.5072042942047119,28.580564498901367,-10.037026405334473,40.23041915893555,0
548,5479724,0.00572601892054081,-0.008754389360547066,-1.0543169975280762,-0.7693154811859131,0.40391525626182556,-0.5549258589744568,29.813316345214844,-10.035000801086426,40.071533203125,0
549,5489658,-0.06442734599113464,0.03367311507463455,-1.0001168251037598,0.1529913693666458,-0.21686553955078125,0.020090017467737198,30.399417877197266,-10.32789421081543,39.729042053222656,0
550,5500047,-0.0346260629594326,-0.03338151052594185,-1.0132540464401245,0.11804909259080887,-0.21695195138454437,-0.15958870947360992,31.126224517822266,-9.546579360961914,40.056304931640625,0
551,5510149,0.05578571930527687,0.016552288085222244,-0.9921541213989258,0.0419674888253212,0.1613827794790268,-0.02314598485827446,27.49373435974121,-10.107866287231445,39.955657958984375,0
552,5519807,0.042656492441892624,-0.011370874010026455,-1.0228023529052734,0.5034014582633972,-0.6267135739326477,0.14134536683559418,30.851943969726562,-10.118083000183105,38.59579849243164,0
553,5530057,-0.016159942373633385,-0.010205087251961231,-1.0160704851150513,-0.5114953517913818,-0.10283982753753662,0.9359928965568542,30.57259750366211,-10.858063697814941,38.40852737426758,0
554,5540116,0.00870218314230442,-0.03128555044531822,-1.006177306175232,-0.2613242268562317,-0.0689789205789566,-0.07115346193313599,30.440780639648438,-10.126730918884277,40.02143859863281,0
555,5550120,0.0924898087978363,0.051273148506879807,-0.999718427658081,-0.19361726939678192,0.4454960823059082,-0.3518705666065216,29.406156539916992,-8.241196632385254,38.71818923950195,0
556,5559878,-0.03735518828034401,-0.038225479423999786,-1.009671688079834,0.14956003427505493,0.4151957035064697,0.6176692843437195,29.15329360961914,-8.71810531616211,41.51304244995117,0
557,5570230,-0.002414243994280696,0.008831006474792957,-1.0242767333984375,0.8805387020111084,-1.0715099573135376,0.4755842685699463,28.810890197753906,-11.310159683227539,40.08629608154297,0
558,5580086,-0.09264934062957764,-0.0944567322731018,-1.0185391902923584,0.40869149565696716,0.32615044713020325,-0.3688986897468567,29.70380401611328,-9.926515579223633,40.18425369262695,0
559,5589852,0.022839423269033432,-0.021028852090239525,-1.030855655670166,0.26400092244148254,-1.7760850191116333,-0.17386844754219055,31.453617095947266,-9.820137977600098,39.10845947265625,0
560,5599784,-0.02011026069521904,0.011503695510327816,-1.0010504722595215,-0.4100552201271057,-0.48132818937301636,-0.3421289920806885,31.48792839050293,-9.063300132751465,41.38783264160156,0
561,5610181,0.055953945964574814,-0.009175616316497326,-0.9959956407546997,-0.055447570979595184,0.2500009834766388,-0.09923605620861053,30.64893341064453,-9.529111862182617,39.352027893066406,0
562,5619853,-0.06452053785324097,-0.03780839219689369,-1.0242860317230225,-0.264428973197937,-0.6659929156303406,-0.5210606455802917,30.160913467407227,-11.389963150024414,41.1103630065918,0
563,5629912,0.013096479699015617,-0.028727851808071136,-1.000019907951355,0.001014025998301804,-0.08475885540246964,-0.6044240593910217,30.314823150634766,-9.799271583557129,39.84783172607422,0
564,5639994,0.06027901545166969,-0.062098078429698944,-1.0040961503982544,0.45633959770202637,1.1038429737091064,-0.6123152375221252,29.21737289428711,-11.117437362670898,40.199188232421875,0
565,5650173,-0.04653385654091835,0.013084297999739647,-0.9771941304206848,0.1410435140132904,0.3912512958049774,-0.05960865318775177,28.33958625793457,-10.575913429260254,41.021881103515625,0
566,5659885,-0.01861254870891571,0.05134018138051033,-0.9917130470275879,-0.224055215716362,-0.22117313742637634,-0.016529817134141922,29.859600067138672,-10.964567184448242,40.693450927734375,0
567,5670044,0.012424003332853317,0.013227222487330437,-0.9898146390914917,0.005492737051099539,-0.4172832667827606,-0.10955706983804703,29.79840660095215,-10.655963897705078,40.526798248291016,0
568,5680098,0.0034386245533823967,0.02232380397617817,-1.0011621713638306,-1.218295931816101,0.3664506673812866,0.12364775687456131,28.7182559967041,-10.406982421875,40.314918518066406,0
569,5689990,0.037863876670598984,0.059168741106987,-0.9994268417358398,-0.1474316120147705,-0.4466762840747833,0.41496187448501587,30.939329147338867,-8.941380500793457,41.993526458740234,0
570,5700051,-0.02278158813714981,0.06666465103626251,-1.0018608570098877,0.2074904590845108,-0.37780019640922546,0.8048070073127747,29.56494903564453,-10.912006378173828,40.70610046386719,0
571,5710285,-0.011761698871850967,0.010755986906588078,-0.9955047965049744,-0.2508944272994995,-0.32412803173065186,-0.3625064194202423,30.37328338623047,-9.905891418457031,39.80276870727539,0
572,5719889,-0.03840111196041107,-0.035847008228302,-0.9861125349998474,0.20245325565338135,0.20522350072860718,-0.37949779629707336,28.400005340576172,-10.745463371276855,39.83644485473633,0
573,5730145,-0.0895606204867363,0.021728962659835815,-0.9534481763839722,-0.5715727210044861,-0.3780343234539032,0.47401800751686096,29.734294891357422,-9.244211196899414,39.72723388671875,0
574,5740014,0.021174218505620956,-0.02892659790813923,-0.9701632857322693,0.2817988097667694,1.013927936553955,-0.9560177326202393,29.404970169067383,-10.903589248657227,39.84873580932617,0
575,5750049,-0.0476214736700058,-0.03633340820670128,-0.9682223200798035,1.3289844989776611,0.25451797246932983,0.5936300754547119,29.079912185668945,-11.147038459777832,38.0519905090332,0
576,5760079,0.018781984224915504,-0.03903518244624138,-0.9930509924888611,-0.5228115320205688,0.32292652130126953,0.4251948595046997,31.884693145751953,-9.156702041625977,40.168460845947266,0
577,5770219,0.04087298735976219,-0.04580216109752655,-1.004689335823059,-0.9286952018737793,0.06750693917274475,-0.17644476890563965,31.517662048339844,-12.927277565002441,38.940284729003906,0
578,5780083,0.0002751029678620398,0.021618757396936417,-1.005807876586914,-0.805246889591217,0.7000836730003357,-0.10177409648895264,29.496505737304688,-11.953059196472168,40.6383056640625,0
579,5790005,-0.04473530501127243,-0.02832218073308468,-0.9870885014533997,-0.20777562260627747,0.19022037088871002,-0.09752441197633743,28.86387062072754,-10.621567726135254,40.16116714477539,0
580,5800006,0.02219853550195694,0.011446732096374035,-0.9886514544487,0.1850007325410843,0.33567214012145996,-1.2571061849594116,31.487640380859375,-7.5908002853393555,41.54704666137695,0
581,5809856,0.01146284956485033,0.02581055648624897,-1.0206440687179565,-0.15259720385074615,0.7016139626502991,0.6981451511383057,29.96500587463379,-9.420111656188965,38.976654052734375,0
582,5819541,-0.01584872044622898,-0.018293067812919617,-0.9814721345901489,-0.41025349497795105,-0.4390075206756592,0.251605361700058,31.03934669494629,-11.38512134552002,40.81200408935547,0
583,5830255,-0.03893838822841644,0.051910627633333206,-0.9806097149848938,0.29515540599823,-0.7101989984512329,-0.025949589908123016,30.141271591186523,-10.421372413635254,40.11057662963867,0
584,5840142,0.14375200867652893,0.004338480532169342,-1.017101764678955,0.0016309849452227354,-0.36331576108932495,0.5553953647613525,28.57492446899414,-10.165457725524902,40.34364318847656,0
585,5850058,0.025265663862228394,0.014868144877254963,-1.0148460865020752,-0.04363075643777847,-0.45317545533180237,-0.06490353494882584,28.980417251586914,-11.249868392944336,41.326805114746094,0
586,5860125,-0.006384657695889473,0.016697939485311508,-1.0088707208633423,0.5126393437385559,-0.28517308831214905,-0.19277527928352356,30.26011085510254,-8.816763877868652,40.35491943359375,0
587,5870016,0.048400118947029114,-0.002685942454263568,-1.0119638442993164,-0.36632391810417175,-0.6291144490242004,-0.0844794511795044,31.51657485961914,-9.227992057800293,40.52561950683594,0
588,5880351,-0.025767559185624123,-0.03890235349535942,-1.0059446096420288,-0.1140558272600174,-0.2019193172454834,-0.013266711495816708,29.451292037963867,-9.118288040161133,39.75751876831055,0
589,5890074,-0.08545637130737305,-0.007715519983321428,-0.9956899285316467,0.36659830808639526,0.9763665795326233,0.14034277200698853,30.24620819091797,-9.59422779083252,40.22418975830078,0
590,5899726,-0.09360777586698532,-0.1139165610074997,-0.996844470500946,0.409426748752594,-0.050657425075769424,-0.6904267072677612,29.502735137939453,-9.766555786132812,39.535465240478516,0
591,5909842,0.10843755304813385,-0.02265741303563118,-0.9925639033317566,0.017019495368003845,-0.05289693921804428,0.06861694902181625,32.18427276611328,-8.575129508972168,39.46090316772461,0
592,5920020,0.0638386532664299,-0.0892753005027771,-1.0181455612182617,1.4141420125961304,0.5325939655303955,-1.0192503929138184,29.130836486816406,-9.196891784667969,39.27995300292969,0
593,5930126,0.10654640942811966,-0.03889927268028259,-0.9944398999214172,0.47505995631217957,-0.37455692887306213,0.534801185131073,30.618192672729492,-10.844511032104492,40.488121032714844,0
594,5939932,0.04919222742319107,0.03682557865977287,-0.9818047285079956,-0.20751745998859406,0.7034427523612976,-1.0117912292480469,30.464603424072266,-9.335944175720215,39.24269104003906,0
595,5950171,-0.0407855398952961,-0.020929692313075066,-0.9902006983757019,0.36778104305267334,0.8733386993408203,-0.32941508293151855,30.51804542541504,-8.899697303771973,38.76222229003906,0
596,5959779,0.011435378342866898,0.044391658157110214,-0.9794137477874756,-0.7242268919944763,-0.1982601284980774,-0.3311465382575989,30.81267547607422,-9.277108192443848,41.208518981933594,0
597,5969791,-0.042717110365629196,-0.028924843296408653,-1.0011672973632812,-0.021407708525657654,0.16354627907276154,0.18174225091934204,29.181367874145508,-9.204691886901855,40.87916564941406,0
598,5979959,0.04246160387992859,-0.03841410204768181,-1.0073440074920654,-0.5898637175559998,0.08386668562889099,-0.2232670933008194,31.396787643432617,-12.098508834838867,40.23473358154297,0
599,5989916,0.0468534454703331,0.018873507156968117,-1.0121240615844727,-0.40892958641052246,-0.12190258502960205,-1.0061745643615723,30.4287166595459,-9.870125770568848,40.07633590698242,0
600,5999781,-0.02458122931420803,-0.02591097727417946,-1.0300440788269043,-0.2716614007949829,0.06752046942710876,-0.23456436395645142,29.518718719482422,-9.915596008300781,40.06361770629883,0
601,6009974,0.0069506969302892685,0.05785010755062103,-1.02655827999115,0.15672694146633148,0.545876681804657,-0.8235534429550171,29.181121826171875,-11.822978973388672,41.081207275390625,0
602,6020050,0.01765938103199005,-0.034236226230859756,-1.0046652555465698,-0.18178397417068481,0.6223474740982056,-0.42043617367744446,31.443161010742188,-10.986854553222656,39.084354400634766,0
603,6029923,-0.046317026019096375,-0.033742111176252365,-0.9751275777816772,0.10613318532705307,-0.035282254219055176,-1.0626754760742188,30.89009666442871,-9.356640815734863,41.70341873168945,0
604,6039953,-0.07116660475730896,-0.015899261459708214,-1.0008018016815186,-0.4776664972305298,-0.9422423243522644,1.0405495166778564,30.058544158935547,-11.12148666381836,40.33464813232422,0
605,6049919,-0.002141822362318635,0.08962768316268921,-1.0129683017730713,-0.19859856367111206,0.2707937955856323,-0.2252713441848755,28.5400390625,-9.161035537719727,40.222938537597656,0
606,6060171,-0.01878168061375618,-0.0814419835805893,-0.9989811182022095,-0.2861473858356476,-0.0013760648434981704,0.364129900932312,29.2524356842041,-9.928726196289062,39.62164306640625,0
607,6069766,-0.06906113028526306,-0.016080345958471298,-1.0233213901519775,-0.5198419690132141,-0.5545745491981506,-0.09088516235351562,29.93814468383789,-11.181877136230469,41.145896911621094,0
608,6080003,-0.058097898960113525,-0.005534349009394646,-0.990687906742096,0.3532640039920807,0.5886207818984985,-0.2947198748588562,30.0079402923584,-11.19766902923584,41.75623321533203,0
609,6090078,0.014186318032443523,0.011198154650628567,-1.0084866285324097,-0.4597316086292267,-0.1330704391002655,0.6124613881111145,29.42391586303711,-9.598204612731934,40.08513641357422,0
610,6099995,-0.10010859370231628,-0.003166362177580595,-0.9872490167617798,0.8497509360313416,0.004447922110557556,0.2819085419178009,30.8668155670166,-9.190125465393066,41.79146194458008,0
611,6110222,0.01639208197593689,-0.0407971516251564,-1.0526822805404663,0.6314957737922668,0.3229486048221588,0.484992116689682,31.363386154174805,-12.271805763244629,37.13134765625,0
612,6119949,-0.02685159258544445,0.021387876942753792,-0.9745051860809326,-0.011787744238972664,-0.22949017584323883,-0.7724659442901611,30.177642822265625,-9.61484146118164,40.68383026123047,0
613,6129914,0.027043653652071953,0.011503665708005428,-1.0345715284347534,-0.3050954341888428,0.029256176203489304,-0.2922655940055847,32.10378646850586,-11.024616241455078,37.6900749206543,0
614,6140082,-0.010344117879867554,-0.01890326850116253,-0.9678449630737305,-0.3169982135295868,0.5394573211669922,0.6038171052932739,30.71997833251953,-9.96212100982666,39.8491325378418,0
615,6150125,-0.063841313123703,0.03446894511580467,-1.0090855360031128,0.4409957230091095,0.7268087267875671,-0.056965429335832596,30.29129981994629,-9.627135276794434,38.71511459350586,0
616,6159871,-0.008734478615224361,-0.018364647403359413,-0.9959893822669983,-0.5779535174369812,-0.5978745222091675,0.24482867121696472,30.581737518310547,-11.844932556152344,40.377559661865234,0
617,6169870,0.0096394382417202,0.04428770765662193,-1.010425090789795,-0.13454602658748627,-0.39392098784446716,0.43142229318618774,30.539674758911133,-10.926033020019531,40.03829574584961,0
618,6179741,-0.021521463990211487,0.03602210059762001,-0.994128942489624,0.05077487230300903,0.5694916248321533,-0.19512367248535156,30.726200103759766,-8.545087814331055,38.13727569580078,0
619,6189601,0.017955433577299118,-0.001349852653220296,-1.0426210165023804,0.5427092909812927,0.037595026195049286,0.6525865793228149,31.02421760559082,-10.14555549621582,39.09821319580078,0
620,6199847,-0.006050432100892067,0.024381497874855995,-1.0099763870239258,0.3395932912826538,-0.8060145378112793,-0.2534366846084595,30.814271926879883,-11.501298904418945,40.05808639526367,0
621,6210155,-0.04815772548317909,-0.014785648323595524,-0.9933806657791138,-0.4413306415081024,0.005851290188729763,0.38256219029426575,30.0952205657959,-9.892778396606445,39.56395721435547,0
622,6219941,-0.013193365186452866,0.000561447290237993,-1.0287201404571533,0.12474244832992554,0.06609135866165161,0.17277278006076813,30.463239669799805,-8.001241683959961,38.612918853759766,0
623,6230174,-0.029996544122695923,0.033789414912462234,-1.0073477029800415,0.21053682267665863,0.6045151948928833,0.36883431673049927,29.425537109375,-9.00250244140625,39.95048904418945,0
624,6239987,0.0647319033741951,-0.04277268797159195,-0.970654308795929,0.05909273400902748,-0.040212903171777725,0.4005601406097412,28.98126220703125,-10.626585006713867,39.672542572021484,0
625,6250174,-0.06351539492607117,-0.07547842711210251,-1.0284912586212158,-0.12720105051994324,0.5627679824829102,0.7039012908935547,30.77730941772461,-10.429744720458984,39.3536376953125,0
626,6260191,-0.06460805237293243,-0.03424165025353432,-1.0332869291305542,0.07000868767499924,0.9413060545921326,0.7865895628929138,30.41939926147461,-9.405226707458496,41.44924545288086,0
