seq,time_us,ax,ay,az,gx,gy,gz,mx,my,mz,roll_gyro,pitch_gyro,yaw_gyro,roll_cf,pitch_cf,yaw_cf,roll_ekf,pitch_ekf,yaw_ekf,roll_madgwick,pitch_madgwick,yaw_madgwick,roll_mahony,pitch_mahony,yaw_mahony,drop_flag
1,12000,0.0182,-0.0237,9.8927,-0.2512,-0.1492,-0.0433,28.8654,-9.6489,41.8612,-0.8787,-0.5992,0.9902,-1.172,-0.5599,-1.4395,-0.2666,0.8091,-1.404,0.5393,1.1353,-2.0408,0.1507,2.184,-0.7781,0
2,23000,-0.2117,-0.153,9.8368,0.3387,-0.1573,-0.0242,28.6006,-9.8184,40.378,-0.6469,-0.3918,2.2934,0.1413,0.863,-0.0849,-0.6684,-0.5115,-0.6128,-0.5659,0.371,-1.6642,-0.4279,-0.384,-0.7491,0
3,34000,0.0419,0.2115,9.8571,0.8253,0.5691,-0.0691,32.5802,-11.3656,40.6922,0.7238,-0.167,-0.5189,-0.6544,-0.1678,-1.3633,-0.4725,-0.506,2.1115,0.0715,-0.0947,-1.9032,0.6575,1.2756,-0.06,0
4,44000,-0.0165,-0.0176,9.8474,-0.2489,-0.4079,-0.2065,29.4783,-9.4851,41.6198,-1.563,2.0368,1.7502,1.3827,-0.1511,-1.0416,-0.126,1.0243,-1.4829,-0.203,-0.3339,-0.4775,-0.7673,1.1418,-0.4278,0
5,60000,-0.0013,-0.1382,9.8657,0.36,-0.4825,0.1061,29.3574,-10.6113,39.5636,0.6599,1.5013,-0.9664,2.0287,1.0133,0.9512,0.3232,-0.9846,-0.0539,-0.8319,1.0439,-0.7329,-0.4992,0.6048,-0.8876,0
6,70000,0.2643,0.0701,9.7608,0.6831,-0.2768,0.061,29.0713,-9.2555,40.7711,0.6658,1.6486,1.2136,-0.9021,0.141,0.0446,-1.2088,0.1065,0.2897,1.7139,0.806,0.9952,-0.2508,-1.9976,0.4264,0
7,81000,-0.0939,-0.2231,9.864,0.1049,-0.3949,-0.4556,30.4821,-9.3096,38.4183,2.6841,0.0309,0.0103,-0.4967,0.8218,0.9259,1.0748,0.4031,0.9844,0.5772,-1.2699,-0.8136,-0.247,-1.0682,0.5203,0
8,91000,0.0831,0.121,9.7198,-0.2288,-1.2208,-0.1807,28.2125,-10.4845,39.6145,1.2058,0.2738,-0.3892,-0.3479,0.3837,-1.2308,-0.3562,1.9285,-0.0526,-1.7088,1.6974,-0.4364,-1.9458,1.5241,-0.3309,0
9,102000,-0.0733,0.0135,9.7966,0.0115,0.0452,0.0977,30.003,-9.6314,39.2531,1.7299,-2.4425,1.4739,1.1819,0.0872,-0.8534,1.4326,0.7245,-1.7606,-0.0399,0.7012,-0.6128,-0.1074,1.3187,-1.4019,0
10,112000,-0.2075,0.064,9.8089,-0.3203,0.0399,-0.476,28.4312,-10.762,38.8807,-0.2038,0.7725,0.5503,-0.5001,-0.0696,-0.6014,0.1308,0.3264,0.9759,-0.5326,-0.4747,0.3576,0.1385,0.0827,-0.1198,0
11,122000,0.0007,0.201,9.7612,-0.7996,0.4064,-0.6441,31.145,-8.9626,38.8718,0.7608,-0.2877,1.3996,0.4874,0.2318,-0.2065,1.6825,1.2354,-0.4988,-0.1357,-2.5799,1.3538,0.3659,0.9898,1.2199,0
12,133000,0.2184,0.0521,9.7971,-0.2465,-0.0644,-0.2257,31.1792,-9.7565,42.2771,1.752,-0.2074,0.1657,-0.1667,0.1081,-0.197,-0.7215,-0.3333,-0.6962,0.6594,0.2252,-1.5797,2.1495,-0.7494,1.3252,0
13,144000,-0.092,0.16,9.8653,-0.0053,0.1107,0.2839,31.4459,-10.2576,40.8269,-0.0267,-0.34,1.4096,0.414,0.8967,0.6115,-1.0325,1.6411,-0.9082,0.1874,1.6249,2.6039,0.9627,-1.3133,1.5062,0
14,154000,-0.1434,-0.1486,9.7821,0.0315,-1.002,-0.0719,30.408,-10.4784,38.3975,-0.4817,0.4798,0.4875,0.0406,-0.419,0.1876,-0.5339,0.9977,-0.4816,-0.684,0.7081,-2.5622,1.0782,-0.5754,-0.812,0
15,165000,0.043,0.0664,9.7409,0.0096,-0.7785,-0.5207,29.8531,-10.1261,39.9928,-0.6277,-0.603,0.2314,-0.3593,-0.4209,-0.3619,0.0759,-1.3866,0.3115,1.2841,-1.2686,2.4876,-0.6668,-0.4618,0.3532,0
16,177000,-0.0187,-0.1284,9.7809,-0.1303,0.353,0.2219,30.8016,-10.7284,39.9472,1.167,0.2131,2.1336,-0.7965,0.4083,0.0809,-0.0028,-1.2332,-0.9354,-1.6765,-1.1563,0.3371,0.5198,1.0304,0.9191,0
17,188000,-0.2104,-0.0368,9.8407,0.3282,-0.0983,-0.0928,31.9692,-11.1548,39.1259,0.4097,-0.8349,1.2195,-0.7365,-1.7926,-1.5642,2.1414,-0.2528,0.2957,-1.3491,-1.098,-0.3629,-1.5372,-0.2218,1.0124,0
18,198000,-0.0444,0.0264,9.8005,0.1762,-0.6171,-0.0565,29.2404,-10.0087,40.067,-0.4582,-0.1913,-0.3015,-0.2751,1.4902,0.059,0.5455,-2.2081,-1.8398,1.427,-0.4563,-0.012,0.5748,-0.3613,0.6676,0
19,209000,0.0446,0.101,9.8124,-0.2162,-0.7013,0.3615,30.7554,-9.077,39.1564,0.323,-0.8633,-0.7672,-0.1502,0.7798,-0.0644,1.2205,1.3621,0.2387,0.9633,-0.8625,1.4673,1.748,-0.3587,-0.1741,0
20,220000,-0.0914,-0.0791,9.8228,0.2705,0.5989,-0.3079,31.003,-9.864,38.0579,-0.6287,0.382,0.9289,-2.1278,-0.3828,0.1083,0.2515,0.7931,0.9672,-0.9401,1.2141,0.5,-1.5793,0.6227,0.8533,0
21,233000,0.0995,-0.0797,9.749,0.6423,0.4421,-0.0734,30.8472,-10.3705,39.7164,-1.0593,-1.0873,-0.089,1.0378,0.0487,-0.5647,-0.7091,-0.2514,0.8552,-0.0822,-0.1429,-0.6257,1.9629,1.7892,0.542,0
22,244000,-0.0317,-0.0829,9.7994,0.1804,0.9282,-0.4954,31.4869,-9.0692,40.7687,0.4803,-1.3758,-0.1775,0.8841,0.0021,-0.3023,1.031,0.7868,-0.3616,-1.4609,-0.9369,0.2664,0.7935,-0.665,-2.285,0
23,254000,0.0013,-0.0434,9.7993,0.8247,-0.3407,0.0527,30.631,-8.7695,38.7546,0.033,-1.0018,0.4611,-0.8309,-0.5826,0.45,2.8906,0.2254,-0.5215,-1.0132,0.7239,-0.4232,-0.1128,2.8151,-0.9839,0
24,264000,-0.0987,-0.0434,9.7598,0.4441,-0.3844,-0.1238,29.7817,-7.8514,41.7228,0.1596,-1.3016,-2.0589,0.0923,0.6356,0.1838,0.5864,-0.135,-0.1889,0.0939,0.0072,0.0593,-0.3173,0.6184,-0.6626,0
25,275000,-0.0109,-0.0699,9.7556,0.736,0.6666,-0.3872,30.1197,-11.2507,39.5652,0.9733,0.7786,0.5138,0.7212,1.0366,-0.1362,3.498,0.1169,-2.7654,1.068,0.1384,-0.5512,-1.4113,-0.419,-2.9861,0
26,286000,0.0071,0.1114,9.8571,1.3458,0.1637,-0.577,29.7148,-8.464,41.1145,-1.7701,0.224,1.4908,-1.6261,-2.1177,0.6309,0.8002,-0.5779,0.6552,-0.7354,0.7996,0.1088,-0.3452,-0.3196,1.9185,0
27,296000,-0.2116,-0.0603,9.7527,0.7291,-0.0323,0.0394,30.3462,-10.613,40.3124,-1.3589,2.2715,0.2405,0.5242,0.0687,-0.0316,-1.6082,2.0323,-1.6312,-0.4751,1.6082,-0.5066,0.4332,2.2005,-1.1508,0
28,307000,0.1144,-0.122,9.745,-0.2185,-0.2594,-0.8181,29.9681,-9.677,37.1958,0.5969,2.0621,-0.5629,0.669,1.0237,-0.7258,1.3885,0.9334,-0.9581,-0.4815,-0.8345,0.0969,1.069,-0.8037,-0.2672,0
29,318000,0.1281,-0.0287,9.7647,-0.3635,0.2919,0.3664,28.6415,-10.9535,39.369,0.2697,-0.8025,-0.9955,-0.5267,1.0529,1.288,-1.202,0.254,1.5172,-1.0488,0.3055,-2.7664,-1.2274,0.5427,1.0913,0
30,328000,-0.0686,0.097,9.8132,-0.0622,0.0603,0.0025,30.0359,-11.235,39.0938,1.6519,1.2723,-1.0193,0.7252,0.6476,-0.0323,0.0688,0.8505,1.6969,0.0341,-0.9421,-0.0136,-1.0725,1.0938,1.2359,0
31,339000,0.2596,-0.0044,9.89,0.1869,0.7817,-0.558,29.5934,-8.5535,40.2965,-1.8479,-0.1597,-1.1724,0.5142,-1.7609,-0.6133,0.1662,-0.7426,0.9217,-0.4682,-0.1041,0.6762,-0.6784,-0.9143,-0.0837,0
32,350000,0.1203,0.0451,9.8127,-0.6181,0.6231,0.0764,30.2185,-11.7907,40.7907,2.6766,-0.2117,0.2831,1.2327,-0.5338,-1.094,1.887,-0.0609,-0.4274,0.4294,-1.7906,1.7868,-0.9881,0.5354,0.9614,0
33,360000,-0.0761,0.1013,9.8335,0.2021,-0.1582,0.1514,30.2781,-11.7501,39.4061,-0.242,1.2514,-0.386,0.0442,0.897,0.4741,-0.9147,0.0201,-0.9657,-1.4991,0.2805,-0.7518,-0.7489,-0.1476,1.3726,0
34,371000,-0.0602,-0.1014,9.7651,0.1732,-0.3457,0.4799,30.4741,-10.2267,38.6271,0.1712,0.1086,0.4691,-1.0571,-0.6474,0.364,0.5476,0.4579,0.2152,0.3322,0.2888,0.3598,-0.021,-0.3469,-0.0809,0
35,447000,0.0259,-0.0057,9.7874,-0.2034,-0.0952,0.0394,30.2499,-11.5425,38.8018,-0.1253,-2.3412,0.4168,0.7906,0.3174,-1.0773,-1.8118,1.0678,-0.986,-0.2173,1.059,-0.7179,0.8726,0.7548,-0.1905,0
36,484000,-0.0297,-0.1254,9.8361,-0.1612,0.3762,-0.2317,30.3466,-10.3767,39.6867,-1.647,-0.8726,-0.9551,0.6382,0.7254,-0.127,1.9986,0.1758,1.835,-0.6657,0.0225,-0.2569,-0.0782,0.2349,0.6599,0
37,494000,-0.1155,0.0994,9.8026,1.1333,0.1915,0.5905,32.7335,-9.9211,38.5527,0.3972,0.1098,0.2288,-0.0132,-0.772,1.0042,-1.5372,-0.9735,0.6331,-0.666,0.4247,0.7704,1.5174,0.1063,0.7517,0
38,505000,-0.1218,-0.1285,9.8429,-0.5531,0.269,0.1089,30.3821,-8.6238,41.5846,-2.5329,0.0327,-1.0881,-0.1978,-0.9582,-0.4866,-0.2557,-1.0792,-0.499,-0.3415,1.5772,1.884,0.0822,1.6157,0.4637,0
39,515000,0.0698,-0.1547,9.7447,-0.3037,0.5959,0.3832,31.6378,-9.1321,39.9093,0.4365,0.4425,-0.1551,-0.1523,-0.9477,1.3247,0.0937,0.2249,0.8967,1.1066,0.4452,-0.5972,-1.6733,2.3015,-0.0458,0
40,1011000,0.0804,-0.073,9.7221,0.7235,-0.1743,0.2851,30.5471,-10.8063,38.275,-1.0148,0.2011,0.5232,0.1974,0.3211,0.4224,-0.2374,-0.0031,-1.9372,-2.4322,0.821,-0.8371,1.5863,0.0729,-1.1043,0
41,1022000,0.0958,0.0418,9.7867,0.1281,0.298,0.1955,30.4368,-10.759,39.3645,-0.3534,0.0673,0.3878,2.0997,0.3749,0.4305,0.6775,1.2013,-1.7456,0.5862,-1.3206,-0.7226,-0.4748,0.0403,0.5458,0
42,1032000,0.0441,-0.0451,9.792,-0.4811,-0.4669,0.0742,28.8602,-10.8576,40.1224,0.7381,0.683,-0.8693,0.1986,1.1832,-0.7455,1.8193,-0.3979,-0.2997,-0.8839,-0.2289,-0.1825,0.2396,0.3507,0.9203,0
43,1044000,-0.0695,-0.0795,9.7902,-0.1257,0.1547,-0.0188,30.3301,-10.2998,40.2633,-0.3381,0.1526,-2.3173,-1.4606,-1.1704,0.0299,-1.5328,-0.2685,-0.2294,1.4958,-1.682,1.5437,1.2277,-1.8493,-0.8633,0
44,1054000,-0.076,0.0587,9.7753,0.1369,0.2283,0.5652,29.2384,-10.2258,39.2669,-0.9089,1.8343,0.0184,1.9447,-0.4062,0.2284,-0.4256,-0.6299,-1.9106,0.7739,-0.8342,-1.3399,-0.5714,-0.5434,-0.3755,0
45,1100000,-0.0316,-0.0487,9.8594,0.846,-0.8257,-0.1026,31.1625,-10.4225,40.7123,0.2072,-0.9016,-0.9327,0.5785,1.2011,-1.0933,-0.1291,-0.909,0.4785,0.6958,1.2629,0.9366,0.0552,1.8014,-1.0734,0
46,1285000,0.0149,-0.1403,9.806,-0.6585,-0.5047,-0.2329,33.084,-11.6442,38.2896,0.306,0.5428,0.5352,-1.2841,-0.3503,0.3854,-2.3992,0.1089,0.5074,1.2824,-0.8239,-0.78,0.7846,0.478,0.0435,0
47,1295000,-0.0703,0.1054,9.7882,-0.1142,0.2563,-0.9487,31.1199,-9.6936,40.6742,-0.5884,0.6544,-0.2524,-0.3277,0.6909,0.089,-0.6292,-0.5918,0.2576,-0.341,0.018,-1.4878,1.5745,-2.3896,-0.0717,0
48,1306000,0.1082,0.1599,9.8077,0.5875,1.2601,1.6047,31.0721,-9.1732,38.7771,0.9037,-1.3167,1.106,1.2172,-0.6198,-0.3451,-0.6652,0.183,-0.7239,1.4577,-0.0616,0.2764,0.6212,-1.807,0.6884,0
49,1763000,0.0232,-0.147,9.8773,0.2457,0.1928,-0.1846,30.8037,-11.5068,40.5517,1.7761,0.4872,0.2707,0.0404,1.2421,0.0211,0.3877,-0.4873,0.106,1.4315,-0.3584,1.2562,-0.1943,1.4552,-2.5079,0
50,1787000,-0.1308,-0.0434,9.8197,-0.1111,-0.2759,0.2633,31.6361,-8.7625,38.1807,-0.1548,1.7936,-0.757,0.1783,-0.8667,-0.2557,0.6309,-1.7408,0.6494,-1.4863,1.1092,0.15,-0.5702,0.8333,0.5566,0
51,1798000,0.1479,-0.2096,9.7395,0.7393,0.0632,0.716,29.7949,-10.2589,41.0887,-0.242,1.4815,-0.8513,-0.5208,0.5204,-0.0447,1.2252,0.2593,-1.2262,0.8586,0.4939,0.7191,0.416,1.0654,1.63,0
52,1836000,-0.0989,0.0303,9.7841,-0.2434,-0.4347,0.104,30.1887,-11.2068,40.4036,0.023,0.6143,0.1159,0.9454,-1.382,-0.0234,-1.5197,0.2207,2.2004,0.0545,-0.1409,-0.626,1.3807,1.5677,-1.2378,0
53,1852000,-0.0269,0.0275,9.7421,-0.238,0.4248,0.3984,30.3621,-10.7951,39.8235,-0.6194,0.673,-0.9511,0.5954,0.0206,-0.5154,-1.1829,0.0878,-0.9404,-0.653,0.4625,-0.5008,0.2208,0.3744,-0.733,0
54,1863000,-0.0962,-0.2396,9.8261,-0.1418,0.0112,0.421,29.938,-8.1544,40.4833,-0.5665,0.1916,-0.6601,-0.2554,1.3999,0.883,0.6607,-1.4096,-2.2605,0.0595,0.8058,0.43,0.9098,-2.3241,-1.6745,0
55,1886000,0.034,0.0538,9.8859,0.2852,1.0593,0.0325,29.59,-9.0828,38.332,0.0226,0.0562,0.3303,-1.1955,-1.2781,0.2987,1.8669,-0.7193,-1.0551,-0.0073,1.0095,-0.6004,-0.83,1.0035,1.3797,0
56,1900000,0.0607,0.1212,9.7588,-0.0963,-0.7293,0.1382,30.0089,-10.7805,38.1156,0.507,-2.1619,-0.4648,-0.5861,1.0612,-1.1553,1.078,0.2438,0.3615,-1.2937,0.1312,-0.9874,-0.4607,-0.8621,-1.8777,0
57,1910000,0.1581,-0.0894,9.7227,0.1592,-0.0888,-0.4202,29.3426,-9.9117,40.5291,-0.429,0.3598,-0.5021,0.1731,-0.3578,-0.8212,0.1923,1.0519,1.8286,-0.414,1.3523,0.791,-0.5391,0.5084,2.0408,0
58,1921000,0.0622,0.0404,9.764,0.641,-1.237,-0.1247,30.1848,-9.9463,42.3767,-0.752,0.4782,0.6517,0.8122,-0.6295,-0.3452,0.3874,0.6674,0.7674,-1.7684,-0.1121,-1.0542,-0.7804,-0.8775,-0.6006,0
59,1933000,-0.0597,-0.1757,9.7941,0.1194,-0.8117,-0.5259,29.769,-10.5426,39.6842,1.7151,0.3538,0.7756,-0.0191,0.1328,0.0224,-0.888,-0.5567,-1.3772,-0.4882,-0.6048,2.1023,0.3142,0.2188,0.5211,0
60,1944000,0.1531,0.0869,9.7478,-0.0056,1.1664,0.303,28.4199,-11.5363,38.9509,1.4561,-0.0263,-0.1508,2.9027,-0.4179,0.2378,-0.8265,0.8252,0.7705,0.3595,-1.0262,1.8238,-1.7139,-0.8712,0.4694,0
61,1955000,-0.0221,0.0878,9.8806,1.0071,0.4211,0.2035,29.8681,-9.5024,39.133,0.5735,-0.5417,0.4748,0.4806,-0.3146,-0.6343,0.2353,-0.555,-0.9686,-0.3706,0.2853,0.4899,1.1321,1.7083,0.3214,0
62,1965000,-0.0584,0.0963,9.7764,-0.0338,0.78,0.4771,29.6119,-10.0277,39.813,-0.395,0.6622,0.3688,-0.2803,-0.46,0.662,-0.8512,-0.2398,-0.6933,0.097,1.0115,1.0661,-0.0464,-0.0605,0.1431,0
63,1989000,0.0704,-0.0632,9.7465,-0.209,-0.474,-0.8794,31.2131,-11.665,38.911,0.3265,0.6079,-0.4994,1.8178,0.6207,-0.6264,0.1881,-0.5266,0.7564,0.6863,0.9556,2.5954,0.3401,-0.9315,0.1784,0
64,2007000,0.05,0.1292,9.8656,0.2228,0.1682,-0.37,30.633,-8.6793,39.4573,1.0075,1.5301,1.0845,-0.0971,-0.1059,0.6262,-1.4894,-0.716,0.3176,-0.2935,1.9692,-1.455,0.0831,0.5935,2.3235,0
65,2019000,-0.2727,0.0042,9.6982,-0.6449,1.0249,0.0628,29.7646,-11.7811,40.5629,0.5648,-1.3469,-0.0097,1.1957,0.2672,1.7109,-0.2436,-0.1105,-1.789,-0.4036,0.6798,0.2177,-0.1728,0.0204,0.9413,0
66,2029000,-0.0596,-0.0031,9.7524,0.3834,-0.2231,-0.0781,29.8176,-10.9315,41.1781,-1.1844,-1.0244,1.1197,-1.1884,-0.6631,0.7693,0.4822,1.6699,0.58,0.532,-1.0762,-0.8389,1.7974,-0.6673,0.7405,0
67,2040000,0.0428,-0.025,9.7961,-0.4099,-0.3994,0.3587,32.6025,-11.169,39.23,-0.5868,0.5916,0.8123,0.7191,-0.0216,0.2241,-1.7196,-1.9593,-1.0965,-0.324,-0.3491,1.425,-0.4272,-0.4781,-0.1497,0
68,2051000,-0.0368,-0.1319,9.8403,-0.1823,0.4661,-0.4769,30.0199,-10.0566,40.2036,-0.8957,1.0181,0.9566,0.4168,0.0775,-0.3186,1.1867,0.607,-0.1832,-0.1524,2.0382,-1.9321,0.5887,0.9151,0.141,0
69,2061000,-0.0009,0.1094,9.8007,0.1538,0.6192,-0.2036,28.9725,-10.927,41.2758,-0.5184,0.8597,-1.0255,1.2254,-0.9452,0.2144,0.0294,0.5628,-0.0046,-1.1864,-0.6031,-0.2045,-0.6677,2.5707,-0.4316,0
70,2071000,0.0377,-0.0291,9.8419,-0.2389,-0.5387,-0.7798,28.8989,-7.9156,39.6848,0.1422,0.0119,0.1963,-0.6338,-0.2323,-1.9467,0.7652,0.7013,-0.0433,-0.2703,-0.3445,-1.3768,0.0287,-0.3274,-0.5738,0
71,2082000,0.0873,-0.0208,9.8136,0.5101,0.2289,-0.5472,31.2295,-9.9033,39.3366,-0.4524,0.8817,-1.2082,-0.7409,-0.7104,-0.6175,-0.0226,0.9298,-1.0879,-0.3049,-0.1039,-0.4296,0.4345,-1.1012,-0.1194,0
72,2092000,0.0814,-0.0568,9.8302,0.7807,-0.0746,-0.4279,28.4841,-8.1943,40.0968,-1.4516,-0.0431,-0.28,-0.0954,0.4461,1.3722,0.6402,1.1018,0.0301,0.856,0.088,-1.2654,0.8266,-1.1897,0.2693,0
73,2103000,-0.0317,0.2318,9.7558,-0.6162,-0.166,-0.2314,29.246,-12.0836,40.4725,-0.8383,-0.1473,-1.0619,0.3682,1.0773,1.7123,0.1078,1.4996,-0.6079,0.4822,-0.1952,-0.9263,-0.3575,1.2781,-0.2532,0
74,2116000,-0.0003,-0.0438,9.8559,-0.8163,-0.2649,0.0284,29.9328,-9.1064,40.0158,0.2977,-2.4509,-0.8971,0.4397,-0.0786,-0.6428,0.6887,0.8085,-0.7345,-0.3049,-1.7239,0.9973,0.0741,0.4996,2.2098,0
75,2127000,-0.006,0.0819,9.7891,0.7421,0.3764,-0.063,30.2648,-8.5436,40.5712,0.083,-0.8419,-0.9886,2.4845,-0.8554,-0.8894,1.0172,-0.0727,-0.1097,1.6703,-0.9581,-0.2438,-0.3183,0.0447,0.983,0
76,2137000,0.02,0.0952,9.8188,-0.3422,-0.3054,-0.268,29.5524,-9.6774,41.7718,0.3612,-0.8063,0.5308,0.3308,0.3117,0.4249,-2.091,-1.5683,1.1334,0.7616,0.3292,1.5912,0.3082,1.2784,1.1234,0
77,2148000,-0.0489,-0.2547,9.8441,1.3072,0.4154,-0.2002,29.6731,-8.9656,41.073,-0.2276,-0.403,-0.4081,-0.505,-0.3083,-1.4256,-0.4401,0.0681,0.2551,-0.4167,0.8071,0.7997,-0.1449,-0.9402,-0.2803,0
78,2158000,-0.1163,-0.1051,9.7621,0.6761,-1.002,-0.0679,29.5078,-9.4218,39.9799,1.5824,1.5097,-0.515,-1.3482,1.9388,0.5712,-1.8409,-1.2007,0.3223,-0.5963,-0.4193,-1.2567,0.305,1.4585,0.6311,0
79,2168000,0.1703,0.0513,9.742,0.1617,0.6987,-0.122,30.3704,-10.0449,38.4319,0.7568,1.385,0.6167,-0.7685,0.3403,0.9971,1.588,-0.2728,-0.8525,-2.6315,0.7393,-1.7768,0.1626,-0.7634,-2.5753,0
80,2179000,-0.1872,-0.1743,9.8179,0.1552,0.1388,0.2786,30.2148,-9.587,39.9715,0.7869,0.1639,-0.5153,-2.3141,-0.4551,-0.8317,0.4037,-2.0883,-0.0649,0.8786,-1.571,0.1506,-1.3724,-1.3946,-0.3962,0
81,2190000,-0.0684,-0.1111,9.7523,-0.0181,0.5143,0.6204,30.0779,-9.2702,39.7968,-1.0846,0.4328,0.4664,-1.2002,-0.3289,0.4681,0.5082,1.1277,-0.893,0.9506,0.4717,0.2358,1.9288,-1.3898,0.9044,0
82,2200000,0.0989,0.0503,9.8941,0.1976,0.2194,-0.0071,29.5293,-9.5552,39.7431,-2.5396,0.4018,-0.6204,1.7472,0.6199,0.0032,-0.4475,0.6715,-0.3764,-1.9042,0.3921,-0.1732,1.8367,-0.42,-0.2892,0
83,2211000,-0.0619,0.039,9.7807,0.3219,-0.464,-0.0015,32.1337,-9.8164,39.985,-0.0795,1.57,0.2587,1.918,-0.0422,0.7391,0.4006,-0.5155,-0.3017,-1.98,0.368,0.8449,0.4377,0.1508,-0.6604,0
84,2221000,0.0012,0.0776,9.8318,0.859,-0.477,0.1599,29.492,-9.7091,38.8288,-0.1712,0.9171,-1.2539,1.4012,0.0942,0.0648,-0.0483,1.0082,-1.7876,1.269,-0.6859,-0.5274,-0.0521,0.4109,-2.5794,0
85,2232000,-0.0945,-0.0228,9.7387,0.2521,0.288,-0.4808,30.9414,-11.2525,41.3117,0.6205,0.3375,-0.3125,0.4239,-0.5628,-2.0793,-0.4359,2.4031,0.172,-0.9906,-0.7519,-0.3521,-0.7009,-0.2941,0.7137,0
86,2242000,0.0626,0.1178,9.8514,0.6513,0.1102,0.103,30.0289,-11.5606,39.7825,0.6011,0.8284,0.2361,2.0662,-1.2343,1.7976,-1.6543,0.1512,0.837,0.5463,-0.9572,-0.6464,0.9786,0.2578,-0.379,0
87,2252000,0.133,-0.1211,9.8278,0.4032,0.57,-0.073,28.3777,-10.0366,40.7199,-0.743,-0.897,-1.7072,0.3666,0.6489,0.0614,-0.8513,-0.4224,0.2996,-1.8738,0.4903,-1.2497,-0.6821,2.6049,-1.4642,0
88,2263000,0.0386,0.1257,9.7398,-0.1098,0.7348,0.2156,30.4845,-8.3209,41.4208,-0.1226,0.0943,0.5852,-1.3825,0.6902,-1.057,0.6445,-0.2615,-0.0859,-1.161,1.3315,-0.6129,0.7879,0.294,0.4778,0
89,2291000,0.0035,-0.0571,9.8683,-0.7684,0.5463,0.3859,31.0928,-9.9785,40.5923,0.7907,-0.9742,0.4597,-1.0685,-0.2493,-0.0217,0.756,0.8197,0.2288,0.0238,0.0067,-0.3866,-0.7437,-0.4494,0.4566,0
90,2303000,0.0194,0.0004,9.8481,0.0499,0.1803,-0.072,30.5007,-8.9135,39.229,0.1854,-2.3795,1.5002,-0.5968,-1.3629,-0.1614,0.5538,-0.4333,0.1215,-1.1383,0.4024,0.5346,-1.5906,-0.3217,-0.1599,0
91,2314000,-0.0359,0.0879,9.8288,0.3751,1.7517,-0.2629,28.3719,-11.0819,40.9392,-1.7062,-0.2233,-0.3759,-0.0956,-2.3671,0.5946,-0.2493,0.817,-0.3082,-0.6739,-0.019,-0.7192,1.2311,2.1511,-0.6061,0
92,2324000,-0.0024,-0.0201,9.7409,-0.306,0.3553,-0.2146,27.7817,-9.6408,40.1195,0.8189,1.0769,-0.6798,-1.0985,1.168,0.0216,-1.2157,-0.6528,-1.2009,-0.3763,-0.8341,1.2816,0.0772,-0.5579,0.0301,0
93,2338000,-0.0227,0.1842,9.8041,-1.4502,-0.5593,-0.3838,27.8892,-9.1266,41.6308,0.3708,0.1122,0.4801,3.0959,0.2853,-2.296,0.6848,-0.0705,-1.9422,-0.6119,-0.275,-0.64,1.2103,0.1508,-0.0304,0
94,2348000,0.082,0.1086,9.8105,-0.2623,-0.8433,0.077,29.3553,-9.7038,38.9832,-0.2645,1.1438,-0.5299,0.3266,0.7032,0.0045,-1.6369,-0.5952,-0.6209,0.1463,-0.0935,0.8848,0.0149,0.5756,0.7491,0
95,2359000,-0.0251,-0.0624,9.8378,-0.0138,0.0605,0.9553,31.9459,-9.6035,41.3215,-0.4124,0.8354,1.7582,-0.3389,0.7875,0.4639,-0.7611,0.4896,1.4832,0.5479,-0.2619,-0.5248,0.1837,-1.0273,1.5605,0
96,2371000,-0.064,0.0831,9.7243,0.2575,0.352,-0.4193,30.3508,-10.2445,38.979,-0.6376,1.461,-0.483,0.0051,0.3186,-0.0622,0.9055,0.1408,-0.3746,-2.4222,-0.434,-0.5092,0.6576,0.9412,-0.4705,0
97,2383000,-0.1456,-0.1893,9.6975,-0.4586,-0.4866,-0.3477,29.9202,-10.3263,42.1077,-0.1402,1.5802,1.3431,1.5966,-0.9513,1.8477,0.9245,-0.2238,-2.9533,1.0568,0.7012,-0.2306,-0.1965,0.6058,-1.292,0
98,2394000,-0.0717,-0.1874,9.8039,0.052,-0.5751,0.3348,30.7711,-8.0607,38.8531,0.4409,-1.9726,0.7604,-1.1731,0.4663,0.3116,-0.5183,0.4023,1.1377,1.6752,-0.3965,0.2265,0.599,0.0063,-0.0477,0
99,2417000,0.0101,-0.1059,9.8165,-0.7419,-0.8421,0.6122,30.8266,-10.7253,40.1311,0.0413,-2.032,0.0403,2.4366,0.1939,0.8205,-0.226,-1.1668,-0.5531,-0.4208,2.9595,-1.0615,0.3944,0.895,-0.9884,0
100,2427000,-0.1087,-0.0404,9.7835,-0.1418,0.3957,-1.01,30.7724,-9.3413,40.4626,-1.6857,0.2723,-1.5229,0.2439,-0.3845,-0.3625,-0.4469,-0.8669,-1.919,-0.9889,1.3364,0.5279,-1.0283,0.1228,0.8636,0
101,2438000,0.0657,0.0123,9.7458,-0.7536,0.9101,-0.2486,30.1206,-10.1263,38.8627,0.0572,-0.4066,-1.6427,0.7101,-0.0792,-2.1963,-0.0875,-1.3125,0.828,-0.8108,0.7444,-1.7628,-1.3236,0.1881,1.3609,0
102,2448000,-0.0515,-0.0572,9.7649,0.6906,0.7944,-0.3152,29.9773,-10.5592,38.9286,0.738,-0.5034,0.5481,1.386,-2.7037,-0.2579,-1.1806,-0.0015,-1.131,1.3424,-0.0605,0.1408,0.7234,1.8817,0.5087,0
103,2458000,-0.0522,-0.1315,9.7856,0.2753,0.6122,1.1737,29.6351,-8.0817,40.5065,0.3915,1.9212,-1.363,1.1956,-1.0808,-1.642,-1.4831,0.5161,-0.5646,-0.5829,-1.2485,-1.1671,1.1515,0.2134,-0.228,0
104,2471000,-0.0482,-0.0494,9.7813,-0.939,0.1608,0.2864,29.4682,-11.6766,40.5224,0.6623,0.0743,-2.158,1.0413,-2.8476,1.0674,1.5547,-0.2339,0.3037,-1.1352,0.6783,0.1217,0.9452,-0.9731,-1.0895,0
105,2481000,-0.0263,-0.0405,9.815,-0.1932,0.8664,-0.3415,31.4623,-9.7717,40.2907,0.0508,0.5798,0.5941,-0.2463,0.912,-2.1747,-0.1402,0.2455,0.3611,0.4912,-1.8659,0.0512,1.3956,0.6757,-1.6051,0
106,2492000,0.1593,-0.011,9.8378,0.2428,0.1017,-0.0865,29.1373,-10.2335,40.299,-0.1576,2.248,0.7157,-1.0644,0.6715,-1.9043,-0.3807,0.731,-0.7461,-2.0152,0.0967,1.4192,0.6917,-1.2117,0.1235,0
107,2503000,-0.0785,-0.0148,9.8407,0.3982,-0.2249,-1.2834,29.6441,-9.0633,41.6537,-1.1374,-2.3386,-0.054,-0.0231,0.5554,2.2154,-2.75,0.0998,-0.991,-1.4765,2.0208,-0.0722,1.1737,-0.1231,2.0703,0
108,2515000,0.0445,0.0376,9.7869,-0.833,0.4215,-0.093,31.225,-7.813,39.872,0.3564,-1.0757,0.7164,-0.232,-0.9897,-1.6699,0.9112,0.7548,-0.3563,-0.5487,-0.1659,1.0249,0.1591,1.6288,0.6864,0
109,2526000,0.0898,-0.0284,9.8226,0.1569,-0.4099,-0.351,31.3769,-9.2972,37.6732,1.2424,1.2644,1.4004,-0.3166,-0.3021,0.0991,-1.0004,0.5626,-0.5725,-1.1279,1.5012,-1.7086,-0.6889,-0.3754,2.2935,0
110,2536000,0.1016,-0.0358,9.7425,-0.6045,0.1743,-0.5967,27.5023,-9.6168,39.1026,-0.1956,1.8857,-0.0338,0.0185,-0.6261,0.9052,1.3081,1.6433,-1.6315,1.1234,0.3457,0.6705,0.654,1.1225,2.2928,0
111,2547000,-0.0736,0.033,9.8074,-0.6346,-0.6321,-0.4894,29.9096,-10.3529,38.1857,2.0225,0.4189,-0.4324,-0.2324,0.7347,0.61,-0.9725,0.0214,1.1099,1.1732,0.2881,0.2767,-1.5574,0.8306,0.2302,0
112,2557000,0.1625,0.1793,9.7497,0.1051,-0.2637,-0.5788,30.112,-9.4827,39.8094,0.3096,-1.5915,1.067,0.1354,-1.871,-0.6652,-0.2391,0.3523,-0.1689,-0.4477,0.5614,1.3063,0.3176,1.3242,-0.4947,0
113,2568000,0.0801,0.1136,9.8439,0.671,-0.0232,-0.2103,30.7684,-10.7578,40.8651,-0.2748,-0.8965,0.1715,-0.4723,0.3475,-0.3585,0.0174,0.4721,1.212,0.0665,1.7348,0.1985,0.3681,-0.4854,-0.1775,0
114,2591000,-0.0366,0.0972,9.7656,-0.1526,0.3774,0.7131,30.5596,-9.8666,39.7686,2.1281,-0.1641,1.5798,0.223,-0.0236,-0.3465,0.2283,0.0437,-1.481,1.6114,1.1813,-0.0743,-0.995,1.1002,1.2974,0
115,2603000,-0.0877,-0.1274,9.848,-0.3615,-0.6868,1.0821,29.4737,-9.2688,39.0762,0.4938,-1.2406,0.7373,-0.7834,-1.2575,0.4603,-1.5676,0.5901,0.6812,-0.5254,0.3836,-0.769,0.0311,-0.196,1.5191,0
116,2614000,0.138,0.0689,9.7805,0.3766,0.1066,0.0174,29.9212,-9.607,39.8615,0.2923,-0.4804,-0.8167,-0.7918,-0.6713,-0.5364,0.3835,0.8119,0.7402,1.0724,-0.1635,-0.7012,-1.1068,-2.4935,-0.2733,0
117,2625000,0.0257,0.1271,9.7554,-0.4641,0.9067,-0.582,30.4061,-10.5605,39.4277,0.151,-1.2071,-0.0988,0.6552,0.0436,-0.9968,-0.5063,0.3281,0.4477,-1.8518,-0.1387,1.2476,-1.3447,1.3066,-0.9785,0
118,2636000,-0.0669,0.1205,9.7311,0.072,-0.1531,-0.3005,28.9985,-10.2643,38.778,-0.6117,-0.3604,0.247,-0.0197,0.2683,-0.9942,0.6994,0.8188,-0.5256,-2.3582,-0.3345,0.2281,0.9806,-0.4136,-1.6789,0
119,2648000,0.221,0.0211,9.7554,-0.14,-0.3392,0.5101,29.2397,-9.3278,42.1958,-0.9795,-0.8374,-1.5378,-0.278,-1.6777,-1.5353,0.393,0.4186,-0.7891,1.2194,-0.3605,-0.0172,1.8314,-0.6447,-0.4568,0
120,2661000,-0.287,0.0886,9.8381,0.8782,0.0626,0.529,30.2577,-9.725,43.4402,-0.9065,1.0332,-0.2579,1.6135,0.3114,-1.0617,-0.4033,0.6039,2.1801,1.327,-0.0096,1.7845,0.3216,-0.575,-0.289,0
121,2672000,-0.0788,-0.0743,9.7837,-0.0653,0.0804,-0.417,30.9104,-10.7964,41.4719,1.6006,1.0754,0.4764,-0.1981,1.2959,1.4023,-0.6278,-0.6703,0.2323,-0.0507,0.6592,-0.4159,-1.2216,0.3875,-1.0357,0
122,2684000,0.0241,-0.0887,9.7379,-0.1459,0.2763,0.2753,31.308,-9.5129,40.6995,1.7012,-1.2993,-1.1383,-0.3059,1.4746,0.1499,1.6564,-1.1665,0.0045,1.5251,1.1326,1.7745,0.9031,-1.0246,-1.1408,0
123,2696000,-0.017,-0.0761,9.7697,0.3234,0.491,0.0702,30.0675,-8.4516,39.5112,-1.0224,-1.0797,-1.7181,0.4106,0.922,-1.7575,-0.0625,0.8528,0.3275,-1.7199,0.8228,-0.3823,-0.0615,0.5168,0.2007,0
124,2707000,-0.1644,-0.1073,9.7473,-0.5118,-0.3114,0.1619,29.0267,-10.4377,39.847,-0.1465,1.6033,-2.4014,1.2724,0.9443,2.1751,0.1914,0.7862,-0.5116,-1.0183,0.7312,-0.0718,0.3014,-2.0793,-0.0525,0
125,2720000,0.1041,0.0495,9.744,-0.3214,-0.2328,0.4622,31.3917,-10.0349,41.0165,-0.0181,0.3758,1.9083,-0.7414,-0.2224,1.7343,-0.1116,-1.6102,2.3202,-2.9715,-0.6716,-0.7763,-0.4665,0.604,-1.6733,0
126,2731000,0.2073,0.0387,9.7458,-0.6028,1.0897,0.2556,28.7267,-8.7236,40.7701,-0.448,-0.9284,-2.7863,0.1219,-1.3505,-0.2546,-0.62,0.7303,-1.5236,-1.4538,-3.4307,0.9211,-0.402,0.9032,-0.9269,0
127,2741000,0.0797,-0.0562,9.8393,-0.2955,0.2072,0.3649,29.7462,-9.0288,40.1701,0.827,-0.5168,-1.243,0.0766,0.3565,-1.0361,0.1373,-1.6182,0.6333,-0.4826,-0.3389,-1.2621,0.8369,-0.1603,1.7224,0
128,2752000,-0.0115,-0.0552,9.8194,0.494,-0.3536,-0.0603,30.4313,-9.8476,40.189,0.0418,0.4921,-0.5108,1.496,0.4555,-1.1435,-0.0482,-1.1731,1.9342,2.1023,0.2554,-0.3924,0.5672,-0.7854,0.9462,0
129,2763000,0.1153,0.0928,9.8486,0.4684,0.2759,-0.0085,28.125,-10.4016,40.6652,-1.0672,0.1917,-0.7958,-0.2278,0.8771,0.9247,0.0713,0.2622,-0.758,-0.0588,0.2291,0.254,-0.9087,0.5553,0.5328,0
130,2775000,0.0233,0.0356,9.7088,-0.6192,-0.1544,-0.175,31.3289,-10.3084,39.8026,-0.6334,-0.0818,-0.3812,0.2134,-0.8597,1.1452,0.5275,0.4321,0.1241,-0.7082,-1.2192,0.1892,0.3029,-1.0624,0.5369,0
131,2786000,0.0228,0.0129,9.8814,-0.1149,0.4379,0.0677,29.9117,-10.9698,41.832,-0.0345,-0.0546,-0.2727,0.797,-0.2444,-0.0367,-0.0278,-0.0758,0.6299,-0.0555,0.1182,-1.2679,-1.5922,-2.4594,-1.1453,0
132,2798000,0.0333,0.1655,9.8368,-0.0326,0.7514,0.1385,30.0588,-10.0837,40.7766,-0.2859,0.5112,-0.1633,2.1797,0.0924,0.7496,0.2257,0.5059,0.0584,-0.4915,-0.8701,-0.9581,1.0783,1.6545,0.1175,0
133,2809000,0.0356,0.0843,9.7624,-0.6198,0.9328,0.4844,29.4601,-10.7211,40.607,-0.0499,0.0099,-0.3083,-1.2835,0.9168,0.8573,-0.5137,-0.5051,-0.1234,-0.7072,-0.0595,0.9219,-0.6249,-0.4176,-0.2844,0
134,2822000,-0.018,0.117,9.7777,0.8885,-0.8183,0.2609,29.4597,-8.8288,38.8368,-0.3227,-1.7487,-0.3835,0.7784,-0.7009,0.2007,-0.0327,-0.6708,0.8304,-0.3227,1.6784,1.2503,0.5046,-0.0919,0.0008,0
135,2832000,-0.011,-0.0322,9.7768,-0.0718,-0.6443,0.1425,29.4669,-8.7493,40.2451,0.2424,0.5029,0.1894,-1.7824,-0.0205,0.5773,-1.4251,0.8024,-0.9599,0.727,0.5079,1.0269,-1.6686,1.7593,0.281,0
136,2842000,-0.0794,-0.0684,9.7686,0.2711,-0.2185,0.4676,29.4241,-11.4408,40.2658,-0.2178,0.2639,-2.0431,-0.3446,-0.9299,0.5062,-0.5603,-1.3696,0.113,1.7497,-0.0487,1.0286,0.2627,0.5211,0.7555,0
137,2854000,-0.0211,-0.0186,9.8145,0.2023,0.4763,0.1842,29.4444,-9.0682,40.2173,-1.1249,-1.1592,0.3451,-0.6206,2.029,0.1104,1.6799,0.5206,0.4222,0.6294,0.2831,0.4886,0.2182,-0.7052,0.9146,0
138,2865000,-0.1454,-0.0366,9.8317,-0.1947,0.4937,0.7612,28.6587,-10.5085,41.1807,2.4661,-0.9173,0.8992,-0.1088,0.3806,-0.5393,-0.6762,0.7889,0.0567,-2.2819,-2.5617,1.4178,0.7124,0.0876,-0.6301,0
139,2892000,-0.0722,-0.0222,9.8506,-0.6159,0.5808,-0.2864,31.0977,-10.0141,39.8934,-1.4857,-0.3339,1.0414,-0.2088,0.479,-1.826,-0.3136,0.1912,-0.3022,-0.5497,1.3707,-0.0236,-0.5221,1.0824,1.6103,0
140,2903000,-0.0346,0.011,9.8779,-1.4087,0.326,-0.6579,29.6487,-9.7883,40.1911,0.164,-0.884,0.0519,0.312,0.0613,1.4685,-0.5322,0.6686,0.3647,0.4122,0.491,-1.4907,0.251,-1.0704,0.2842,0
141,2914000,-0.0779,0.1033,9.7731,0.5454,-0.2273,-1.3546,30.8322,-9.8328,39.9388,1.5666,1.1122,-1.4464,1.1371,-1.2613,0.6364,-0.3339,0.659,0.5757,1.3303,1.8084,0.2344,1.5388,0.4839,0.9158,0
142,2924000,-0.2358,0.016,9.8244,-0.0333,0.4397,-0.4939,29.2909,-8.288,39.919,-0.2358,-0.4359,-0.8178,1.2375,1.3438,-1.5204,1.0143,-0.635,0.1571,-0.7401,-0.5251,2.1139,-0.7459,-0.5399,0.3543,0
143,2937000,0.0226,0.0394,9.835,-0.0532,-0.9412,-0.0244,29.878,-12.1156,39.2071,1.0837,0.1241,-0.0613,1.4451,-0.0478,0.2317,-1.0987,-0.3476,0.5172,-1.2184,0.1338,-1.29,-0.8223,0.2803,0.347,0
144,2953000,0.1662,-0.0592,9.8251,-0.0291,1.0322,-0.3984,31.2632,-10.2479,38.7593,1.0174,-0.5876,-0.1126,-0.2275,-0.213,-1.3049,0.3947,0.7439,0.1953,-1.2,1.5575,1.6644,0.3229,0.109,-0.5738,0
145,2964000,0.1733,-0.0147,9.6738,-0.5099,-0.2168,0.9831,31.7031,-9.0728,39.7274,-1.0546,1.5566,1.3614,1.2886,-1.4308,-1.0967,0.2043,0.0794,-1.4167,1.3775,-0.5872,-0.3919,0.6455,-0.4358,0.1255,0
146,2979000,0.0785,0.0979,9.8706,-0.3843,-0.0525,-0.8536,30.0309,-8.7234,38.6872,0.3577,0.269,-1.1242,0.1887,0.82,-0.5001,-0.4944,-1.1165,0.4613,1.3443,-0.6964,1.2382,-1.2536,-1.3091,-0.6126,0
147,2989000,-0.0236,-0.0138,9.7827,0.012,0.0752,-0.8144,31.0724,-10.2078,42.0352,0.0548,0.6264,-1.783,-0.2557,1.0136,0.9119,-1.4913,-0.6255,-0.2476,0.017,-0.9096,0.9821,1.2485,0.6218,0.2958,0
148,3003000,0.0174,0.0197,9.7837,-0.3192,-0.5078,0.1074,30.7704,-7.7488,40.2788,-1.4149,-0.0323,-0.2059,0.8026,-0.8695,-0.9338,0.8501,0.0748,1.4807,-0.0564,0.2156,0.3592,0.6512,1.0017,-0.3645,0
149,3015000,-0.052,0.1739,9.8447,0.742,0.4823,0.4223,29.2298,-9.6252,42.0819,-0.4975,-0.0058,-0.7082,0.1619,0.5734,1.4572,-0.9565,-1.0647,1.4448,0.4222,0.966,-0.4877,0.9499,-0.7505,0.7193,0
150,3026000,0.0292,-0.1362,9.8235,0.6494,-0.3813,0.7797,28.0858,-8.629,39.8537,0.1522,0.1481,-0.6428,0.3196,-1.4241,-0.4329,0.1646,-1.639,-0.4245,0.1829,0.6632,0.9758,0.0655,-0.3761,-0.2183,0
151,3037000,-0.1,0.1181,9.8283,0.9429,0.1005,0.0371,28.6037,-11.0226,38.5952,0.1461,-1.1467,1.5033,0.387,1.3585,0.259,-0.9601,0.7107,-1.8952,-0.9044,1.3537,0.7814,0.9322,0.6363,-0.0204,0
152,3048000,0.1507,0.0115,9.8804,-0.4291,-0.5277,-0.0271,29.7544,-9.7975,40.049,-1.5252,-2.2326,-0.7178,0.1378,0.2979,-0.4333,0.9106,1.7082,1.2072,0.4543,-0.0904,0.6811,1.0612,-0.1821,-0.8317,0
153,3061000,-0.0988,-0.0147,9.7933,-0.3495,-0.9879,0.6834,27.9884,-8.7346,39.6373,-0.743,-0.8198,-2.2543,0.4688,1.4118,-0.122,-0.8787,0.4928,0.6721,-0.2026,0.9452,0.2731,-0.1435,-0.8087,-0.986,0
154,3072000,-0.1292,0.0216,9.7544,-0.2739,0.4662,-0.6487,29.186,-10.4138,40.5183,-0.8989,-0.3596,0.2281,2.3911,0.0463,1.1021,-1.3329,1.212,-0.6774,0.2379,-0.3157,0.5496,0.7686,0.6223,-0.6776,0
155,3083000,0.0434,0.1261,9.8744,0.5782,-0.0664,-1.0652,31.2498,-8.3135,39.9316,0.6423,0.5833,-0.5709,-0.2643,-0.6563,-1.0219,0.7325,1.157,-0.8315,-0.4664,-0.9707,1.2467,0.0173,1.2203,0.6907,0
156,3093000,0.0469,0.0901,9.7576,0.4386,-0.7725,0.0996,29.5115,-10.4703,38.7447,0.5137,-0.9512,-0.0332,0.7059,-0.8732,-0.7262,1.304,-0.4471,0.3732,0.4306,-0.3298,0.1373,-0.352,-1.389,-1.4842,0
157,3106000,0.1703,0.0025,9.7777,-0.2438,0.6117,-0.2956,27.7902,-8.4327,40.2763,1.2019,1.3,-0.9323,0.2182,0.8705,0.7918,1.7792,-0.7706,-0.3045,0.7529,0.0487,-0.379,0.2952,0.4481,0.1419,0
158,3119000,0.0263,0.0951,9.7654,0.0931,0.0631,0.4547,31.1928,-7.8805,42.0122,0.3752,-0.9341,0.5438,0.9219,1.2573,-0.1933,-0.4524,-0.6542,-2.2112,-0.5798,-0.1053,0.4472,0.2797,0.7411,-1.236,0
159,3130000,-0.0658,0.0483,9.7998,-0.6865,-0.2659,0.4566,29.1045,-9.4217,40.6475,-0.1015,-0.6258,-0.5838,-0.1445,-0.5779,0.8713,0.0692,1.7523,1.3018,-0.7585,1.3397,0.1791,0.3862,-0.3142,0.9053,0
160,3140000,-0.0476,-0.0426,9.8166,0.7346,0.3741,0.4432,29.4403,-10.5474,39.8067,0.2733,0.5499,-2.2729,0.963,0.4725,0.5448,-0.5096,-1.6304,1.6739,0.8379,0.4572,0.256,-1.6996,1.1143,1.2475,0
161,3151000,-0.1108,-0.1604,9.8573,0.2343,0.9229,-0.491,30.7195,-9.6726,40.3453,1.3569,1.317,-0.5581,0.0737,-1.0723,0.7142,0.9692,1.0535,1.5014,0.74,-1.0548,0.1413,0.3589,0.8551,-0.9357,0
162,3177000,-0.0393,-0.0866,9.7581,0.4151,0.3195,-0.8675,27.9942,-10.3065,38.7042,-1.5178,-0.0672,-1.016,-0.1232,-0.6111,0.9977,0.4247,0.3786,-0.4962,2.052,-0.6285,-0.6288,0.5772,-0.6065,3.2603,0
163,3188000,-0.1331,0.2189,9.8152,0.7314,0.1072,0.3767,31.8235,-9.5256,40.3425,-1.3194,0.1136,-2.0038,0.4795,0.3812,0.6913,2.2316,0.2575,-1.3242,-1.4705,0.5893,-0.8293,-0.5209,0.4888,1.237,0
164,3198000,0.0293,-0.201,9.7971,0.2782,1.6783,0.9997,30.1698,-8.9309,40.6932,1.2293,2.4702,-0.5759,-0.496,1.0912,0.039,-1.1979,-1.028,-1.7124,1.7103,-0.6344,-0.8486,0.0733,0.0548,0.1328,0
165,3209000,0.0241,-0.0244,9.7382,0.237,-0.7453,-0.5685,28.826,-9.5906,40.6918,-1.2973,-2.1102,1.2915,-0.4866,-0.2699,0.6765,1.2044,0.2832,0.6583,0.4057,-0.8765,0.0339,0.7915,0.8243,0.1555,0
166,3221000,-0.0314,0.1205,9.7723,0.4239,0.1591,-0.5828,30.0896,-8.4029,39.4239,1.2881,1.211,0.5071,0.3091,2.2699,-0.0871,0.7643,-2.3273,-0.1424,0.5036,0.367,-1.0523,1.0579,-0.9941,-1.9158,0
167,3235000,0.0426,-0.0164,9.8704,-0.0769,-0.1691,0.2227,30.7065,-7.8449,39.3163,0.6339,0.2542,0.2681,-1.1174,1.2317,-0.291,0.7591,0.5308,-0.6075,-0.0777,0.4084,-0.7861,0.0804,-1.7956,-0.8403,0
168,3246000,-0.0623,-0.0464,9.7758,0.1226,-0.0864,-0.0067,30.1856,-9.2334,40.5414,0.8272,0.1721,1.7197,0.3269,0.3198,-1.1421,2.0037,0.7555,-0.3092,-0.5312,-1.4767,-1.5618,-0.1062,0.3286,1.517,0
169,3257000,0.1877,-0.0961,9.843,0.4041,-0.5533,-0.2809,29.0628,-10.8755,38.7025,0.6999,0.4523,-1.0551,1.0204,-1.9615,-0.2879,0.4415,1.1964,-1.1606,-1.5773,0.5598,0.4077,-2.9529,-1.3864,1.8215,0
170,3268000,-0.0539,-0.2159,9.7938,-0.0045,-0.3169,-0.4275,31.6457,-9.4998,40.5206,-0.1482,0.744,0.0018,2.4683,-0.4758,0.8075,-2.6858,-2.7962,0.0336,0.9719,-1.1244,0.9733,-0.8139,0.3961,0.8426,0
171,3282000,0.1049,0.0102,9.7519,-0.3377,-0.3656,-0.8859,30.1757,-9.8276,40.5132,-0.8838,0.2719,-0.3498,-0.6758,-1.3694,0.3213,-0.7214,1.287,0.3195,0.2236,-0.9797,-0.9144,-0.885,0.693,-0.2941,0
172,3297000,0.1876,-0.1035,9.7449,0.7375,-0.3133,0.1761,32.4861,-8.588,40.5063,-2.5575,0.1928,-0.6466,-1.391,1.3298,0.3578,-0.7789,-1.4022,-0.8301,-0.0392,1.3757,-0.3289,-1.0331,-0.906,-1.0482,0
173,3307000,-0.1169,0.1476,9.763,-0.1594,-0.3069,0.1563,30.0025,-9.167,39.9168,1.0619,0.5483,-0.7304,-0.074,1.3732,0.0755,-0.226,-0.3403,0.6406,1.5381,-0.9443,0.0604,-0.5201,1.3423,-0.088,0
174,3318000,0.0653,-0.0465,9.8123,-0.3397,0.5046,0.2523,30.1631,-10.7104,39.6429,-0.5563,1.0439,2.0574,-0.357,0.8785,-1.4313,0.0836,-0.6749,0.6622,-0.3242,-0.388,0.1511,1.1579,0.1548,0.0282,0
175,3328000,-0.0217,-0.0162,9.8084,0.0336,-0.1982,0.2557,31.9777,-11.0147,40.1721,1.1099,-0.4678,-0.0215,-0.1543,-0.1186,1.3685,0.0684,-0.0164,-0.2018,-0.6347,-0.9404,1.8931,-0.6597,0.5476,0.049,0
176,3339000,0.0302,0.1792,9.7966,-0.1259,0.2228,0.1969,28.7294,-9.7279,39.0989,1.3862,1.1739,-1.2285,0.2648,0.3925,-0.9703,-1.889,0.8967,1.6769,-1.2984,-0.0109,-0.1732,0.235,0.6321,1.2819,0
177,3350000,0.1828,0.2201,9.773,0.3873,-0.1788,-0.1221,30.3884,-9.4387,38.6886,-0.7204,-0.678,-0.9274,-0.0685,-1.5037,-0.9178,0.4745,-0.5084,1.1796,1.237,1.682,-0.1305,0.2308,-0.9364,-0.5446,0
178,3360000,0.0514,-0.0795,9.6962,0.5475,-0.3552,0.2135,29.2843,-10.0711,40.1081,-1.1573,-0.6983,-0.81,1.4258,0.4704,-0.319,0.0069,0.1811,-0.1527,-0.3021,-0.4626,1.6696,1.5333,-1.5656,0.5352,0
179,3372000,0.0327,-0.1754,9.8625,0.2366,-0.3717,-0.4838,29.3985,-12.4183,37.6485,-0.5547,0.5872,-0.5907,0.6543,-1.4642,2.1471,0.0104,-0.2991,1.2482,0.852,1.2596,0.5366,0.6074,2.0119,-1.1382,0
180,3386000,-0.0153,-0.1178,9.7897,0.4316,-0.2689,0.134,30.3457,-10.187,39.5654,-0.4541,-1.8672,0.5744,1.1372,-1.2831,-0.7876,-1.3084,-0.6008,1.2708,-0.5665,1.4305,0.7757,0.262,-0.2116,-0.5447,0
181,3396000,-0.0415,-0.1136,9.872,-1.3119,-1.3804,0.2713,30.7076,-10.8075,40.2007,-0.4962,1.0159,0.6886,0.0753,0.5297,0.0082,-1.8196,-0.0242,0.2888,-0.3542,-0.3805,-0.2159,0.2672,-1.0778,0.2238,0
182,3406000,0.0728,-0.0285,9.8152,-0.4355,-0.5898,0.1746,29.8006,-8.0678,41.5871,-0.5875,-0.2952,-0.5985,-1.7158,-1.2307,-0.488,-1.3926,-1.2956,-0.6025,-0.1116,0.2662,0.9164,-0.6862,-1.3937,-0.347,0
183,3417000,0.0592,-0.0172,9.8093,0.3468,-0.0767,-0.2047,31.2128,-10.2904,39.2216,-0.8607,-2.086,0.5816,-3.356,0.2209,0.3111,0.0053,0.4262,0.6561,0.4584,-0.2342,-0.9092,-0.4117,-1.1716,-0.9904,0
184,3430000,-0.1588,0.0742,9.7588,-0.0644,0.4479,0.0689,29.6767,-9.1943,40.6487,-1.0157,-0.2454,0.1009,-0.2725,0.1195,-1.5866,0.1671,0.7395,0.5843,0.9717,0.7045,1.0424,-0.1252,0.1857,0.8999,0
185,3445000,0.1311,0.1629,9.8664,-0.0617,-0.135,0.2075,30.7816,-11.4335,40.9184,-0.8559,-0.6715,-0.0815,0.3946,0.4954,-0.0102,-0.2591,1.2283,0.7705,1.4252,-0.9107,0.4301,-1.6136,0.5355,-0.7291,0
186,3476000,-0.2479,-0.0766,9.7379,0.1933,-0.1151,-0.1935,28.6441,-11.4445,39.9964,-1.3378,-0.1968,-0.6364,-0.3554,1.3804,-0.4127,0.4256,-0.1097,1.0906,1.7719,0.842,-1.1318,-0.6926,1.3411,0.2356,0
187,3489000,0.0301,0.1023,9.8751,0.4671,0.2894,0.4827,28.8126,-9.0264,39.2854,-1.1324,0.1782,0.1804,1.2934,-0.3547,-0.0605,-0.7834,0.9079,1.2878,1.2256,-1.515,-0.6732,-0.8205,-0.2424,0.9644,0
188,3504000,0.0744,-0.0445,9.7965,0.5853,-0.259,0.3718,30.6105,-9.8925,41.0106,0.6517,0.9799,-0.3781,0.3998,0.046,1.1241,-0.9245,-1.5018,1.5655,-0.2323,0.8161,0.0262,-0.2742,0.5032,1.4485,0
189,3516000,0.1097,0.1255,9.6659,-0.5809,0.053,-0.4552,31.2003,-10.089,40.1297,-0.7423,0.6443,-0.1985,-0.1421,0.4351,2.2852,0.593,-0.5464,-1.9933,-0.4612,-1.8167,-1.2002,1.0142,-0.6753,0.4017,0
190,3529000,-0.1269,-0.1393,9.8141,0.1624,-0.3745,-0.4365,32.3284,-8.1148,40.6319,0.1082,0.7709,-0.0246,0.2041,1.0475,1.0223,-1.2722,0.2278,-0.2919,0.3843,-0.5985,-0.4937,-2.1773,-0.227,0.8909,0
191,3542000,0.0213,-0.2438,9.805,-0.7787,0.6973,0.6248,30.308,-9.6748,38.8854,1.5136,-0.1808,0.6405,0.4294,1.0128,0.0974,-0.735,0.1162,-0.2242,-0.2492,1.3159,0.0432,-2.1505,-0.6725,0.082,0
192,3555000,-0.1322,0.0388,9.7644,0.425,-1.0114,-0.9484,30.3876,-9.7245,40.0288,0.4395,0.731,-3.2047,0.8106,-0.2276,0.6608,-2.2193,-1.5818,-0.1711,0.3949,1.7072,1.8993,-0.4201,0.633,0.5064,0
193,3572000,0.0491,-0.1198,9.857,0.1691,0.2072,-0.0311,30.8719,-9.1108,38.8689,0.3315,-0.1832,1.663,0.4517,2.7299,1.2648,-1.3431,0.6384,-0.1881,-0.2011,0.5754,-1.5141,-2.3881,0.4509,-1.6785,0
194,3582000,0.0162,-0.099,9.7743,0.2896,0.576,0.2252,31.0006,-12.0447,41.3228,-0.9165,-1.3654,0.7781,0.1102,-1.2812,-0.3453,0.7952,-0.5215,0.0653,-0.1723,-0.3254,-0.4107,-0.4911,-1.267,-0.2084,0
195,3596000,-0.0531,-0.0401,9.8533,0.1864,-0.1027,0.7366,30.4412,-9.2348,40.6553,0.7266,-0.8694,-0.465,0.0448,0.7411,0.4232,-0.5304,1.4993,-0.1046,0.4535,-1.2536,-0.3416,-0.077,1.6277,0.4458,0
196,3606000,0.1785,-0.1336,9.8589,0.3161,0.5175,-0.6733,29.8453,-10.5025,40.0234,-0.6706,1.3431,0.2028,-0.4248,0.5891,1.4544,-1.1162,0.0777,0.9861,-1.1718,-0.5661,-0.596,-1.6863,-1.1526,0.3482,0
197,3621000,0.1405,-0.1204,9.7489,0.1479,0.6271,-0.1051,31.8278,-8.8851,41.6164,0.9287,0.1321,0.9537,-0.3215,0.3669,0.1361,0.5149,0.7869,0.6197,-1.1845,0.309,-0.096,0.1427,0.7488,-0.3245,0
198,3631000,0.021,0.159,9.8254,-0.0775,0.1465,0.3315,30.8821,-11.1184,38.1702,-0.5294,0.5835,-0.953,-0.2064,-0.3917,-1.1307,1.8798,-0.3858,-0.7228,0.568,-1.1993,0.3264,0.0194,-0.8014,-1.1868,0
199,3642000,-0.0014,-0.1109,9.9248,-0.6315,0.4858,0.3214,28.591,-10.0783,38.7388,-0.4529,0.4868,1.1842,0.5518,0.1927,-0.3561,-0.4275,-0.7625,-0.0375,1.2165,-0.937,0.9917,0.2638,0.0287,-0.1941,0
200,3653000,0.2284,-0.1106,9.8332,0.0588,-0.5104,0.1753,30.268,-9.5195,38.8591,-0.6139,-1.5046,0.5913,0.4704,-0.2625,-0.2303,0.619,-0.8286,1.7467,0.0556,-0.1351,1.7693,-1.4299,-1.0238,-2.0194,0
201,3663000,0.0491,0.0274,9.7619,-0.3701,0.0573,1.2272,30.3232,-10.523,40.3253,-0.0766,-0.4143,0.2201,0.1653,-1.331,-0.4946,0.4864,0.3616,-1.049,-0.5633,-1.5853,-1.1274,-0.0868,-0.3408,1.7786,0
202,3674000,-0.0088,-0.1,9.7411,0.2833,0.1452,-0.5478,30.7246,-12.321,39.9886,0.5761,-0.8061,-1.4362,-0.6615,0.4746,0.4092,-0.0916,-0.4058,0.5313,-0.2713,-1.4476,0.0865,-1.7039,-1.603,-0.5723,0
203,3684000,0.0848,0.1213,9.7573,0.5266,0.0932,0.4199,28.9995,-10.2405,38.4863,-0.6033,1.0851,-0.2211,-1.6786,-0.037,-0.5364,-0.7699,1.775,0.7224,-1.3636,-0.0579,-0.5014,0.5141,-0.9215,0.2014,0
204,3695000,-0.0932,0.1096,9.8561,0.0191,0.5769,0.1804,30.6621,-9.4796,41.5408,0.9826,-1.4008,0.4743,-1.7106,1.1702,0.2281,0.4579,-2.4512,-0.2586,-0.3237,1.2461,-2.0954,0.6821,1.6137,-0.0098,0
205,3706000,0.033,0.0152,9.753,0.6514,-0.6636,0.3134,29.8335,-11.6191,41.0687,0.2234,-1.3036,-0.0565,-0.2483,1.2425,0.5098,1.0791,-0.733,0.2206,2.1569,-1.0024,-1.9552,-1.9625,0.5101,-0.0723,0
206,3716000,0.0181,0.0714,9.7384,-1.0806,0.3936,0.0596,29.0672,-9.7659,41.3572,-0.1821,-0.9885,-1.1248,-0.8034,-0.1248,-1.594,1.4464,-0.3642,1.4697,-0.0107,1.8033,0.5043,-1.1489,-1.509,1.8796,0
207,3754000,-0.0185,0.0837,9.8376,0.4559,0.121,-0.6232,27.9526,-9.5147,40.1922,1.0556,-0.9058,-0.3025,1.3721,2.0633,-1.5463,-0.8715,-0.6113,1.3135,0.7924,0.0657,-0.0044,-0.2703,1.668,-0.964,0
208,3765000,-0.1079,-0.0256,9.8257,0.1499,0.5181,1.0358,29.1549,-9.0629,40.3797,0.6063,0.216,0.5581,0.2105,1.3724,1.6539,1.2285,0.7941,-0.4204,-2.0906,-0.3591,0.9883,-1.2521,-1.0599,1.3062,0
209,3775000,0.0976,-0.087,9.8472,0.8932,0.3586,0.6933,29.6007,-8.9829,39.9218,0.4639,-1.3661,0.5422,-1.2234,0.8288,0.6602,0.5822,0.8213,0.5891,1.7898,-0.7038,0.6561,0.0727,-0.4338,-1.1893,0
210,3790000,-0.0491,0.1118,9.7736,-1.3862,0.858,-0.619,28.9031,-10.2259,40.0954,-0.9033,-0.2078,1.0364,1.8427,0.7248,0.4648,1.2879,-1.099,0.6126,2.0341,1.6471,2.1784,0.7792,0.5391,0.5828,0
211,3801000,0.0212,0.1705,9.8806,-0.466,0.4463,0.078,29.1295,-10.3135,40.6223,1.2303,0.1156,-0.8337,-1.1629,-0.9139,-2.9006,0.01,0.2691,0.545,-0.961,1.7333,1.2536,0.392,-1.3422,0.5096,0
212,3812000,0.0844,0.0072,9.8422,0.3331,0.1419,-0.5139,30.891,-9.9606,41.5412,-0.2932,-0.6681,-0.0277,-2.49,2.5241,0.1768,-0.6405,-2.1156,0.433,-0.1448,0.6376,0.6482,0.5573,0.7435,0.878,0
213,3825000,-0.1392,-0.1557,9.8056,-0.3385,-0.5963,0.2375,29.9622,-10.3386,39.5638,0.6428,0.5939,0.6995,-0.176,0.6234,-0.1906,0.4904,1.2369,0.9684,1.7498,-1.2844,0.0461,1.248,-1.6612,0.7399,0
214,3839000,0.0027,-0.1128,9.8165,-0.1139,-0.0352,-1.3438,31.041,-9.7704,40.7144,0.4306,-0.8045,-0.9387,2.1671,-0.6256,0.9083,-1.3587,0.3294,1.0046,-1.7067,0.4575,1.291,-0.1941,1.0721,1.0941,0
215,3850000,-0.0443,-0.0333,9.7667,-0.1978,-0.3828,-0.0718,30.6156,-10.3169,40.4674,0.8195,-2.3926,1.5693,0.5645,1.0126,1.029,0.228,-0.9055,0.1305,-0.4639,1.3861,-0.3253,1.6601,-0.322,1.844,0
216,3860000,0.0866,0.126,9.7642,0.1834,-0.3034,-0.1634,28.4797,-12.0932,42.134,2.0247,0.0941,-0.575,-0.5609,1.1034,0.6086,0.5705,0.1379,1.2208,1.3888,0.493,0.0861,1.9229,0.8714,-1.1112,0
217,3871000,-0.1513,0.1173,9.7504,0.1365,0.4442,0.0239,30.2817,-7.6002,40.6293,0.7141,-0.4307,-0.2226,-1.1182,-0.2323,-1.1488,0.024,-0.1296,-0.798,0.6545,0.541,0.3045,1.5764,0.4318,0.093,0
218,3882000,0.0043,0.0089,9.6652,-0.4204,-0.0259,-0.1967,30.4832,-9.6491,38.8688,-3.0056,-0.2728,0.0325,-0.4339,-1.0668,1.097,2.7464,-1.3206,-1.4425,0.5836,-1.0339,0.5552,0.1366,0.2726,-0.7636,0
219,3894000,0.1539,-0.1083,9.8144,0.357,-0.0933,-0.6545,28.8733,-8.0204,39.0529,-0.6265,0.2781,0.085,-1.4922,0.3398,-1.2326,-1.5717,0.6119,-0.985,-0.8351,1.1696,-0.6259,-0.7238,-2.2945,-0.2546,0
220,3907000,-0.1526,-0.0282,9.7672,0.1193,-0.5887,0.0712,28.7962,-10.7112,42.4625,1.3556,-1.0403,0.7707,-0.9082,-0.3968,-0.1021,-0.7915,0.1586,0.893,0.0782,-0.3958,0.4735,-0.3147,1.197,-3.5616,0
221,3918000,0.0053,0.0488,9.7668,0.3957,-0.5144,0.1014,29.4471,-10.038,39.6105,-2.2035,0.5011,0.6367,-0.1825,-0.7111,0.1587,0.0355,0.4803,0.5939,-0.4302,-1.5797,0.9766,-0.1837,1.2508,-0.5651,0
222,3929000,-0.1177,0.0244,9.8887,0.246,-0.027,-0.1441,28.5804,-9.5344,40.7948,1.4766,0.2244,1.4297,1.3046,-0.5506,-0.1791,1.8958,-0.7852,1.3037,-0.2273,-0.9667,0.4486,-1.927,-0.5116,1.4674,0
223,3940000,0.0378,-0.0752,9.9375,-0.8319,-0.0834,-0.0814,30.5936,-9.4057,41.4966,0.5572,-0.1833,0.2271,-1.7275,-1.3842,1.6294,0.1231,0.2489,1.1533,0.5668,0.781,0.7468,0.1236,-1.0824,-1.6222,0
224,3950000,-0.0583,-0.0107,9.82,0.0912,0.3005,0.4,29.7629,-10.8105,40.1845,1.2036,0.7657,0.0064,-0.1684,-0.9724,0.7758,-0.605,1.4593,0.0866,0.3989,0.6188,-1.685,-1.3121,0.443,0.1377,0
225,3961000,-0.0447,0.0745,9.7744,0.8251,0.367,0.5846,30.1532,-8.8828,39.009,-0.2088,1.1403,-0.4995,-1.2835,-0.7901,-0.885,-0.156,1.4152,-1.5966,-0.0394,0.3711,1.0387,1.0149,0.0201,1.7607,0
226,3972000,-0.0822,0.008,9.789,-0.6756,-0.8779,-1.1088,30.5352,-9.7376,39.6722,-0.3372,0.7609,0.0396,0.9964,-0.2636,-0.9669,-3.0343,1.2874,-0.326,2.5799,-0.6798,-0.0113,1.5475,0.6907,0.4954,0
227,3982000,0.0773,-0.1754,9.7404,0.1514,-0.3811,-0.6807,29.8937,-9.2164,40.0009,0.8955,-1.6204,1.2645,-0.2684,-0.9658,-0.005,0.469,2.0887,-2.217,-2.3699,0.6177,0.2274,-0.0576,-0.2433,-0.0558,0
228,3994000,-0.1455,0.0318,9.8774,0.2727,-0.3869,0.2738,28.8684,-9.8418,39.3483,-0.6683,-0.3205,-0.1043,-1.111,-0.4606,-0.7759,-0.4319,-0.1424,0.1501,0.6272,0.6827,-0.606,-0.086,-0.2757,-0.2515,0
229,4023000,-0.0351,0.0834,9.8235,-0.0979,-0.4961,0.3131,30.3803,-9.2636,39.927,-1.1174,0.612,0.766,0.9388,1.9032,1.7341,0.3901,-0.5185,0.9686,0.4601,1.1038,-1.0479,0.5354,1.8909,1.9993,0
230,4035000,-0.1394,0.0645,9.7444,0.196,-0.2343,-0.6282,30.2507,-8.7558,40.1215,-0.0611,0.1269,-0.3008,1.4356,0.5863,-0.0477,-1.1326,0.1049,-1.3929,0.1937,0.7165,-1.17,-0.8617,0.5485,0.1091,0
231,4046000,-0.0373,0.0482,9.712,0.3721,-0.0812,1.026,31.4785,-9.9138,39.6286,0.7554,-0.3123,1.4504,1.8711,0.1803,-1.1084,-0.5758,0.93,-0.7492,-1.3102,1.0815,1.7868,-0.0026,-0.3369,0.0149,0
232,4057000,0.0269,0.0516,9.7915,-0.5237,0.4709,-0.5105,29.5814,-9.236,40.1599,0.7607,-1.722,0.5444,-0.6669,0.5218,1.4438,0.3888,1.1536,1.3061,0.3618,0.1621,-0.9151,0.635,-0.3424,2.1152,0
233,4072000,0.0727,0.1063,9.8727,1.5263,-0.4399,-0.3712,30.2399,-9.2992,40.5747,1.2339,0.8724,0.4316,-1.0707,-0.6733,-0.2629,-0.1169,0.3448,1.0895,0.9076,-0.4814,-1.119,1.7077,1.0493,-0.3457,0
234,4085000,0.1323,0.1604,9.7591,0.0728,-0.713,-1.0264,30.7882,-9.9206,40.8121,-0.068,1.1957,-0.9815,-0.8768,2.1998,1.4095,-0.0403,1.9597,2.0045,0.7786,0.8307,-0.6375,1.0481,1.6158,-0.8627,0
235,4095000,0.0362,-0.0188,9.7722,-0.0079,0.0185,0.1978,28.5434,-9.7607,39.9749,-0.101,-1.1247,0.5246,-1.6124,0.8628,-1.1372,-1.0671,-0.6222,0.7519,-1.1379,-0.807,0.1432,-0.6504,-1.1496,1.4729,0
236,4114000,-0.1788,-0.0301,9.7925,0.3612,-0.7475,0.5097,29.2565,-9.9616,39.6996,1.3488,0.5241,-0.0207,-0.6868,1.9499,-0.6158,-0.0221,-0.5325,1.4023,-0.697,1.1222,1.191,-1.4382,-0.0487,0.0309,0
237,4125000,0.0843,0.0237,9.8036,0.3142,0.4279,-0.3176,29.1839,-9.8769,39.8657,0.4895,0.7914,-0.8451,-1.1639,-0.0758,-0.2867,-0.3814,0.23,0.2657,0.6492,-0.0605,-0.8838,-0.4233,-0.7125,0.9195,0
238,4139000,0.0435,-0.0175,9.8312,-0.33,0.5578,-0.4916,30.2503,-11.729,40.5377,0.3377,1.7716,-0.9485,1.6056,0.6103,-0.0698,-0.1405,-0.1976,1.4735,0.7583,-1.7682,-0.43,-0.6453,2.0336,0.6024,0
239,4149000,0.0249,-0.2344,9.8384,-0.7142,0.4193,0.3197,29.424,-9.5482,38.4699,-1.6624,0.5691,1.579,-1.0575,-0.0373,1.9082,-0.3243,-0.1947,0.4277,-0.5777,-3.1255,0.0069,0.1644,0.378,0.8346,0
240,4160000,-0.1224,0.0936,9.7864,-0.2322,0.4647,0.3995,30.9836,-10.6831,39.579,0.4431,0.5934,0.1441,1.3795,-2.421,-0.8821,0.0013,1.3305,-1.3024,0.4231,-0.5774,-0.0307,-0.4938,0.1418,0.6488,0
241,4172000,0.2372,-0.1264,9.7006,0.2077,0.2516,0.7643,28.9346,-10.1911,39.6311,-0.0436,1.1638,0.9311,1.5614,-0.6904,0.3243,-1.3305,1.224,0.9309,0.1939,0.1551,1.022,1.4732,-0.7415,1.0375,0
242,4183000,0.0927,-0.0428,9.8321,-0.6544,0.1736,0.3158,29.7423,-10.5111,38.8783,-0.209,0.3458,-0.7521,-0.6027,-1.0538,-1.0651,1.1325,-1.0455,-1.4355,-1.7453,0.6727,-0.2735,-1.1974,-0.3302,-0.0361,0
243,4194000,-0.0845,0.0692,9.7964,0.3329,-0.227,1.212,28.5376,-9.8801,40.8771,-1.2465,-1.5965,-0.1267,0.1656,0.7765,0.644,0.6167,-0.3968,0.0267,0.5221,-0.7077,0.5142,1.5498,-2.5543,-1.3408,0
244,4207000,0.1954,-0.193,9.8184,0.6048,0.1226,0.4969,30.2851,-11.4851,40.3407,1.6435,1.0474,0.6342,0.933,-0.143,-0.3853,0.9348,-0.369,0.2768,-1.8719,0.6339,-1.0713,0.0487,1.8076,0.2475,0
245,4219000,0.0333,-0.0648,9.787,-0.4072,0.5897,0.4683,30.3944,-9.1528,39.9381,0.3122,-0.5777,-0.5639,1.7696,-0.4009,-1.4609,1.5989,1.0436,-1.0213,0.4836,0.9491,1.1606,-0.0262,1.3425,1.3984,0
246,4232000,-0.1295,0.0397,9.7983,-0.2623,1.0846,-0.1333,29.3784,-8.3232,38.1068,0.0132,-1.9038,0.6606,-0.45,-0.4818,0.1736,-0.9027,0.4482,-0.8289,0.8176,1.0742,-0.5142,-0.5367,-0.3461,-0.4019,0
247,4243000,0.0476,-0.1089,9.8154,1.6138,0.1597,1.1578,31.0667,-9.8353,40.6786,-0.1034,-0.4794,1.7604,0.8296,-0.4283,1.4927,0.8564,0.4393,-0.0563,0.7766,0.0185,0.0949,-0.7177,-0.9322,1.0929,0
248,4254000,0.0843,0.0873,9.8309,-0.3423,0.4104,-0.1171,27.773,-10.4144,38.3995,0.0192,-0.8303,0.4245,0.6437,0.8851,0.2661,-0.0722,-0.6714,-0.7354,-0.6509,-1.8805,-0.7517,0.6109,-0.2503,1.1986,0
249,4264000,0.05,0.0994,9.8765,-0.5556,-0.1867,-0.3377,30.7056,-10.4687,38.8033,-1.3894,0.0462,0.3599,-0.3729,-0.3265,-0.319,0.6378,1.7069,2.0889,-0.4219,0.8893,-0.9747,-1.8243,-0.1917,0.2439,0
250,4278000,0.0058,0.0153,9.8951,0.9162,-0.5553,0.6752,28.5565,-9.667,41.1697,0.2926,-1.1182,0.4219,-0.4114,-0.4936,-0.4653,-0.5754,0.1087,1.7476,-0.2449,0.3989,1.4806,-0.7538,-0.02,0.0906,0
251,4308000,-0.2357,-0.098,9.7622,0.6492,-0.1362,-0.5528,31.1361,-8.684,39.2178,0.519,0.4545,-0.5451,-0.9259,0.4423,0.5244,0.091,-1.3685,1.6265,-0.8172,-0.7027,-1.0477,0.899,0.1921,0.7851,0
252,4319000,-0.066,-0.2126,9.818,-0.4439,-0.0217,0.1473,28.2003,-11.848,39.241,-1.0161,-1.12,0.2401,-0.1594,-0.9707,-1.46,0.0292,1.0678,-0.9712,1.6664,0.1248,-0.8094,0.4252,-0.2319,1.7312,0
253,4329000,-0.0527,-0.0235,9.7667,0.2036,0.0942,-0.0632,30.4392,-9.7426,40.0885,-0.2419,-0.6874,-1.929,1.3229,0.7164,-1.5463,-1.4782,0.9094,-1.2283,2.7987,1.2828,-1.3113,0.9268,1.0426,1.2179,0
254,4340000,-0.0887,0.0351,9.7539,-0.1078,0.5583,0.2131,27.2108,-9.4194,39.3227,0.7436,-0.9374,-0.442,-0.4878,-0.5754,1.0422,-1.9773,-1.5396,0.2843,-0.7169,0.3106,0.3842,0.8577,1.2882,0.3278,0
255,4355000,-0.0016,0.1991,9.842,-0.243,-1.0149,0.365,30.1705,-9.9926,38.6631,0.6045,1.0044,-0.172,-0.6451,-0.0528,-0.1487,0.8514,0.1327,-0.0822,1.928,-2.4325,-1.1556,0.6594,-0.9653,-0.375,0
256,4366000,0.1782,0.056,9.7725,-0.002,0.4917,0.12,29.8946,-11.1018,39.0961,1.8681,1.0326,2.0399,-0.1427,-1.2114,0.1897,-0.4378,0.0077,1.0257,-0.9129,0.9755,0.4861,1.6237,-0.2976,1.0553,0
257,4378000,-0.0159,-0.1257,9.8235,-0.3174,0.1296,-0.6761,29.0737,-9.2036,41.6127,0.7122,0.387,1.1787,2.6226,-1.0867,0.7784,0.1911,-1.6413,0.489,0.5297,-0.5668,-0.6136,0.2803,-0.7341,1.7021,0
258,4390000,-0.0284,-0.0533,9.7743,-0.2386,-0.5535,0.0317,29.7872,-7.9024,40.5762,-0.1459,0.3277,0.2911,1.4089,0.4165,-0.3597,-0.1477,1.5491,1.2532,0.9405,0.5675,0.7526,0.3851,-0.7509,0.2465,0
259,4401000,0.0314,-0.0623,9.8847,0.4493,0.9535,-0.0412,29.2661,-10.5486,39.109,0.9277,-0.6539,-0.4665,-1.5798,1.9266,-0.7921,0.7496,0.3186,0.8893,0.0534,-2.1619,0.005,1.104,0.2605,-1.0501,0
260,4412000,-0.0146,-0.1367,9.857,-0.863,0.2267,-0.4512,31.1605,-11.5761,43.5673,0.6993,0.286,-0.2635,1.5078,-1.0104,-1.3876,-0.0779,-0.593,-1.132,2.1658,-0.3944,-0.0906,0.0781,-0.3784,-0.4789,0
261,4424000,0.1001,-0.028,9.9008,-0.1692,-1.3385,0.9712,30.4886,-10.4629,39.5013,-0.3066,1.016,1.5432,0.0722,1.3534,0.6988,0.6151,-1.203,-1.252,-0.4958,1.3002,1.1831,1.3131,-0.6867,-0.8198,0
262,4438000,-0.0651,-0.0375,9.7404,-0.4339,-0.6892,0.1049,30.0141,-9.9152,39.2072,1.8039,-1.6487,0.5539,0.274,-0.5592,0.6936,0.8588,0.1368,1.0242,0.3394,0.292,-1.5165,-1.2053,-0.8627,-0.8962,0
263,4448000,0.0771,-0.1101,9.8645,0.5505,0.5199,-0.3269,30.8737,-10.3771,39.5988,0.4517,2.046,0.7535,-1.6097,1.1763,0.721,0.0776,0.6337,0.6954,0.8321,-0.3928,0.3773,-0.7221,-0.1916,-2.2834,0
264,4459000,-0.1812,0.1304,9.7654,0.6053,0.4508,0.2119,28.9586,-10.706,40.9233,-1.3044,2.3689,-0.2426,1.3085,1.3668,-0.4547,-1.0841,2.0067,1.2586,-0.6278,-0.7008,0.5744,0.6262,0.7326,1.6022,0
265,4469000,0.143,0.0422,9.7904,0.3343,-0.0548,-0.0707,31.1935,-12.6389,39.7366,0.9798,0.5326,-0.3162,0.0163,0.3385,-0.9349,0.0813,1.7556,0.5482,-0.3553,1.9099,-0.7401,-0.1154,-0.6515,-0.9461,0
266,4480000,-0.0476,0.0988,9.791,0.8258,0.5353,-0.525,31.6674,-9.8452,40.0587,-0.8121,1.0996,-2.3871,-0.3601,-1.2991,0.2293,-0.7056,-0.6944,-0.1204,0.1817,1.636,-1.4948,-0.6049,0.2967,0.6722,0
267,4492000,-0.0171,0.0325,9.8467,-0.1448,0.509,-0.4536,31.0441,-10.2285,39.984,0.9219,1.0565,-1.0283,-0.8373,0.2479,-0.5985,1.8027,0.6832,-0.8632,1.1029,0.6495,-0.6681,2.159,-0.1006,-1.675,0
268,4505000,0.0294,-0.2393,9.8033,-0.0612,-0.0265,-0.4379,28.853,-10.4764,40.3042,0.8145,-1.1201,1.4752,-0.2667,-2.4806,-1.6278,0.616,-0.1919,-0.1721,1.427,-1.1194,-1.2106,-1.2395,-1.0219,-1.5719,0
269,4516000,0.2688,0.0745,9.7862,0.7155,-0.2368,0.5778,29.1984,-9.8351,42.177,-0.624,0.1201,-0.7972,-0.3517,0.1187,0.6232,0.5114,0.9487,0.5703,-0.4297,1.9284,0.7144,-2.5525,0.8011,-1.6973,0
270,4526000,0.075,-0.0181,9.7248,-0.2546,0.4591,-0.6309,29.4156,-12.3084,38.7199,-2.1093,0.3732,0.6733,-0.8134,0.1166,1.1747,0.3909,0.931,-1.1414,-0.5908,0.1068,0.5098,-0.8356,-1.0741,2.181,0
271,4540000,-0.1973,0.1086,9.7583,0.1796,-0.518,0.0974,30.1145,-8.3732,41.0204,1.7488,0.9808,-0.5362,2.0918,-0.5172,-0.1667,-0.1356,-0.1444,0.7198,0.5989,0.7823,0.821,-1.1248,0.309,-0.1004,0
272,4550000,0.1079,0.0062,9.8274,0.4084,-0.9379,0.1608,31.2014,-11.2998,37.5192,0.9176,-1.2498,0.0753,0.9431,1.6743,1.0372,-0.3232,0.8,-0.7964,-0.4994,2.1752,-0.3996,-0.4796,1.3269,0.1587,0
273,4581000,-0.035,0.0034,9.9115,-0.3797,0.1657,-0.2156,29.5028,-10.275,40.4499,0.1212,1.5326,0.5524,0.1569,-0.6053,0.1713,2.4797,-0.0859,1.3678,-0.3825,1.3727,0.8656,0.5078,1.3436,-0.6826,0
274,4592000,-0.0104,0.2093,9.7571,0.8212,0.0121,-0.2566,29.4618,-8.7033,38.334,-0.9301,-0.6203,-1.1888,-0.9954,0.7675,-0.277,0.1253,-1.3433,0.4492,-0.2759,0.4642,-0.7809,1.7799,0.6455,-0.3492,0
275,4606000,0.2085,0.1484,9.7091,0.7608,-0.1331,0.0404,30.9244,-10.6199,41.09,-0.1148,-0.4778,-1.9287,-1.3889,1.04,-1.4401,-1.5296,-1.0066,-0.7153,-0.2013,-0.4628,-0.336,-0.8838,0.2633,1.0692,0
276,4617000,0.0843,0.0322,9.7417,0.0246,0.5836,-0.4042,30.7608,-9.1076,38.4556,0.6533,-0.3495,-0.1793,-1.6633,-0.8031,0.7674,-1.6002,-0.661,-1.8028,-0.1523,0.4801,-0.81,-2.3617,0.133,-1.0299,0
277,4629000,0.0756,0.0599,9.7576,0.5725,0.1988,0.1041,28.3629,-8.719,41.9004,-1.0794,0.1733,-0.88,-0.2699,-0.2716,-0.0484,0.6452,1.0661,0.6163,-0.6639,0.1585,0.651,-0.2783,-0.0697,1.1469,0
278,4642000,0.0481,-0.2275,9.7561,-0.4373,0.1888,0.1637,31.603,-8.2856,39.7703,-1.7224,2.4805,-0.1082,-0.0107,-0.0457,0.6179,1.0006,1.063,0.0435,-2.5779,0.955,-0.5228,1.1615,-0.7411,0.1453,0
279,4653000,-0.1963,0.0553,9.8,0.3511,-0.2085,0.633,30.6992,-9.7011,42.3297,1.436,-0.2389,0.1877,0.3163,-0.1683,-0.3415,0.3614,0.4653,-0.6208,2.9281,0.6272,0.3369,0.9047,-1.1305,0.1239,0
280,4665000,0.2105,-0.0299,9.7621,-0.1849,0.2141,-0.4183,31.4321,-9.2245,38.872,3.3234,-0.42,-1.713,0.377,0.1879,0.3762,-0.0877,0.7284,-0.4077,-0.7564,0.0341,1.3095,-0.2983,-0.4606,0.3779,0
281,4676000,-0.052,0.1016,9.8653,0.1915,0.7061,0.7399,29.595,-9.7375,39.7695,-0.3134,-0.0415,1.8641,-1.8351,-1.5179,0.3222,0.1732,1.1155,-0.242,-1.029,0.2969,0.7881,-0.5809,0.0101,1.185,0
282,4687000,-0.0254,0.1933,9.7777,-0.3026,-1.063,0.7096,30.8148,-9.879,40.6021,0.2841,-0.5149,-0.2279,1.6487,2.1976,-0.4955,-0.6929,-1.5907,-0.1814,1.9469,-1.4905,0.1956,1.2898,-1.9949,-0.8072,0
283,4698000,-0.0467,-0.0626,9.7415,-0.0139,0.2225,-0.3593,28.4605,-10.6907,39.2225,-1.4635,0.5278,-0.2834,-1.2035,0.5407,2.824,-0.706,0.7937,0.0531,1.5081,0.9806,2.5693,-1.2428,-1.0909,0.6785,0
284,4709000,-0.0785,-0.0456,9.7017,0.7656,-0.4326,-0.2014,29.1322,-8.6398,39.2656,0.1093,0.3819,0.2669,-0.6435,-1.1523,-1.0945,-1.5202,1.1315,-1.5385,-0.6636,-0.0393,0.5876,-2.0937,-1.0268,-0.6786,0
285,4720000,0.0889,-0.2201,9.8326,-0.0049,0.1965,-0.2568,29.7892,-8.5872,39.9588,0.9066,-0.7288,0.0434,-0.1463,-0.1017,-0.2243,0.7735,0.5395,1.5012,-0.4966,-0.7239,0.5643,-0.4264,-0.1878,0.3182,0
286,4731000,-0.0539,0.0724,9.8573,0.5891,0.1029,0.3485,30.6961,-10.5284,38.5236,1.0223,0.8128,0.2185,3.2869,-0.8708,-1.4755,0.4465,0.1119,0.825,-0.0365,0.8402,0.9651,-0.4167,0.611,0.5121,0
287,4743000,0.0741,-0.1232,9.8707,1.1129,-0.1,-0.5035,28.3895,-10.0166,40.6286,-1.3256,-0.2256,0.6455,0.2354,-1.1,-0.564,-1.471,-0.4719,-1.9827,2.4676,0.9579,0.2824,0.1246,1.9617,-1.3827,0
288,4758000,-0.0832,0.1381,9.8179,-0.1519,0.1683,0.6774,29.1751,-9.6442,40.0485,-0.3429,-1.2106,1.2293,-0.4519,1.6436,0.2277,-0.5044,0.8933,-0.3737,0.1654,-0.0912,0.9506,-0.1632,-1.3734,-1.1874,0
289,4769000,0.0161,0.1,9.7728,0.8217,0.0344,-0.2985,30.0403,-10.9845,40.4083,-0.218,-1.3584,1.1429,-0.795,0.435,0.2316,-0.0245,-1.1961,-1.4568,0.8259,-0.6751,-1.896,0.2296,2.0551,-0.4317,0
290,4780000,-0.1117,-0.0739,9.8102,0.6736,0.3797,0.7235,31.0522,-9.9359,40.3216,0.111,-1.1714,-0.8502,-0.9259,-0.5823,-0.3051,0.0902,1.9699,-0.9977,0.5892,3.292,-1.2942,-1.2211,2.1225,-1.0575,0
291,4791000,0.0803,-0.0281,9.9592,0.3809,-0.0398,-0.574,30.1999,-10.8984,42.0361,2.0539,1.3726,-0.7163,0.1452,-0.4929,0.875,1.0454,-0.844,-1.1581,0.2133,0.0991,1.3687,0.9894,-0.185,0.0588,0
292,4802000,-0.0137,-0.1853,9.7461,-0.319,0.3708,-1.2373,30.2105,-9.9884,40.3392,0.8518,1.5957,-0.4023,-0.4643,-0.2284,1.3488,-0.7309,2.1583,-1.0539,-0.8478,-0.3117,0.0187,0.7286,-0.9249,-0.8536,0
293,4812000,-0.0069,0.0208,9.7598,-0.0487,0.428,-0.3356,32.0255,-9.9272,40.4285,-0.7866,-0.5205,-1.0192,0.4301,-0.3095,0.8995,-0.1565,1.6195,0.2214,0.8146,0.4075,1.2321,-2.1988,-0.8502,0.122,0
294,4823000,0.0421,0.1836,9.7939,0.8298,-0.5256,0.2671,29.9569,-9.7956,41.8307,-1.7185,-0.6918,1.2697,0.263,-0.2421,0.7843,0.1321,1.016,2.3566,0.7311,0.6363,0.7955,0.4389,0.0639,-1.2565,0
295,4858000,0.0448,-0.0482,9.776,0.0519,-0.5928,0.1883,28.5288,-11.8597,40.8885,-0.2781,1.4426,-0.9821,-0.3735,0.8051,-0.6016,0.3927,-3.1264,-1.3432,-0.3121,1.055,-1.6485,-0.6713,2.008,0.7387,0
296,4870000,-0.0025,0.1123,9.8128,-0.3083,1.2341,0.2815,30.2627,-9.7076,40.8766,0.2765,-1.3363,-0.5716,0.794,-1.016,-0.0124,0.964,0.1782,0.1502,0.0559,1.0693,0.4376,0.9364,1.0518,-0.0174,0
297,4883000,-0.0218,-0.08,9.7761,-0.2181,-0.1963,-0.3366,29.2744,-9.7339,40.6323,-0.9664,0.0121,2.1671,0.2037,-1.1225,0.5403,0.1772,-0.1404,0.2581,-0.4391,0.5778,1.9388,-0.5128,0.1961,0.2816,0
298,4894000,0.0737,-0.0552,9.6486,0.1639,-0.5357,0.0804,29.4563,-8.4163,39.8906,-0.5902,-1.0638,0.0697,-2.5783,-0.9836,0.9189,-0.0877,0.004,0.2448,1.8881,1.0396,0.1821,-0.1625,-1.0772,2.0972,0
299,4905000,-0.1111,-0.0628,9.7905,-0.6926,-0.8505,0.8918,30.0596,-9.8688,39.393,1.5371,-0.6058,1.6079,0.1583,-0.5322,1.85,0.9435,1.5219,-1.6243,0.015,0.7957,-0.5628,0.6176,-0.4556,0.7524,0
300,4919000,-0.0146,0.1096,9.8483,0.3227,0.0321,-0.3888,30.8206,-10.1832,38.1488,0.5497,-1.0002,0.9423,0.7323,-0.6856,-0.1684,-0.2212,-1.3967,-0.1851,-0.5724,1.1076,0.1924,1.5594,-0.2327,-2.0415,0
301,4932000,-0.0808,-0.0247,9.6987,-0.3231,0.015,-0.0068,30.8172,-9.8982,37.6926,-0.2548,-1.6617,-0.9213,1.3415,0.3774,-0.4756,1.899,-1.2435,1.488,-0.1045,0.1881,-0.6409,0.3573,0.9778,0.9134,0
302,4999000,0.0343,-0.0629,9.7793,0.165,0.21,0.4136,29.9045,-9.8212,39.7104,-1.9034,0.3386,-1.5011,0.3165,-0.2097,-0.3465,0.6508,-0.6961,0.0927,-1.3834,0.6641,-1.5881,1.1994,-0.3878,-0.0385,0
303,5013000,-0.0309,-0.2633,9.8259,-0.8445,-0.718,0.1066,28.9356,-10.0775,41.7759,-1.0454,0.5906,-0.3372,-1.1531,-0.6796,0.1253,2.3513,-0.5331,1.4217,0.388,-0.2128,-0.7759,1.3319,0.0289,-0.8712,0
304,5024000,0.0829,0.0648,9.6823,0.6595,0.7438,-0.0022,30.7059,-9.1301,39.2068,-0.2412,-0.2676,-0.4288,-2.5599,-0.7079,1.592,-0.1324,0.2117,-0.9096,-2.3318,-0.8553,-0.4196,-0.9043,-1.614,-0.8783,0
305,5034000,0.1762,-0.0738,9.7807,-0.2094,-0.1154,0.1759,29.0663,-8.21,39.1652,-0.4231,-1.7668,-1.9626,0.8245,1.1271,0.074,-0.1969,0.6538,1.4919,0.2596,0.2657,-1.2663,-0.5578,-1.799,0.9648,0
306,5048000,0.0287,-0.0405,9.8368,0.1012,-1.5952,0.8011,28.8708,-8.955,41.1236,-0.8454,1.2126,1.1791,-0.5106,0.7262,-1.9295,1.0806,-0.5617,-0.3045,-0.3449,0.4189,2.3269,-0.1391,0.38,0.178,0
307,5059000,-0.0573,0.0976,9.8424,-0.2555,0.2014,0.1157,30.6945,-10.2376,40.3035,-0.1103,-0.9494,-0.1885,-0.7563,-0.2567,-1.1982,1.22,-0.0419,0.8607,-0.8623,-0.2959,-0.461,-2.3251,0.8149,-0.0208,0
308,5070000,0.115,0.0475,9.823,-0.8526,-0.1722,-0.8621,31.106,-10.97,38.6358,-0.9372,-0.1019,1.829,0.0112,1.5467,0.6831,-0.8739,-0.4505,0.7565,-1.3541,0.5229,-2.8608,0.9488,-0.9653,-1.045,0
309,5080000,-0.0846,-0.1182,9.8608,-0.0189,-0.7758,0.4168,29.6313,-9.7673,38.8588,-0.251,0.8982,0.1709,-1.3493,-0.3685,-0.1992,0.9011,0.1375,1.3998,0.359,0.9772,0.7839,0.2752,-0.4915,-0.2083,0
310,5091000,0.1036,0.066,9.8592,0.168,-0.0255,0.0188,28.8771,-10.2792,40.2708,-0.5642,0.2645,-1.1383,0.6814,-1.2289,1.381,-1.008,-0.861,-0.766,-0.3231,0.6906,0.3008,-0.5068,-0.7909,-0.4652,0
311,5101000,-0.1229,-0.0061,9.7645,-0.1478,-0.2827,-0.4688,30.1656,-9.1431,40.8444,0.5911,-1.2055,-1.33,-1.0539,-1.3514,0.2212,1.2114,1.498,0.8993,0.7717,-1.4803,-0.5174,0.6146,-0.346,-0.2243,0
312,5111000,0.0538,-0.1241,9.8226,-0.0344,-0.2394,-0.3873,28.461,-8.9184,40.162,-0.7286,1.1868,0.8979,1.1638,-2.2283,0.8187,-1.8817,-2.1001,1.4913,-1.837,-1.3054,-0.2169,-0.1429,2.0024,0.0962,0
313,5124000,0.0714,-0.0585,9.8602,0.2075,0.0224,-1.139,30.2154,-10.9347,39.5453,2.0579,-0.6012,0.6795,0.988,0.4414,0.3483,-1.1275,-0.9192,0.7526,0.514,0.228,-1.1294,0.0455,0.4816,0.7197,0
314,5135000,-0.045,0.0242,9.8193,0.0555,-0.7259,0.3972,30.6337,-9.1454,39.5439,0.8066,-0.0173,-0.185,0.4256,-0.7015,-0.6865,0.9229,-0.3915,1.8022,-0.7419,0.3535,1.0312,1.7599,0.9088,0.3615,0
315,5145000,0.0526,-0.1171,9.7615,-0.9416,0.2503,0.1628,31.3372,-10.5285,40.5254,-2.0195,-0.7389,0.8277,-1.7759,0.1152,-0.8328,-0.2813,1.1977,0.7711,0.6571,0.4251,-1.4099,-0.7979,0.3561,-0.4092,0
316,5178000,0.0671,-0.1103,9.7069,-0.7463,-0.6582,-0.6405,29.846,-9.482,39.0307,0.4559,-1.4813,-1.1834,2.8806,-1.0082,-0.0702,-0.1996,1.09,-0.2653,2.4293,1.5678,-0.1277,0.5925,-1.6091,0.2132,0
317,5189000,0.1018,-0.0498,9.7021,-0.2783,-0.0588,0.3934,30.1159,-10.5479,40.7939,-1.0455,0.7589,0.7756,-0.4889,1.1606,1.5921,0.2397,1.119,0.9325,-0.2221,0.0091,-0.3318,-1.9894,-0.2216,-0.0633,0
318,5200000,-0.1524,-0.1193,9.8629,0.1811,0.276,0.6707,29.2398,-10.1501,39.735,0.7167,0.4136,0.6719,0.5009,-1.1646,-0.1574,0.0999,0.798,0.9656,1.2392,0.8919,-0.7863,-0.281,0.3597,-0.3847,0
319,5210000,-0.1187,0.0594,9.8375,0.6534,-0.067,0.3826,30.531,-9.9288,39.177,-0.3781,1.5641,0.2738,0.8795,-0.2069,-1.0124,-0.8965,-1.1192,2.1258,0.3238,0.6755,0.0683,0.8879,1.1334,-0.6263,0
320,5223000,0.171,0.229,9.7974,0.1051,0.9575,0.2321,29.0795,-10.5711,39.7856,-0.0995,-0.446,-0.2968,1.2213,-0.4712,-0.3517,0.0801,-0.4777,0.2737,0.9407,2.2909,-0.0396,-0.0318,-0.6831,-1.2604,0
321,5234000,0.0429,0.0293,9.8306,0.7091,0.6497,0.2496,31.1137,-7.2351,39.5894,-0.0337,-1.0624,-1.2514,-0.189,-2.0592,0.2758,-0.8276,1.6092,-1.628,0.3824,-0.7713,1.3776,1.1643,-0.4704,-0.3526,0
322,5244000,0.0317,0.0645,9.716,0.6307,0.0382,0.0529,29.6991,-9.772,39.1428,0.4161,-0.7942,-1.059,0.371,-0.2051,-0.1839,0.3031,-0.982,0.4097,1.6994,0.95,-0.7746,-0.2816,0.7347,-0.3379,0
323,5255000,0.016,-0.0311,9.8524,0.5568,0.0527,0.5958,30.8618,-9.3793,40.1186,0.0259,-0.5607,-1.7827,0.5013,1.6753,0.0556,-0.2164,-0.4233,0.3685,-0.253,0.4987,-1.277,-2.53,-0.7319,0.6387,0
324,5266000,-0.185,-0.029,9.7884,0.0021,-0.7013,0.2472,31.4182,-9.8414,39.4406,0.9221,1.212,0.2954,-1.0712,0.5736,1.1726,1.2611,-1.4211,0.0293,-0.2836,-0.9715,0.8129,-0.0597,0.5592,-0.2388,0
325,5277000,0.1293,-0.037,9.7562,1.5147,-0.5176,-0.4664,31.3896,-10.0048,40.0574,0.5729,1.3386,1.5176,-0.5156,-1.2415,-1.5829,0.0711,-0.2386,-1.0324,-1.9923,-0.4727,-1.6225,-0.6987,-2.0827,0.8555,0
326,5290000,0.0166,-0.0262,9.7826,0.1572,-0.2513,0.3779,32.325,-10.773,39.4733,1.2833,0.6465,-0.1754,0.5792,0.5909,1.7072,0.7582,0.0143,-0.4811,-0.7772,-1.1,1.3344,1.9493,0.7665,-0.9432,0
327,5301000,-0.0155,-0.2576,9.7054,-0.1723,0.228,-0.3643,29.7442,-9.9196,41.0014,0.2177,-1.0087,-0.0451,-0.6324,-1.2126,0.9781,-0.7002,0.1196,-0.6366,1.429,-0.1723,-0.871,0.0958,-0.0603,0.1548,0
328,5312000,-0.1163,-0.0753,9.8244,-0.0971,0.4211,0.8696,29.8312,-8.6315,38.0992,0.8107,1.2928,1.7535,1.6515,-2.177,-0.0973,1.7742,0.4461,-1.0099,-1.4716,-1.7093,0.8851,1.2353,0.9297,0.6099,0
329,5322000,0.0045,-0.0457,9.8063,0.0542,-0.1782,0.4299,29.3611,-10.063,40.1519,-1.4218,-0.5249,0.3691,0.2577,-0.5896,0.7491,-1.4529,0.3306,0.1109,-0.1341,0.1906,0.7392,-0.3109,0.5659,0.5337,0
330,5332000,-0.1694,0.0095,9.8878,0.0368,1.0095,-0.8823,29.9126,-9.918,40.378,0.4267,0.9632,0.8339,0.5172,0.55,0.1744,-1.0198,-1.0421,-0.6039,-1.4568,0.1965,-1.1755,1.3069,0.7719,-1.3992,0
331,5343000,0.0727,0.0777,9.7584,-0.329,0.968,0.1955,29.2627,-10.4259,39.1518,1.6121,-0.5935,0.1876,-0.6269,-0.4742,-0.046,1.0276,0.1399,-0.1376,0.5634,0.9021,2.0156,-0.2457,-0.3768,0.351,0
332,5353000,-0.0175,-0.0025,9.8521,-0.9059,0.2848,1.4725,31.5749,-11.4899,41.9663,0.0285,-0.0437,-1.095,-0.9905,0.3068,1.0987,0.9073,1.0151,-1.602,-1.1227,-0.1069,0.3288,-1.1336,-0.3099,1.5631,0
333,5363000,0.0759,0.0588,9.7772,0.1482,0.0278,-0.3889,29.9979,-10.9072,40.3452,1.3241,0.2231,1.6256,-1.1761,0.2208,1.6464,-0.6085,-1.7725,-1.5967,1.5007,0.2748,-0.5003,-1.393,-0.296,0.9402,0
334,5374000,0.1329,0.0755,9.7388,-0.2351,-0.1398,0.243,29.7513,-9.8648,39.4394,-2.0913,0.4286,-0.5529,-1.802,0.1096,0.7546,0.048,0.872,-0.559,1.7418,0.2104,2.4181,1.073,1.1972,-0.6781,0
335,5385000,-0.0355,-0.0291,9.7388,0.3648,0.7661,0.0569,32.4507,-11.7095,42.3919,-0.1226,2.8023,0.8753,0.6075,-1.6791,-0.1974,0.4555,-0.186,0.2606,-0.6863,0.1765,1.5905,-1.2791,-0.4017,1.7915,0
336,5418000,-0.1633,0.028,9.7886,0.5678,-0.8479,-0.8415,29.9673,-9.7659,39.9457,-1.6839,-0.3235,0.0282,-0.9017,-0.9209,-0.149,-0.401,1.6658,-1.3009,-0.8203,-0.5468,1.0103,-0.3075,1.0058,-0.039,0
337,5428000,0.1749,0.0603,9.8013,-0.4314,-0.682,0.9758,30.0218,-11.0053,38.455,0.4325,-0.3035,-0.3682,-0.7536,-0.2145,-1.1387,-0.8166,-0.2328,0.5756,1.5731,1.1395,-0.9972,-0.3502,1.2151,-1.5078,0
338,5439000,0.0908,-0.1539,9.846,0.6964,-1.0797,0.4931,29.7394,-11.7376,40.278,-0.2794,-1.6474,-0.9234,-0.1222,0.6623,0.9581,1.1364,1.3083,-1.2342,0.6423,1.4115,-0.2777,-0.339,-0.4117,-1.6403,0
339,5450000,0.0025,-0.0208,9.7905,0.3319,0.4778,0.1682,26.5835,-10.1445,41.2444,-0.9113,-0.6354,-0.3385,-0.1003,-2.6189,2.6854,1.1353,-0.4318,1.1232,0.3016,2.0331,0.5444,-0.8273,1.477,-0.7696,0
340,5461000,0.1552,0.2417,9.7426,-0.138,0.3696,-0.65,29.4275,-10.0628,38.4872,0.4192,0.0421,1.8816,1.0121,0.4515,-0.036,0.2707,0.3515,0.3283,-1.1108,-0.0657,0.2644,-1.4336,0.2273,-1.5762,0
341,5473000,0.0807,0.153,9.7422,0.2497,-0.5257,0.3082,30.4788,-10.897,40.24,0.0733,-1.1038,0.5141,0.9648,-1.6697,0.0907,-0.5588,0.9626,0.266,0.5739,0.7588,0.2892,-1.4614,0.6957,0.9269,0
342,5483000,0.0157,-0.0441,9.8169,-0.6762,-0.5678,-0.2571,29.4377,-9.8063,38.7588,-0.0705,1.0389,0.294,0.7039,0.0659,0.0567,0.1455,-0.0325,1.9286,-0.4627,0.3582,-0.2409,-0.6845,1.2364,0.0929,0
343,5496000,-0.0331,-0.0421,9.7685,-0.7782,-0.0873,0.1128,31.1039,-10.8749,41.0316,-0.4296,-1.5054,0.7112,1.2883,-1.0065,-0.9183,-1.5909,-1.1785,-1.9465,1.4763,0.5138,-0.444,0.1914,-1.6741,0.8609,0
344,5507000,-0.1124,-0.024,9.8279,0.4938,-0.1437,-0.3607,30.0023,-10.3468,40.8278,0.8999,-0.5911,-1.3243,-0.2683,-0.118,1.0597,0.3107,1.909,-0.808,1.1724,0.8347,1.2411,-0.7369,-0.2069,0.7784,0
345,5524000,-0.1035,-0.0216,9.8092,-0.3193,0.8038,0.6247,29.9284,-9.5541,39.5699,0.7048,1.2499,0.4005,0.6797,0.8254,1.8326,1.4808,-0.0907,-0.6016,-0.261,0.8874,-0.7911,1.1278,0.3699,1.335,0
346,5535000,0.1179,0.0457,9.8044,0.4342,-0.3767,-0.2639,30.8297,-9.4728,40.8138,-1.8084,1.1116,-0.2779,-1.049,-0.3994,0.7394,2.7471,-1.8486,-0.6675,-0.773,-0.5265,0.1512,0.1385,0.4884,1.5585,0
347,5545000,0.0014,0.0123,9.7441,0.7404,-0.3053,0.3603,28.8837,-10.9826,42.0293,-0.4132,0.161,1.5064,-0.8203,0.2522,0.1783,-0.6883,-0.2041,0.0259,-1.5799,1.4856,0.2964,0.2886,-0.8543,-0.222,0
348,5559000,0.1757,-0.1916,9.8271,0.4818,0.1609,0.3588,29.1861,-10.1097,39.531,0.0521,1.1155,1.801,-2.8349,1.102,1.2112,-1.3463,-0.5538,0.5631,1.2843,-0.8007,0.3286,-0.7989,2.1969,2.0369,0
349,5569000,0.0569,-0.1981,9.7937,0.1266,0.6788,-0.3016,30.1169,-11.3674,39.8112,-1.7607,-0.0281,1.3018,-0.3883,-0.1203,-1.3944,-0.3367,0.0296,-0.7463,-0.3992,-0.5556,-2.3285,-0.2877,0.498,0.1489,0
350,5580000,-0.027,-0.0243,9.7467,0.2913,-0.8686,0.5384,32.5574,-8.6478,39.5512,-0.662,-0.0927,1.4435,0.9058,0.6376,1.118,-1.2873,-0.4693,0.0125,0.6068,-0.8099,0.082,0.231,-1.038,0.9136,0
351,5592000,0.1625,0.0764,9.8097,-0.9908,0.4662,-0.0379,31.5134,-9.0831,38.9327,-1.7141,0.3322,-0.8186,0.1479,0.5299,-0.4822,-1.1845,1.0851,-0.9332,-0.6752,-0.8585,-1.56,-1.108,0.9658,0.1586,0
352,5602000,-0.1869,-0.0523,9.8204,-0.6639,0.3729,-0.6104,28.6816,-10.4988,40.4658,-1.0268,-1.2844,0.7658,-0.56,0.3824,0.3753,1.7604,-1.2389,-0.0208,0.778,-0.0862,-0.2185,-0.026,0.3317,0.0851,0
