seq,time_us,ax,ay,az,gx,gy,gz,mx,my,mz,roll_gyro,pitch_gyro,yaw_gyro,roll_cf,pitch_cf,yaw_cf,roll_ekf,pitch_ekf,yaw_ekf,roll_madgwick,pitch_madgwick,yaw_madgwick,roll_mahony,pitch_mahony,yaw_mahony,drop_flag
1,12000,0.0033,0.0079,9.78,-0.2456,1.0843,-0.0147,30.9985,-10.9974,38.4887,-0.8776,1.0158,0.3083,0.0021,-1.1591,0.3598,-1.7543,0.2734,-0.0143,0.5762,-1.043,1.061,0.9528,-0.9402,-0.626,0
2,23000,-0.1607,-0.094,9.7792,-0.4341,-0.0408,-0.107,30.8067,-10.9751,40.3429,-0.8036,-1.6973,-0.1061,-0.8692,-1.7418,0.0679,1.6551,-0.5814,-1.3139,-0.4274,0.163,0.2284,0.3585,-0.3847,-0.5617,0
3,36000,-0.0843,-0.1724,9.8413,0.2235,0.4797,-0.5364,30.0792,-10.8208,40.4834,-0.0664,0.502,-1.7947,0.8058,0.2195,0.4585,-1.0059,0.0007,0.5345,0.9171,-0.2134,-1.2226,-0.2266,0.5901,1.106,0
4,46000,0.0497,0.0462,9.7706,-0.7464,0.4972,-0.4409,29.9994,-9.9956,40.5766,0.8269,-1.0546,-0.4461,-0.5435,-1.96,0.1248,-1.4448,-1.1827,0.207,-0.7257,1.6909,-0.2275,-0.7028,2.138,-0.6334,0
5,57000,0.2934,-0.0546,9.7621,0.0293,-0.5898,-0.2011,28.6069,-10.982,39.6132,-0.2858,-0.3443,0.4398,-0.6105,-0.4609,0.8819,-0.1944,0.2581,0.2354,0.0137,0.0485,-1.0328,1.6503,1.3999,1.0738,0
6,67000,-0.088,0.1351,9.8422,0.1748,0.1537,-0.3261,29.3483,-10.8759,41.1624,-0.8136,-1.3604,0.7928,-1.0937,0.7678,-0.3871,-2.3926,-0.1783,0.4808,1.6471,-0.3064,-0.2286,-0.5994,-1.0693,0.8683,0
7,77000,-0.1201,-0.0503,9.7925,-0.1658,-0.5791,-0.4663,29.5446,-9.9253,39.4598,-0.0581,1.6497,0.6431,-0.8136,-0.2422,0.0082,-1.3054,-0.2507,0.2576,-0.5508,0.3258,-0.9131,-0.6087,-0.1033,0.4151,0
8,88000,0.1299,0.0412,9.8251,0.8709,0.6196,0.3303,28.2656,-10.4813,39.7615,1.3345,-0.1392,-0.4842,-1.2685,-0.8688,2.0885,-0.9675,2.0688,-1.1434,-1.1606,-0.4327,-1.7014,0.3622,0.7759,-1.9057,0
9,99000,0.0946,0.0306,9.8624,0.6779,-0.1767,0.1774,29.3707,-8.9,40.8011,-0.9584,-0.2299,-0.1369,0.2322,-2.8662,-0.5321,-0.4708,-1.9869,1.8834,-0.7586,1.7614,1.4857,0.2492,0.8147,0.8998,0
10,109000,0.0035,0.0358,9.7831,0.2245,0.6181,-1.0411,28.0135,-10.2363,39.013,-2.3232,-0.7261,-2.8744,-2.2025,0.5828,0.3857,0.2994,1.0485,1.1145,-0.8386,-0.4697,1.7355,1.2266,0.3166,-0.5069,0
11,120000,-0.0767,-0.0378,9.7694,0.249,-0.1914,-0.1683,30.2122,-10.8805,40.2329,-0.7053,0.6146,-0.5947,1.4091,-1.0333,-1.5355,0.951,0.5414,-0.4227,0.3196,-0.1039,0.5401,0.8492,-0.7493,-1.1506,0
12,131000,0.0707,-0.0638,9.8584,-0.1074,0.3359,-0.0373,29.5755,-10.1892,40.209,-1.2165,0.8818,-1.611,-0.0959,-0.0314,1.3269,0.0793,0.4812,-1.0733,-0.9499,1.1561,-0.6318,0.6651,0.6716,1.0674,0
13,142000,-0.1589,0.0144,9.8371,0.4262,0.5801,-0.6609,28.836,-10.0289,40.0558,0.6479,-1.1532,1.1518,1.2514,0.1032,1.1567,1.0428,0.3294,-0.221,0.1756,0.066,-1.3039,-0.1054,0.4648,-1.3831,0
14,153000,-0.0642,-0.0972,9.7737,0.0147,-0.267,-0.7539,29.2021,-9.1705,39.4776,-1.365,0.2944,-0.1412,-0.4403,-3.5051,-0.1163,-0.0968,-0.3384,-0.0574,-0.3437,0.3647,2.0722,-0.8781,-0.1761,0.2441,0
15,164000,0.008,-0.0886,9.7244,-0.424,0.2355,-0.2869,28.3561,-9.2935,41.6483,-0.5565,-1.3765,0.1403,0.5913,-0.0765,0.6201,-0.0701,-0.7754,0.6662,0.501,0.4727,1.8645,-0.6808,-1.3934,-1.1337,0
16,174000,0.1072,-0.1018,9.7168,-0.4758,-0.2157,-0.1103,29.4524,-10.7928,41.225,-0.4431,-0.279,0.3238,0.0777,2.363,0.0269,0.6241,-0.0345,0.7868,-0.8146,0.2306,0.0061,1.2072,-0.0485,-0.938,0
17,185000,0.0379,-0.0309,9.7794,0.5051,-0.0729,-0.0542,30.6968,-9.064,38.1429,-1.0846,-1.7296,0.1953,-2.0305,0.6141,-0.0765,0.6719,-0.8779,0.8353,0.9889,0.5174,-1.1353,0.9129,-1.6534,0.8177,0
18,195000,-0.0883,-0.0266,9.7737,-0.0499,-0.9413,0.2118,29.8752,-9.7823,39.2505,-0.5953,-0.4352,0.0179,0.6887,0.5147,-1.0128,-1.2573,0.2416,-0.4598,-0.3627,-0.9594,-0.6354,-1.0461,-1.2035,2.1757,0
19,210000,0.1606,0.16,9.8193,-0.0071,0.5713,-0.8787,28.8659,-9.612,40.6309,1.5114,1.1093,-1.0058,0.067,-0.4039,-0.3453,0.0877,-2.1809,0.7025,-0.1254,0.0549,0.43,0.0762,0.3365,-0.3322,0
20,221000,-0.0903,0.056,9.7747,-0.2246,0.2364,-0.2165,31.0991,-10.7213,38.8237,-0.4324,-0.9374,-0.2323,0.1108,-2.1381,-1.1324,-0.1055,1.3822,0.4024,1.2185,0.4997,0.1706,0.5173,-1.3054,1.5805,0
21,231000,-0.0812,-0.2139,9.8354,-0.2384,-0.0541,-0.1811,29.0235,-9.1327,38.0597,-0.5535,0.3999,0.3811,-0.3713,-1.8385,-0.6386,-1.0798,1.8226,-0.4851,-0.1447,0.0304,1.1075,-0.4481,0.4872,-0.258,0
22,242000,0.1484,-0.0437,9.7603,-0.8359,-0.3645,-0.0052,29.7081,-9.7308,39.8792,0.8918,0.2059,0.2128,1.189,-0.8935,0.221,2.0794,-1.8595,-0.5506,-0.6469,0.5153,0.1599,0.5404,-0.0524,-0.5736,0
23,253000,0.1317,0.0517,9.8218,-0.2722,-0.6759,-0.2866,29.2194,-9.3066,39.6545,1.0156,-1.0351,1.1579,0.2389,0.0752,-1.4877,-0.1485,-0.3376,0.7271,-0.1112,0.2368,0.353,-0.6119,0.2771,0.8908,0
24,263000,-0.1247,-0.0454,9.7985,0.446,-0.2156,0.0193,29.2264,-9.6089,38.3778,-1.5241,0.9416,1.1755,-0.151,-0.6614,0.4704,1.1135,-2.7191,0.688,-1.0902,0.6138,-0.6125,-1.1646,0.8153,0.814,0
25,274000,0.0473,0.1275,9.7413,0.3525,1.0431,1.3228,29.8336,-9.5951,39.9399,1.6711,1.578,0.6193,0.5051,-1.4295,0.4999,0.8585,0.6298,-2.2988,-1.3209,-0.4825,-0.6373,0.7666,0.8085,-2.2516,0
26,284000,0.0544,0.0108,9.7704,-0.7393,0.5194,0.4361,30.2847,-8.766,40.0383,1.6446,1.9689,1.2877,-0.5139,0.9885,0.1304,0.2192,-0.9364,-1.3802,-0.1166,-1.2643,0.7424,-1.1652,2.7994,1.6812,0
27,295000,-0.0368,0.0828,9.7146,-0.9206,-0.1937,-0.3002,29.9601,-11.9945,40.6829,0.646,-0.7853,1.032,2.234,0.8111,0.0447,-0.7745,0.2754,-0.6195,-0.6336,1.4127,-1.3527,0.2048,0.4393,1.7213,0
28,309000,0.0232,-0.04,9.8472,-0.1803,-0.1703,0.1415,28.7914,-11.6444,38.8331,1.058,-0.385,0.1978,0.969,-1.0107,-0.0882,1.0431,-0.1003,1.0287,-2.098,-0.7555,1.6206,-0.7774,-0.4139,-0.3057,0
29,320000,0.0257,-0.043,9.7508,-0.8682,-0.5968,-0.1267,29.5145,-9.7002,39.6726,-1.1875,-0.8151,0.3055,0.3048,-1.0803,-0.2085,0.8973,0.1112,-0.0547,0.4608,-0.4232,0.8137,0.2504,1.1763,-0.6466,0
30,331000,-0.0142,-0.0463,9.8174,-0.1443,0.0572,0.1421,30.218,-10.5232,37.8698,-0.2356,0.2348,-0.9131,0.3019,0.1429,0.1458,-0.4372,-2.169,-0.9164,0.6657,0.1701,0.185,-1.2736,-1.2302,0.344,0
31,342000,0.0848,-0.0293,9.821,0.4197,0.6571,0.3061,29.0548,-10.296,39.663,-1.6947,-1.2147,0.8269,-0.2211,1.687,1.085,-0.1903,0.8859,0.546,-1.3297,-1.4062,-0.7929,-0.3037,-1.2494,-0.3706,0
32,352000,0.0732,-0.091,9.6634,-0.5414,-0.4934,0.2667,29.9822,-10.7125,40.0648,0.4178,2.4738,-1.3589,0.6415,0.0854,1.6438,-1.103,0.2342,1.1555,-0.0427,1.3797,-0.1396,0.5225,-0.9822,-0.6698,0
33,363000,0.1765,0.0235,9.7976,-0.1955,0.4874,-0.2182,31.0542,-11.0008,38.1175,-0.4029,0.6076,0.5928,-2.4415,0.9248,1.8509,-1.5005,-0.3287,0.8845,1.0828,0.6113,0.6836,-0.5609,-0.7169,1.2398,0
34,430000,0.1203,0.1135,9.7426,-0.2649,0.1914,-0.5448,30.9401,-9.0424,40.237,0.6973,-0.1827,-1.1644,1.1616,-0.4427,0.0486,-0.6638,0.6033,-0.3455,-1.7984,1.1341,-0.7901,-0.6433,0.6044,-0.6224,0
35,466000,-0.0196,-0.0472,9.7529,0.068,0.205,0.3237,29.205,-11.0007,38.7068,-0.1258,0.6266,-0.9059,-0.2066,-0.0864,0.6771,-1.332,-0.4695,-2.8797,-0.6734,-1.5064,0.6435,-1.097,0.0292,0.1356,0
36,476000,-0.0824,-0.0301,9.8352,0.6496,-0.7337,0.848,30.129,-9.2553,39.7358,-1.6923,-0.376,0.6666,-1.3015,0.4036,-2.0533,-0.1235,0.0317,-0.9354,0.4687,-0.8382,-0.1687,-0.4086,-1.5096,0.4875,0
37,487000,-0.1016,-0.0174,9.8481,0.5056,1.1563,0.5235,28.4376,-9.3922,41.1721,0.2416,-0.0401,0.8238,1.4889,-1.1816,0.801,-0.1996,0.3943,-1.24,-1.6727,-0.2248,0.017,1.776,0.6506,-1.5563,0
38,973000,0.0482,0.0947,9.7986,-0.5638,-0.426,-0.0297,30.0351,-8.8982,41.3576,1.982,1.3644,-0.8703,-1.2718,-0.3438,0.0157,-2.1792,-3.5521,-2.2582,-0.6803,-1.2436,-0.6035,-0.7498,-0.6503,-0.2226,0
39,984000,-0.0238,-0.1139,9.7452,-0.0389,-0.2025,0.0828,30.9913,-9.8442,40.1883,0.016,1.4853,-1.3682,-0.1173,-0.2848,1.93,1.1959,2.5299,-0.0502,0.4483,0.0495,-0.3963,0.8594,-0.4062,0.4338,0
40,998000,0.0465,0.037,9.7252,0.3573,-0.213,-0.3825,28.8462,-8.8841,40.363,0.4505,-0.5368,-0.4641,0.8642,1.6248,-1.2629,-0.6872,0.481,1.2712,-0.2008,-0.6128,0.0729,0.5616,0.721,-0.5015,0
41,1010000,-0.0266,-0.0479,9.892,0.9293,-0.242,0.0622,31.1326,-8.8049,38.3197,0.6885,-1.43,2.9089,0.3767,-0.249,-2.1818,-0.0062,-1.4631,0.8511,0.9176,-0.5812,2.2323,0.3111,-1.1959,1.0288,0
42,1022000,0.0416,0.0872,9.8809,0.5492,0.1052,-0.5009,29.3194,-9.6611,40.3524,2.6693,1.3218,-0.3142,0.053,0.4592,-0.5785,-0.2846,-0.14,-0.1253,1.0434,-0.7266,-0.3953,-1.373,-0.3957,-0.0066,0
43,1229000,-0.0754,-0.0572,9.7954,-1.1798,0.5397,0.1911,30.4321,-9.0854,38.3649,1.0301,-0.9209,0.8098,0.2126,-0.877,-1.2534,-1.8715,-0.4617,1.5275,0.2362,0.3234,-0.8391,1.0979,2.1836,-0.2643,0
44,1240000,0.0473,-0.1625,9.8658,-0.4093,-0.791,0.3496,30.1701,-12.0481,39.5119,0.5736,1.1425,0.334,0.5073,1.6262,-0.8552,-0.1406,0.1489,0.457,-0.2741,-0.0748,0.7539,-0.6885,0.0598,-0.2522,0
45,1251000,-0.0994,0.0517,9.79,0.022,-0.7227,0.2543,29.5094,-11.5911,39.7728,-0.7834,0.5577,-0.0417,-0.078,-0.0899,1.0104,1.4394,-0.231,-2.4761,-0.2877,0.6274,-2.358,-1.0776,1.3571,0.6931,0
46,1261000,-0.0133,0.1626,9.8384,0.2724,-0.6162,0.0748,28.8664,-8.8156,39.9307,0.5486,1.3684,1.2632,-0.6513,-0.6781,-1.5817,0.1149,-0.5691,0.228,-0.304,0.5455,1.0675,-0.8786,-0.083,1.279,0
47,1272000,0.0569,0.0092,9.8117,0.5419,-0.14,-0.5375,30.1461,-7.3995,38.8815,0.0698,-0.9166,-2.53,2.7046,-1.5989,-1.1951,-0.0157,0.8499,0.8445,0.3199,-2.2136,-0.6393,-1.017,-0.2716,0.0194,0
48,1747000,0.0442,0.0052,9.8743,-0.1481,-0.0933,-0.4019,29.8545,-11.9643,41.4633,0.2123,-1.6551,1.2454,1.328,-1.0838,0.0325,0.0609,-1.6078,-0.2885,1.5763,-0.3886,-0.1331,0.0593,-0.6312,-0.8407,0
49,1770000,-0.0291,-0.0026,9.7864,-0.5172,-0.1167,0.6129,30.9668,-10.0337,39.513,0.4683,0.5877,-1.8056,0.92,-1.453,-0.9525,-0.437,-1.0213,-1.1159,-0.4524,-0.8672,-2.2149,0.8585,0.802,-1.2923,0
50,1780000,-0.0107,-0.0984,9.8734,-0.2699,-0.2605,-0.7437,30.2485,-8.8411,39.101,-0.0245,-1.2674,0.4902,-0.2995,-0.0835,0.6779,0.2444,0.245,-1.8269,-0.1963,-0.8198,-0.2415,-0.5449,-0.1123,-0.245,0
51,1819000,0.1319,0.0009,9.8204,0.0563,-0.21,-0.393,29.4081,-12.0778,39.6824,0.3394,1.4016,-0.2839,1.0033,0.5349,-0.61,-1.209,-0.1753,-2.8045,-0.6686,1.253,0.446,0.5759,-0.5257,0.2315,0
52,1838000,-0.0427,0.2376,9.845,-0.1956,0.0837,0.192,30.3927,-9.2913,39.7341,0.7299,-0.584,1.1458,-0.6621,0.003,0.3366,-1.1482,0.215,-0.111,2.2145,0.9532,0.1398,0.4039,1.2404,-0.1941,0
53,1859000,-0.0646,-0.063,9.8726,0.329,1.2189,-0.374,30.82,-10.9778,40.2345,0.4051,1.5082,0.3476,-1.4798,0.6315,1.6547,0.0204,0.3462,-0.4465,0.1104,-0.2479,-0.3334,1.8074,0.8595,-0.6782,0
54,1871000,-0.0617,-0.0333,9.8466,0.1717,-0.1696,0.2433,30.2768,-10.8793,39.7837,1.5136,0.4626,1.3329,1.2,0.3846,-0.423,-0.0221,-0.9975,-0.0804,-0.4069,1.6421,0.8807,0.552,-1.0698,-1.3359,0
55,1884000,0.0864,-0.0384,9.7735,0.362,-0.6676,0.3243,29.5813,-11.1327,39.1569,-1.5827,-0.3348,-0.8698,0.0531,-2.741,-0.3792,0.0262,-0.2241,0.1542,-0.2216,0.144,0.7445,0.9427,0.4615,-1.0549,0
56,1898000,-0.1156,-0.0785,9.801,0.4169,-0.4891,-0.3348,30.5262,-9.2501,40.0981,0.6198,-2.2726,-2.1301,1.0491,1.7422,0.0908,0.1946,0.8339,-0.1722,0.4169,1.1493,1.455,-0.9668,0.0102,1.2415,0
57,1908000,-0.1562,-0.0065,9.6855,0.876,0.8846,-0.9885,29.219,-10.1904,41.3547,2.5023,0.8516,-0.4013,-0.1037,0.3329,-1.6086,1.2081,0.0324,-1.2743,-0.0003,0.2677,0.3311,1.4797,0.4601,-0.3447,0
58,1922000,0.0322,-0.0356,9.7779,-0.4892,0.5806,0.2935,30.9196,-11.4825,40.3057,1.5346,-1.5165,-0.4331,-0.9392,1.2848,-0.4015,0.1176,-0.213,1.5272,1.5776,-0.0703,-2.7756,-0.614,0.2576,0.4152,0
59,1935000,0.0342,-0.028,9.8115,-0.5317,0.1962,0.0716,28.9805,-11.3773,37.789,-1.254,0.2743,1.2256,1.4019,1.946,-0.1529,-1.3023,-0.5046,0.8181,0.4673,-1.2859,-1.0056,1.7484,-0.2114,0.8154,0
60,1945000,-0.0582,0.0908,9.7197,-0.0485,0.044,-0.5979,31.2895,-10.1418,41.1183,1.1543,-0.4327,-0.1271,0.266,-0.4275,-0.5038,0.207,0.1551,-0.2539,-1.0884,-1.4361,-0.7525,0.1228,1.4,-0.3817,0
61,1958000,-0.2211,-0.0055,9.7485,-1.0394,0.7316,0.6439,29.9522,-9.3214,39.0944,0.828,-1.3997,-0.6553,0.0443,-0.8622,-2.086,-0.0916,-0.858,0.7186,-1.4484,0.3037,-1.075,-0.0177,-0.6999,-0.2238,0
62,1984000,0.1062,0.0069,9.7472,0.1084,0.2465,0.5859,29.6025,-8.077,41.1787,1.6186,0.8636,0.3534,-0.6018,-0.4783,0.454,-0.6214,-1.1656,0.5038,1.0107,-1.3482,-0.3852,0.2281,0.3,-0.7329,0
63,1995000,0.0753,0.1657,9.7971,-0.5155,0.8742,-0.1833,30.8342,-9.5004,39.5669,-0.169,-1.7107,1.1369,-0.1281,0.4204,-0.1971,0.8512,-1.0108,-0.3321,1.0817,1.5896,0.3674,-0.4438,-1.0625,-0.2935,0
64,2006000,0.0747,0.0371,9.8429,-1.7019,-0.2211,0.2434,29.3207,-10.1108,39.0617,-1.6598,0.4049,0.9861,0.3704,-1.448,1.1623,-0.4014,-0.3116,1.1537,0.2655,-0.2412,0.4684,-0.0651,1.8221,0.728,0
65,2017000,0.142,0.0553,9.8965,-0.1464,-0.4497,0.3379,30.3431,-9.8229,40.5361,1.8419,-1.9539,0.1406,-0.7437,-0.4751,-0.1393,2.1839,-0.8671,0.5697,-0.3955,-1.5108,-1.4389,-0.151,0.7438,0.1795,0
66,2028000,-0.0955,-0.0324,9.7252,0.285,-0.6902,-1.318,30.604,-9.4779,40.2241,-1.7896,-0.3444,-0.3138,1.095,0.8297,0.6158,-0.0721,-1.7346,0.3315,-0.3043,0.4565,1.0579,0.8622,-0.3922,1.0944,0
67,2038000,-0.1294,-0.1282,9.8322,-0.3246,-0.486,0.2593,29.2354,-9.5352,38.0544,1.4568,1.3121,0.1353,0.5379,-0.6463,-0.4037,2.1467,-1.5234,-2.1912,-0.8628,-1.6676,-0.8572,-1.1367,-1.2302,0.6982,0
68,2049000,-0.087,-0.0794,9.8616,0.7091,0.5689,-0.0966,30.6217,-9.1606,40.8069,1.6069,1.091,0.3511,0.4175,0.8304,0.6437,-0.7801,0.8368,1.5886,2.6823,0.0742,-0.7602,-1.7486,-1.8993,0.8838,0
69,2060000,0.0608,0.0783,9.8552,0.6468,0.3143,-0.2718,30.0663,-9.4,39.676,-2.1433,0.0458,1.0333,-0.249,-0.4086,-0.6296,-0.2593,-0.9863,-0.6555,0.577,1.1422,-2.2196,-0.0378,0.1758,-0.7117,0
70,2073000,-0.1609,0.2473,9.8117,0.1292,-1.2817,0.3164,30.4334,-10.4557,40.5399,-0.3016,-0.7608,0.6189,0.3998,-1.8598,-1.9068,1.9159,1.3653,-0.4078,0.3264,0.2594,1.5915,0.2399,-1.1559,0.6723,0
71,2084000,0.1254,-0.1074,9.7776,0.2916,0.8687,-0.5803,28.6704,-11.8875,39.761,-0.1724,0.413,0.3477,-1.0202,-1.1807,0.4774,0.4511,-1.9033,-0.6398,1.4625,0.2696,-0.0283,1.4345,-1.3868,-0.1577,0
72,2094000,-0.0762,-0.0344,9.8115,0.3051,-0.1317,-0.2762,31.5887,-9.444,40.6245,0.4304,-0.6572,-0.5619,0.6985,-0.9052,-0.3912,1.4744,0.6612,0.2213,0.0338,0.2905,0.8343,0.1979,-0.3098,-0.7302,0
73,2105000,0.0693,-0.1467,9.7991,-0.11,-0.1242,-0.2846,29.3686,-11.3547,38.8318,-1.9236,-0.8466,-1.3936,0.4465,-0.1843,-0.5351,-1.561,1.4275,0.8161,-1.1326,0.4047,-0.129,0.3549,0.859,-0.2687,0
74,2115000,-0.0992,-0.0173,9.796,0.587,-0.1977,-0.5826,29.5031,-9.7101,42.4803,-2.3814,-1.824,0.1701,-1.8513,0.1464,0.7498,1.619,0.0205,0.4407,-1.1106,0.5841,0.8566,1.4316,-0.6495,-1.571,0
75,2126000,0.0004,0.0436,9.7664,-0.4718,0.7123,-0.344,30.1324,-10.298,40.296,-0.6782,0.5363,-0.1014,1.1012,0.2039,0.4329,1.2831,-0.6312,1.2089,-0.3793,-0.3345,-0.2694,0.2234,1.1299,-0.4604,0
76,2136000,-0.031,-0.0275,9.9535,-0.1911,0.0183,0.8071,30.0649,-10.7494,40.2344,-0.4994,1.8286,1.6969,-0.3987,-0.5501,0.8713,-1.0195,1.0688,2.0954,1.4071,-0.4801,-0.6127,-0.2797,-0.4979,-0.9182,0
77,2147000,0.0557,0.0782,9.7731,-0.1728,-0.3611,-0.543,31.939,-8.7779,39.6683,1.0329,-0.5521,-0.7267,-0.1458,-0.952,-1.5246,-0.6238,0.697,0.2331,0.7029,-0.1888,1.2405,0.1701,-1.3167,0.5512,0
78,2158000,0.0183,0.0543,9.8099,-0.1384,-0.0932,-0.8483,30.6965,-12.3462,39.7048,-0.3816,-0.6733,0.6424,0.223,0.1109,0.7078,-0.7185,-0.4024,0.7873,-0.2428,0.1807,-0.1084,0.5583,-0.1251,-0.2379,0
79,2168000,-0.0809,-0.0402,9.7504,0.4403,0.555,0.4453,30.4854,-10.5814,39.4071,-0.8723,0.6967,0.2713,-0.4978,-1.0208,1.1541,-0.2185,0.3534,-0.0824,1.3467,0.1397,0.1195,-1.1978,0.0597,-1.37,0
80,2179000,0.0286,-0.0421,9.7898,-0.3922,0.533,0.3953,30.3518,-9.7958,38.7821,1.3219,0.9349,-2.2737,0.7291,1.1773,-1.2039,-0.5844,-0.5026,1.3859,0.9704,-0.0081,0.6595,0.0697,-0.6307,0.552,0
81,2189000,-0.0015,0.1029,9.7955,-0.4223,-0.3464,-0.1965,30.2805,-10.1926,40.4198,0.4476,-1.038,-0.1458,-0.1355,-0.9361,0.124,-0.3618,0.6947,-0.03,-0.532,-2.5919,0.3591,0.3133,0.812,0.4242,0
82,2199000,0.0239,0.0687,9.8286,0.3839,-0.5166,-0.0249,29.6886,-9.3425,40.9957,-0.2738,-0.4328,-0.8593,-2.0835,-1.3856,-0.1409,0.2576,0.1728,1.5714,-0.5915,1.9764,-0.7414,-0.9243,1.2294,1.3693,0
83,2210000,-0.0684,0.0887,9.8476,-0.0893,-0.0545,0.867,28.5209,-10.5542,40.6282,1.3253,0.025,0.7941,-0.7762,1.4814,-1.0873,0.2084,-0.2334,1.2458,-1.4026,-1.1477,-1.5181,-0.7661,1.8015,-1.2908,0
84,2221000,-0.0626,-0.1083,9.8391,0.7569,-0.3359,0.2083,28.8617,-11.4351,40.4798,1.3683,0.3766,0.0205,0.1034,-1.5517,-0.5608,0.4826,0.0431,0.9617,1.4922,-0.6458,0.9249,-0.0343,-1.0668,-1.4684,0
85,2232000,-0.009,0.0589,9.7683,0.6744,-0.23,-0.0627,30.2117,-11.1301,40.1991,0.5343,0.5859,-0.6429,-0.9098,0.7282,-0.0057,-0.0213,0.956,0.5614,-1.8709,0.3034,1.2808,1.1292,-1.0684,-0.1684,0
86,2242000,0.2188,0.0091,9.7997,-0.0333,-1.2068,-0.0554,29.4284,-7.8016,40.8297,-0.9585,-0.1367,-0.9903,0.2024,-0.1642,-1.3748,0.3902,0.4933,0.3257,0.9778,0.2594,0.9512,-1.7956,-2.0214,-0.3073,0
87,2257000,0.0771,-0.0899,9.8114,-0.6027,-0.365,-0.4165,29.2864,-11.2166,39.8248,-0.4218,0.1458,0.1562,-0.5857,-0.0741,0.3292,-0.6067,-0.4177,-1.8876,-0.7276,1.4626,0.0715,-1.9288,-1.055,0.1221,0
88,2287000,-0.0717,0.1591,9.7462,0.522,0.2809,0.255,30.0042,-10.071,39.639,0.2771,-1.4883,0.722,1.1392,-0.293,1.1753,0.0958,0.0821,1.0092,0.6163,0.4478,-0.3143,0.2374,-0.5731,0.417,0
89,2299000,-0.0588,0.1063,9.7703,-0.5412,0.0245,0.1883,28.8826,-10.3318,39.7836,1.2794,0.5355,0.1747,0.9557,0.3234,0.3253,-0.8011,0.1333,-0.9197,-1.3108,0.937,0.672,-0.864,0.0186,-0.6913,0
90,2310000,0.3604,-0.0047,9.7495,0.6011,0.6371,0.113,30.8318,-10.2451,39.7013,-0.3121,-0.1765,-1.2011,-0.6088,0.5868,0.1479,0.9634,0.6976,-1.3789,-0.3051,0.4602,0.1919,0.3868,-0.4738,0.0019,0
91,2320000,0.0477,0.0909,9.7904,-0.9141,0.0502,0.697,31.7399,-8.7569,39.568,-0.705,0.0094,-1.0973,-1.8939,-0.2547,0.2379,-2.3819,0.2726,0.9369,-0.4797,0.0299,-0.5803,0.798,-0.2552,0.0639,0
92,2331000,0.0903,-0.1138,9.8618,-0.0195,-0.9196,-0.5709,32.2695,-10.4227,39.1431,0.0083,0.1462,-0.4986,-0.8523,-0.4241,-0.3446,1.5942,0.8303,0.8477,-0.2239,0.8532,1.3303,1.0006,0.7431,-0.6223,0
93,2346000,0.0263,0.0999,9.8631,-0.2781,0.4138,-0.0214,28.0806,-9.099,39.4054,-2.1604,0.4275,-2.4757,1.6123,-0.123,-1.3055,0.3711,-0.7156,2.3089,1.3498,0.4734,0.7357,0.0877,-0.7034,0.1897,0
94,2357000,0.1032,0.0491,9.7969,0.7523,0.6668,-0.3155,29.6846,-8.5626,41.74,1.8105,0.0756,-0.9595,0.0878,-1.7149,0.062,-0.8332,-2.1432,-0.7604,-0.7277,-0.2969,-0.4666,0.6685,1.3304,-1.0009,0
95,2368000,0.091,-0.059,9.8942,0.0505,0.362,0.0966,29.9706,-9.357,39.613,0.1439,0.6185,-0.0784,-1.749,-0.6729,-1.6405,-0.2282,1.39,-1.083,-0.8741,0.1902,-1.2239,1.1845,0.0268,1.339,0
96,2380000,0.1299,-0.0154,9.7639,0.1262,-0.4881,0.6268,29.9436,-10.977,39.1713,-0.4058,0.1465,-0.2712,-0.9775,1.6913,-1.1396,0.9006,-0.7862,0.6842,0.388,-0.1027,-0.5711,1.1988,-0.1817,0.6585,0
97,2391000,0.075,-0.1796,9.7886,0.1417,0.9124,-0.3396,29.4307,-9.7607,40.5299,0.7142,-0.8746,-1.2486,-1.5297,-0.4384,0.0221,-1.2791,-0.2674,-0.5787,0.9502,-0.8406,-0.3293,-0.0268,-1.5176,-0.1705,0
98,2405000,-0.0632,0.0114,9.7479,1.482,0.7838,-0.1711,30.9018,-8.761,40.0922,-0.9876,0.1808,-1.2644,-0.1587,-0.7044,0.6004,-0.7568,0.6514,-0.6816,-1.5543,1.4396,-1.2858,-1.6999,-0.8545,-0.5966,0
99,2416000,0.0291,0.0782,9.7845,0.6839,-0.3133,0.3375,30.6846,-10.8865,38.8119,-0.6987,-0.4393,0.4973,0.1257,2.0998,0.703,0.3384,0.641,0.3985,-0.2116,0.6398,0.3212,-0.6875,-0.5774,-0.9258,0
100,2426000,0.0138,-0.179,9.7621,0.5451,0.4369,-0.1033,29.3588,-10.088,41.3157,0.2308,-1.859,-1.2519,1.4557,-0.3002,0.5405,-0.5806,-1.5544,0.2312,0.7858,-0.0062,-0.1096,-1.4227,-2.3265,0.5444,0
101,2437000,-0.0608,-0.0172,9.8842,-0.1011,-0.097,-0.1936,30.0133,-8.9027,38.8592,1.1762,-1.3993,-1.1305,0.5983,0.1734,-0.1297,-2.4309,-0.2632,0.4801,2.1734,0.4328,-1.2212,0.1877,-1.2245,-0.3633,0
102,2448000,0.1242,-0.0608,9.765,-0.0016,0.0229,0.5778,30.8771,-9.6827,38.6408,-0.6274,-0.8244,-0.0016,0.7362,0.2502,-2.0037,-0.5693,-0.3882,-0.8809,-0.175,-0.4379,0.9818,-0.9359,0.4568,0.3237,0
103,2458000,0.0601,-0.1257,9.7866,-0.291,1.0882,-0.5853,30.105,-9.9135,41.2978,-0.1518,-0.1396,-0.7693,-0.9646,1.9976,-0.7061,-0.4253,-0.8202,-0.5585,1.058,0.3422,-0.309,0.9287,1.3359,-1.387,0
104,2471000,-0.0546,0.1438,9.8535,-0.1375,0.0599,-0.4822,29.7168,-9.6485,40.0617,0.7473,-1.9494,-1.1615,1.0052,0.0676,-1.0117,1.7799,-0.8211,0.6712,2.1834,-0.4517,-0.1671,-0.1381,2.3619,1.1263,0
105,2482000,0.0243,-0.3287,9.8532,0.5068,-0.4877,-0.222,30.3735,-9.6483,40.1192,1.3736,-0.1459,0.1728,1.0211,0.5575,0.6287,-2.3385,-0.043,-0.8234,0.3024,-1.1122,0.4186,-2.1776,1.8513,-1.3643,0
106,2492000,0.0449,0.0942,9.7985,-0.2637,0.4322,0.4045,28.7625,-11.2377,40.8236,1.3848,2.0478,-1.4266,-0.1588,-0.5756,-0.9698,-1.5543,-0.7275,-1.1333,0.0396,0.5405,-0.9317,-0.0526,0.083,0.551,0
107,2503000,0.1579,-0.0724,9.7248,-0.5107,0.1644,0.6567,31.2617,-9.6614,39.6107,0.5049,-0.5227,-0.1479,-0.0813,-0.6359,1.2774,-0.2378,0.1326,0.1098,0.9767,-0.9606,0.7808,-0.7719,0.7424,1.1034,0
108,2514000,-0.0699,0.0095,9.8573,0.7549,-0.4338,0.1425,29.2381,-11.3443,40.9563,-0.2514,-0.5012,0.2694,0.013,1.0165,1.5307,1.5921,0.2625,-1.5835,0.1893,0.136,-0.5073,1.506,0.6542,-1.0635,0
109,2524000,0.0247,0.0338,9.7528,-0.5155,0.2282,-0.2434,29.4162,-11.5216,39.0519,0.7902,-1.0347,0.6899,0.3222,0.8572,-1.1438,0.8061,0.1568,0.7305,-1.0047,0.3502,1.069,-0.2964,1.2715,0.2625,0
110,2535000,0.0003,-0.0209,9.8581,-0.0476,0.0712,0.2781,29.7487,-9.4459,41.7779,-0.3661,-0.1794,0.9899,0.4322,-0.9971,-0.7948,-0.9781,0.7043,-0.9382,-0.3968,-0.9278,0.483,0.3514,-2.0184,2.1371,0
111,2545000,0.0368,0.077,9.7983,-0.4067,-0.7843,-0.7313,29.1905,-11.1278,38.4865,-0.3619,-0.1959,-0.365,1.0532,0.2915,0.3315,0.2971,-0.5694,0.5323,-0.1083,0.8802,-0.8849,1.2956,-0.2175,0.4028,0
112,2556000,0.0145,0.131,9.7657,-0.8678,-0.0402,0.2084,31.4132,-10.8934,39.8669,0.8095,-1.3313,-0.3005,2.0989,0.3492,0.8167,-0.3561,-0.5434,0.9534,-1.3736,0.4118,1.1068,-0.547,0.1037,0.3911,0
113,2594000,-0.005,0.023,9.6933,0.9136,0.5259,-0.5935,31.5375,-9.4102,40.4558,0.5353,0.451,-1.2885,1.2828,-1.1143,-0.0429,-0.2392,1.0005,-0.4393,-0.5496,0.092,-0.0157,0.2025,0.84,1.6967,0
114,2605000,-0.0643,-0.1524,9.7664,0.094,-0.4326,0.1207,30.682,-9.8173,39.4979,0.6982,0.4115,-0.8001,0.4991,0.945,0.4639,3.0507,2.2577,0.2892,-1.9068,0.0398,0.8998,-1.18,0.0756,0.0002,0
115,2616000,0.0979,-0.0713,9.7725,0.3347,-0.1104,0.6783,29.8355,-11.0306,39.8149,-1.2748,-1.2828,-0.1839,-1.0589,1.1342,1.2272,-2.2519,0.7006,-0.3594,-0.7639,1.4269,0.5691,0.0873,0.9051,0.6136,0
116,2627000,-0.0832,-0.2582,9.7671,-0.7669,0.3927,0.1686,29.0259,-9.8351,38.9245,0.6377,-0.1743,0.076,-1.2101,-1.9358,1.4284,1.1902,0.2879,0.7126,1.4109,0.0147,1.7298,-0.2419,-0.4999,-0.5443,0
117,2640000,0.0789,0.0118,9.8539,-0.228,0.4008,0.6717,30.323,-9.3478,40.0287,0.2706,-1.5083,-1.3755,0.4662,-0.6514,0.4718,0.4148,0.0249,0.6328,1.4407,-1.735,0.8546,1.5143,1.1016,0.6024,0
118,2651000,-0.0658,-0.3093,9.8278,-0.3629,-0.6738,-0.1991,28.388,-7.1225,41.3833,-0.4166,1.4028,-0.0977,1.497,-0.8588,-1.2082,-0.4324,0.698,-0.2954,-1.7485,-0.0257,-0.3875,-0.7001,0.0633,0.4256,0
119,2662000,-0.0239,-0.0841,9.8111,-0.3142,-0.0652,0.1543,29.9985,-8.3421,39.5742,-1.1405,-0.9488,0.8355,-2.4795,0.0435,1.1508,-1.0518,1.0993,0.9867,-0.8202,0.4718,0.8106,0.7546,0.129,-0.1608,0
120,2674000,0.0065,-0.0859,9.8577,-0.6532,0.9523,-0.739,29.8677,-9.7726,39.228,1.2741,0.174,-0.8114,0.8772,-0.8939,2.1129,-0.0016,0.8163,0.4572,-1.5077,1.2815,0.109,-0.0713,0.7178,0.1737,0
121,2687000,0.0461,-0.1916,9.8556,-0.2476,0.3882,0.0622,30.7036,-9.5916,40.914,-0.3094,-0.6874,0.1501,-1.7083,0.3882,-0.3534,-0.6478,-0.0735,-0.7614,0.1543,0.7813,-0.2873,-0.8516,-0.0231,-0.3005,0
122,2699000,0.1072,0.0154,9.7464,-0.8037,0.4803,0.0303,30.5105,-9.7016,40.2601,-0.147,-0.1744,0.2974,-1.4664,0.0615,-0.3277,0.4229,-0.6901,-0.9312,1.4551,-0.9994,-0.1128,0.4026,0.4617,-0.0474,0
123,2709000,0.1173,0.0165,9.8202,0.2118,0.5826,0.4637,28.6086,-9.4985,39.9925,0.4302,-0.834,-0.4167,0.4789,-1.1331,-1.289,-1.0647,-0.276,2.2923,0.7714,-0.5035,-0.2916,-1.8595,-1.276,-0.5619,0
124,2721000,0.022,0.0809,9.7264,0.5385,0.1557,0.8043,30.714,-10.1479,41.0903,0.3039,-0.3198,-1.102,-0.5902,-0.3227,-0.8005,0.0261,1.7883,0.3219,-1.2448,-1.3105,1.1006,1.6301,-0.2612,-0.9484,0
125,2732000,0.0215,0.0415,9.792,-0.5749,0.2083,-0.27,29.9229,-8.755,40.3629,0.6014,-1.3004,0.5011,-0.5852,-0.3611,-1.4583,0.5254,0.2271,-0.5864,-1.094,-0.2275,0.6696,0.3718,0.2281,-1.2841,0
126,2742000,-0.0064,0.0412,9.7569,0.6705,0.6307,-0.0771,30.0107,-9.2981,40.024,-0.812,-1.1102,-0.2147,-0.772,1.1386,1.1388,-0.2472,-0.1039,-0.1369,1.662,-0.6,1.8197,0.1026,-0.5619,0.4425,0
127,2753000,-0.0848,0.0667,9.8242,0.1503,-0.3847,0.2008,30.2681,-11.7719,40.994,0.935,-0.0107,1.1568,0.5031,0.0481,-1.5296,-1.5599,-0.3271,-0.7933,-1.8665,-0.6665,1.5746,-0.4422,-0.9923,1.8947,0
128,2764000,-0.0588,0.154,9.9287,-0.2242,0.5688,-1.1907,31.5624,-9.2682,41.9993,0.2332,-1.273,1.3217,0.4175,1.333,0.1851,-0.0064,0.0193,-1.2564,-1.18,-0.4786,-0.0777,-1.9776,-0.6093,-0.9123,0
129,2774000,0.0609,-0.1008,9.738,0.9072,-0.3611,0.5031,30.1516,-11.3071,41.1384,-1.0475,-0.7762,1.6026,-0.4684,1.2779,-0.8349,-0.4789,-0.3058,-2.184,-0.295,0.5911,-0.0471,0.2035,-1.0181,-0.1258,0
130,2787000,0.0128,0.0707,9.7488,0.6846,0.3866,0.2125,30.4814,-7.8531,40.9019,-0.043,-0.8711,1.4574,2.5705,-0.4818,0.4891,-1.1014,-1.038,0.093,0.9336,-1.5396,0.3096,1.3128,0.9091,0.2968,0
131,2798000,0.0715,-0.1811,9.7433,0.7103,-0.1849,-0.214,30.7776,-9.5513,39.1005,-0.0788,-0.5276,-0.268,-0.205,0.6409,0.0181,0.3449,-0.16,-1.1895,0.0733,0.0066,0.1033,-0.9217,0.2413,1.9983,0
132,2809000,-0.0886,0.2028,9.8021,0.1367,-0.3272,0.4739,30.1163,-8.8991,40.5128,-0.562,-0.3682,-1.0003,1.4265,0.3287,-0.2568,0.9324,-0.4441,-1.2139,1.9418,-0.719,-1.0696,2.6568,0.3315,0.9623,0
133,2821000,0.0582,-0.2656,9.7531,-0.3576,-0.1323,-0.7432,31.5153,-9.388,40.7278,0.3952,0.7623,0.0737,0.485,-0.6618,0.8908,-0.5734,0.6416,-0.7648,0.3279,1.0238,0.785,-0.1031,0.3405,2.1107,0
134,2831000,0.1305,0.0484,9.7815,-0.1229,-0.8395,0.4173,30.0886,-8.3486,37.8088,-1.5534,0.7194,-0.7855,0.12,-0.1301,-0.5958,-0.826,-0.1951,-0.5434,-0.9278,1.2586,0.0605,0.6705,-3.3741,-0.2574,0
135,2863000,0.095,0.1249,9.7859,0.3569,-0.4301,0.1007,29.5167,-7.7518,38.1677,-0.0316,1.1649,0.9306,0.1008,-0.2318,0.8855,0.1066,1.2724,-0.2615,-1.1571,-0.4998,1.1662,-1.44,0.0524,-0.2574,0
136,2875000,0.06,-0.1422,9.8367,0.1424,0.5807,0.0586,29.9984,-7.8391,40.6481,-1.1577,1.0647,0.6435,0.7576,-1.1247,-0.7593,-0.6875,-0.9747,0.2395,-0.3071,0.1498,1.5109,1.1572,0.3691,0.4925,0
137,2887000,0.0979,-0.207,9.8127,-0.0259,-0.4186,0.5322,30.0884,-9.4549,39.1863,-0.9164,-1.6902,-0.0953,-0.4876,-1.0385,0.7727,-0.4516,1.5531,-0.0804,-0.7962,-2.1604,1.1245,0.1485,0.3921,0.4538,0
138,2898000,-0.0371,0.038,9.8041,-0.0654,-0.2731,0.3285,30.2771,-11.3776,40.0503,0.8724,0.0527,0.0714,0.1974,0.0444,0.2815,-0.0583,-0.2972,1.5193,-0.0547,-0.4823,-0.0975,-0.2927,-0.8138,-0.1581,0
139,2908000,-0.0416,-0.019,9.8073,0.3485,-1.3986,-0.2562,30.0494,-8.6905,39.6016,-0.1879,1.3033,2.1685,1.449,0.9472,0.9179,-0.9244,0.3784,-0.3966,0.0819,0.0691,-0.0389,0.0925,1.7153,0.44,0
140,2920000,-0.1604,0.0402,9.83,0.4883,-0.4201,-0.501,30.1616,-11.2393,40.6463,-0.1217,0.1695,0.7257,0.0555,0.268,-2.2535,-0.4726,0.7339,-0.27,-0.2883,0.5667,0.1558,0.9315,-0.2791,-0.9332,0
141,2930000,0.12,0.1389,9.833,0.2034,0.3439,0.2449,30.2015,-9.9776,39.4203,-0.7435,-0.26,0.6572,1.1866,0.1762,-2.902,-0.9332,1.563,1.7298,0.9824,-1.0306,0.736,-2.2052,1.248,0.7069,0
142,2941000,0.0347,-0.0883,9.8081,0.6256,0.5385,-0.0829,28.8029,-10.0002,40.0906,0.7587,-0.3704,-0.143,1.0398,-1.3184,1.1631,-2.466,0.8949,-0.2379,-0.5842,1.753,1.4492,0.6821,-0.8287,-1.1122,0
143,2956000,0.0337,0.0756,9.8348,-0.2186,0.5755,-0.643,29.1556,-9.1867,40.0106,-0.6503,0.3917,0.3675,1.3088,-0.3708,-0.0565,-0.4773,-1.1412,-0.797,-0.0018,0.5743,0.7288,0.4666,1.1311,-0.8537,0
144,2972000,0.0325,0.0572,9.7934,-0.3527,-0.0445,-0.0911,30.3773,-9.413,38.0253,0.8234,0.2408,-0.9514,-1.0484,-0.2974,0.9807,-0.1599,-0.816,-1.9525,0.6568,-0.3736,-0.1818,-0.5776,1.3984,-0.8423,0
145,2984000,-0.0793,0.0665,9.8272,-0.5288,0.3531,-0.4685,29.2501,-11.5143,39.8618,-1.1415,0.0135,-2.8533,-0.8823,-0.3548,-0.8761,1.1401,0.8676,-0.9447,-1.5813,-0.7048,-1.2545,0.5017,-0.2371,-0.7562,0
146,2995000,0.0413,-0.0425,9.7804,-0.0125,0.4467,0.564,28.7979,-9.7516,40.9955,0.758,-0.8652,0.8012,0.1958,-0.7242,-1.2045,-0.119,-0.6268,0.5118,-0.6867,-3.8932,0.0574,0.414,0.3973,-0.223,0
147,3006000,0.0817,-0.0887,9.8838,-0.0819,-0.0286,0.1184,29.1437,-9.3039,39.691,0.0652,0.3808,0.9184,-0.7336,2.4051,1.63,0.7829,1.1989,0.0147,-0.078,0.3182,0.8129,-0.5589,-0.238,-0.9261,0
148,3016000,0.1198,0.0868,9.8294,-0.1435,-0.0198,0.584,30.1854,-8.7226,38.4484,0.2006,1.7393,0.7118,1.7454,0.2957,0.0936,-0.168,-1.8743,-1.0104,1.0693,-0.7961,-1.0806,-0.4358,-1.2738,-0.3834,0
149,3027000,0.0589,-0.0706,9.7453,0.2873,-0.5369,0.1114,28.7014,-8.7363,40.5203,-1.2923,0.5057,0.2778,1.0295,-2.184,1.109,0.8826,-0.306,-1.2395,-0.0035,1.5585,0.613,-0.2107,0.5885,0.6341,0
150,3038000,0.0648,0.2083,9.8328,-0.7301,0.6419,0.0487,31.2637,-9.7104,40.6939,1.1363,-0.5588,1.0851,-1.0968,0.3787,-0.3199,-1.1359,-0.9088,1.0403,-1.3829,-0.6689,-1.1092,-0.0354,-1.8879,2.1849,0
151,3048000,0.0519,0.1145,9.8169,-0.413,0.877,0.54,30.9209,-9.1161,39.6782,-0.3772,-0.0944,-0.7003,0.4077,-0.1708,0.1721,0.0499,1.4827,-0.0236,-0.1339,0.3483,1.3528,0.8066,1.9481,-1.6042,0
152,3059000,-0.0039,-0.0559,9.7683,0.066,-0.6081,0.0239,28.8224,-9.5595,38.233,0.8067,1.3904,-1.1318,0.1013,-0.2851,-0.329,-1.2853,-0.0373,-1.2073,0.5933,0.2941,1.6778,0.338,-1.3033,0.5175,0
153,3072000,0.1096,0.0787,9.7823,-0.5491,0.7177,0.0691,29.4959,-10.3426,40.0051,1.1975,-0.4797,-0.1663,0.9897,-0.859,0.8473,-0.5021,0.468,-0.3779,0.1561,-0.4655,-0.7275,1.3345,-1.0434,2.038,0
154,3082000,-0.1374,0.0696,9.8153,-1.0892,-0.0045,0.0577,28.9684,-8.386,39.9728,0.14,0.043,-0.9685,0.2972,0.2934,-0.3713,-0.7118,0.8981,0.167,0.7079,0.6915,0.3151,0.5878,0.1701,-0.4379,0
155,3093000,0.0343,-0.0254,9.8988,-0.2954,-0.292,-0.2853,31.9123,-10.1024,42.1846,1.4824,1.173,-1.6099,0.0292,0.7173,-0.3884,1.0541,-0.356,-0.6861,1.8468,-0.6787,0.7415,0.337,2.4133,1.2766,0
156,3104000,-0.0491,0.0655,9.6652,0.8926,-0.2318,0.257,30.4441,-10.1991,39.7406,-0.0385,-1.158,-0.3468,-1.0306,-1.3575,0.5275,-3.3652,0.6567,0.5872,0.4878,0.1187,-1.0087,2.0804,0.8637,-0.0919,0
157,3114000,0.0605,-0.0065,9.8063,-0.2572,-0.1158,-0.3215,31.6376,-10.1218,39.4925,0.6037,-1.285,-0.08,2.1368,0.1514,1.0324,1.4181,-0.3501,1.2185,-0.4122,1.4175,1.5466,-2.2346,-1.4235,-0.2878,0
158,3125000,0.0716,-0.0159,9.8317,-0.0674,-0.1206,-0.525,28.134,-12.1964,38.6127,-0.9403,-0.0461,-0.782,-1.4504,-0.0324,-0.7757,-0.5573,1.5079,0.467,1.6882,-0.4488,-0.2932,-0.8655,-0.4952,0.1739,0
159,3156000,0.1664,-0.1,9.7186,0.253,-1.1236,-0.2205,31.8106,-10.5279,40.6634,-0.3957,-1.8506,-0.7022,0.4365,-0.257,-0.5081,-0.9555,-0.4784,-0.7869,-0.5909,-0.5193,0.3943,-0.5693,-1.1518,1.6298,0
160,3166000,0.0616,-0.1036,9.8129,0.7265,0.3927,-0.5928,29.6314,-11.9006,40.2748,-0.2153,0.5029,0.5846,-1.9032,-0.0427,0.535,-1.5543,-1.8543,0.0925,0.1222,-0.2638,0.0418,0.918,0.3478,0.6002,0
161,3180000,-0.1058,-0.025,9.7132,0.4029,0.4705,-0.2214,31.0439,-10.0939,40.3204,-0.3339,-1.1385,0.1647,1.2146,-1.9189,0.7023,-0.2792,-1.2612,1.1366,-0.7955,0.2654,-0.9858,-1.6995,0.764,-3.2589,0
162,3192000,-0.0497,0.1276,9.8259,-0.1647,0.5013,0.03,28.6083,-9.3944,40.1081,0.2589,0.5349,1.0825,0.4374,1.4633,1.0131,-1.1908,0.6654,0.988,0.6189,0.9386,-2.1561,1.8126,0.6979,-0.2335,0
163,3203000,0.0283,0.0711,9.79,0.077,0.3769,0.7421,31.1791,-8.75,41.0479,-1.319,-0.2395,1.5296,1.6304,1.7201,1.3949,-2.4382,-1.493,-2.0195,0.9151,-0.9438,-0.3994,1.0025,0.8102,-0.8761,0
164,3221000,0.0192,-0.0482,9.8,-1.1766,-0.2448,-0.1559,29.5913,-9.3142,40.3527,-0.6983,-0.9514,0.415,1.2867,-0.3549,0.1459,-1.7042,-0.6426,-0.51,1.0915,1.1945,0.8408,-1.3597,0.3046,-1.8935,0
165,3232000,-0.0192,-0.0434,9.8924,0.7839,-0.0156,0.25,31.2836,-10.4416,39.97,0.586,0.3922,0.0613,0.8191,-1.599,0.4646,-0.3796,-0.5825,0.5524,0.0842,0.1693,1.7581,-0.0405,2.4895,0.0526,0
166,3242000,0.0622,-0.1035,9.8582,0.6584,0.0308,0.0638,29.393,-10.5716,40.3096,0.7736,0.7665,0.3401,-0.4424,0.0213,-0.2802,-0.7511,0.0389,-1.3144,-0.1987,0.4549,-0.2486,-2.2343,-0.1273,0.5025,0
167,3253000,-0.0525,0.0297,9.8336,-0.4482,0.3111,-0.4058,30.1655,-7.3842,40.5718,-0.5967,1.8009,1.8731,2.067,-0.9797,-0.3317,1.7867,0.232,0.0639,1.4644,-0.6362,0.0916,0.7907,-0.241,1.0285,0
168,3263000,-0.1394,-0.0828,9.7925,0.4854,1.1106,0.5607,30.4382,-9.029,40.237,1.1409,0.4034,0.7855,0.3128,-1.6652,0.108,-1.3498,-0.3179,-1.4724,0.5982,-1.5679,-1.0053,-0.7609,0.1855,0.5716,0
169,3274000,0.0688,0.1533,9.8728,-0.126,0.1392,0.0211,32.426,-9.8828,41.8788,1.6715,1.1501,-0.4099,-0.5394,-1.2498,0.9126,1.0649,0.4058,0.4063,0.4961,0.1678,-0.6145,0.8898,-0.3492,0.8275,0
170,3284000,-0.0772,-0.0377,9.8039,0.556,0.5437,-0.2896,30.9551,-9.0603,39.7637,-0.9103,-0.1478,1.9925,1.1135,0.237,0.2282,-1.1015,-2.2318,-1.5636,-0.1436,-0.1997,0.3905,0.0982,-0.7684,-0.1343,0
171,3295000,-0.0095,0.111,9.8101,-0.2695,-0.1857,0.4719,31.1393,-8.8043,39.8777,0.6827,-2.4417,-0.737,-0.2243,-0.6725,-0.2133,-0.9484,1.012,-1.3773,0.7021,0.5007,0.2828,0.4725,0.5348,0.4353,0
172,3306000,0.0079,-0.1877,9.7835,0.1787,-0.2668,-0.6428,31.4703,-8.6018,41.1386,-0.9024,1.091,-0.2686,-0.3141,0.0321,1.1299,0.0126,0.2485,-0.7712,0.264,-0.3078,-0.8752,1.5875,-0.6903,-0.4953,0
173,3316000,-0.0232,-0.0323,9.7832,1.3329,0.4987,0.3234,29.8493,-10.2692,40.4472,0.0063,-0.2999,-0.4845,0.033,-0.9495,-0.6758,0.0655,2.0446,-0.6213,-1.5383,-0.2604,1.0161,-1.2557,-0.0903,-1.8274,0
174,3327000,0.1067,-0.0784,9.8271,0.2253,0.4002,0.0548,29.2055,-8.5258,39.4585,0.5761,1.6516,0.1235,0.9561,0.5669,0.0105,2.4672,0.0435,1.0818,0.9342,1.1315,-2.2151,-0.9867,-0.812,-0.4412,0
175,3338000,-0.0807,0.1823,9.7837,-0.0181,0.2382,0.1969,30.414,-9.4859,37.8875,-1.7729,-0.3268,-0.1122,0.1694,1.8629,-0.9502,-0.4723,-0.2722,0.5801,0.33,0.5487,0.0648,0.3979,-1.4312,0.4027,0
176,3365000,-0.1068,-0.0819,9.8256,-0.2617,-0.9069,0.8571,29.1693,-9.1831,38.6993,-1.5529,1.5597,0.7133,-1.1816,-0.8906,0.8115,-1.9857,0.3946,1.0992,-0.7984,0.1505,0.193,-1.7896,-0.4659,0.8829,0
177,3376000,-0.0109,0.0187,9.8543,-0.7553,-0.612,0.4347,29.6263,-9.2331,39.735,-0.1238,-1.8058,-0.901,1.0645,-2.5013,0.2818,-0.7413,-0.5729,0.3338,-0.3009,-0.9346,-0.6142,-0.5943,0.0812,0.6268,0
178,3389000,0.0678,-0.0441,9.7661,0.2935,0.5848,-0.0702,30.0464,-11.6549,40.6178,1.5212,0.9789,1.2432,1.4329,1.1195,0.5562,-0.8069,1.096,0.6495,1.5038,-1.3214,-1.3723,0.3752,1.0944,1.9323,0
179,3405000,0.1794,0.0124,9.8787,-0.1736,0.9192,0.2821,30.261,-8.7704,40.6121,0.6059,0.0422,-1.5609,0.2404,1.7512,1.1004,0.2351,0.8781,0.0902,0.2599,-2.6295,-0.1629,0.4213,-1.2604,0.5483,0
180,3416000,0.0485,0.1162,9.8028,0.6896,1.0846,-0.3153,32.3295,-11.5173,39.8371,1.1863,0.4949,-0.0123,-0.4444,0.6711,-2.3022,-0.7232,-0.377,0.7342,-0.5549,0.1693,-0.6488,-0.3891,-0.8437,0.4235,0
181,3428000,-0.0233,0.0021,9.7935,-0.2788,-1.1572,-0.0561,30.6644,-12.2174,41.5824,-0.424,0.1689,-0.9373,-1.0623,-0.2492,0.2464,-0.8484,-1.1347,0.2681,-1.4527,-0.2675,-0.6929,1.6263,-1.5255,0.4912,0
182,3438000,-0.0543,0.1165,9.7615,-0.0846,-0.9206,0.2257,28.6062,-11.5732,39.8794,-1.3473,-0.0691,-0.9875,1.5004,-1.5354,0.4468,0.6543,-0.6271,1.1487,1.3584,1.816,0.17,0.3516,1.068,1.6772,0
183,3449000,-0.0156,0.0004,9.7351,-0.572,1.2689,-1.0684,30.1635,-10.3558,39.5614,-0.305,2.7304,0.753,-1.4631,-0.353,-2.1356,-0.6254,-0.2618,1.2762,-0.0844,0.1046,0.4736,0.7676,-1.7447,0.435,0
184,3465000,-0.1204,0.1565,9.7262,0.2244,0.1814,0.4729,29.5859,-10.6942,39.8309,1.3142,-0.1113,-0.6284,-0.3735,-1.139,-0.4039,0.7663,0.3557,-0.6415,0.9504,1.6089,-0.1252,-1.2334,2.5073,0.2825,0
185,3476000,0.0498,-0.0152,9.6834,0.1781,-0.0857,-0.0217,29.8257,-9.2621,42.4572,0.3396,-0.0502,-0.7404,1.0325,1.0624,1.3464,-0.5736,1.3555,-0.6841,0.0148,-0.4993,0.0029,-1.1502,0.3593,-0.0658,0
186,3487000,-0.0146,0.021,9.8234,0.3472,-0.663,0.4634,31.2575,-11.0649,41.0089,-1.2329,-0.7091,-1.5647,0.5266,-0.6528,0.5974,1.3086,0.4149,-0.5921,0.279,-1.299,1.2954,0.7893,-0.8318,-0.5747,0
187,3498000,0.0452,-0.0089,9.8732,0.029,0.0371,-0.6089,30.7675,-9.1658,39.9671,1.3143,-0.3237,-0.2343,0.1231,0.994,0.0953,-0.7445,0.6634,2.1361,-0.7085,1.0202,1.1613,-0.0828,-1.6782,-0.4003,0
188,3509000,-0.0521,-0.1212,9.8102,1.005,0.0812,0.354,30.5888,-10.997,40.3198,-0.9564,1.8784,-0.5095,1.1855,-0.0693,-0.7581,-0.4763,0.7693,-0.5137,0.873,0.4349,0.5046,1.5882,1.7661,-0.4687,0
189,3525000,0.1958,-0.0787,9.8018,-0.411,0.1261,0.2099,31.3665,-10.8157,39.9432,1.6334,-0.9052,-2.2002,0.1143,-2.0098,0.8,-0.9577,1.9632,1.6804,0.897,-1.2648,-1.1369,0.167,0.6135,-0.1227,0
190,3537000,-0.1124,-0.0957,9.7498,-0.6733,-0.2981,0.1345,29.5188,-8.8627,41.0309,-0.3686,-0.3019,1.1479,-0.9527,-1.7133,-1.1851,0.0382,1.6623,0.0452,0.4456,1.1077,-0.2789,-0.1704,-1.0897,1.3568,0
191,3548000,0.1265,-0.0732,9.7473,0.3659,0.1252,-0.3601,29.7922,-10.9237,39.1955,-0.5079,0.8696,0.921,1.4351,0.5534,1.9081,0.8506,-0.0603,0.4303,-1.4592,0.3733,0.6815,-1.9251,0.9857,0.2184,0
192,3559000,-0.0323,0.01,9.766,0.1785,0.656,-0.2717,30.6012,-9.8387,40.1661,0.4616,0.261,-0.3718,-0.7698,-0.1835,1.1666,0.2653,0.5987,0.4186,-0.6464,0.111,-0.8607,1.0346,0.6594,-1.9552,0
193,3569000,0.0351,0.1034,9.8324,0.4169,-0.7982,-0.9169,28.8263,-9.4453,39.6877,0.2063,-0.1606,-0.3473,-1.0596,0.1814,0.5073,-0.4867,1.1293,-0.6816,-0.7424,-0.8367,-0.3601,2.1319,-0.4633,0.7873,0
194,3580000,-0.1011,-0.0415,9.8026,-0.0336,1.1842,-0.0269,29.8017,-9.9359,40.457,-0.3789,1.7865,-0.2932,-0.9874,-1.7713,-0.2497,-0.6665,0.5362,1.7184,-0.1094,1.3463,-0.522,0.0475,-1.5774,1.6066,0
195,3592000,0.0617,0.028,9.8719,-0.2149,-0.3357,0.1571,29.4804,-9.4508,40.4757,-0.4641,-0.485,-0.0935,-0.8536,0.4102,-0.5277,0.2444,1.2511,-0.9343,0.9485,1.5772,0.6497,-0.1596,0.1841,-1.1273,0
196,3603000,0.1251,-0.0372,9.8298,-0.6178,0.7069,0.06,28.7519,-8.2532,39.7103,0.5525,1.4916,0.5219,1.1921,0.0899,1.1959,-0.7931,0.0243,-0.1921,-1.1319,0.4984,-0.6681,-0.9677,-1.8879,-0.7386,0
197,3614000,-0.1839,0.0482,9.7505,0.4522,0.4533,0.1284,31.4082,-9.8951,40.3861,-0.4425,-0.2544,0.2879,0.6561,1.6724,-0.1012,-0.2851,-0.6623,0.7482,1.0419,0.0922,0.1013,-0.2523,0.2803,1.299,0
198,3655000,0.1465,0.0405,9.7786,-0.1609,0.7841,0.0684,30.0666,-10.8324,39.9701,3.7833,1.1341,-0.2946,-0.3252,0.5319,0.6746,-0.3671,-0.0477,-0.2569,-0.5963,1.4275,-1.646,0.8338,-0.1333,0.4169,0
199,3670000,-0.2019,0.1784,9.725,0.1786,-0.5192,-0.4909,29.869,-9.2642,40.9791,0.2511,-1.1158,-0.2084,-1.2324,-1.3597,-1.2129,0.7689,-0.3842,0.5407,-0.2606,1.6013,-1.9962,-1.009,1.885,-0.6152,0
200,3683000,-0.0481,0.1107,9.7096,0.2221,0.2033,-0.408,31.08,-10.7615,40.8546,-1.0305,-1.8514,0.6144,-0.8333,0.4329,0.9627,-0.7347,1.1393,0.3076,1.2046,-0.6721,0.4031,0.9951,0.9898,0.0701,0
201,3693000,0.1442,-0.1063,9.7679,0.1326,0.0356,-0.7731,29.7134,-8.9882,40.5232,-0.4513,1.3713,-0.7094,0.3237,-0.3537,0.2503,-0.1248,-0.3049,0.6283,2.134,-0.722,-0.5837,1.8996,-0.4267,1.7201,0
202,3704000,0.0146,-0.0376,9.7486,-0.8973,0.4196,0.195,30.783,-9.7873,40.7519,-0.8306,0.7714,0.0979,2.2832,2.7296,-0.2259,-0.9917,-1.6575,0.5769,0.5974,1.3329,-1.0723,0.6144,0.9627,-2.5025,0
203,3714000,-0.0401,0.0088,9.7937,0.1355,-0.1954,-0.7705,30.7638,-9.8715,39.5157,0.5387,0.44,0.2383,-2.2715,0.4007,1.0504,-0.9054,-0.0854,0.4287,-0.2884,0.5528,-1.2605,0.6739,-0.6566,-0.127,0
204,3728000,0.0082,-0.1263,9.8398,0.3956,0.0696,-0.1435,29.6835,-8.8397,40.05,1.9655,-0.1592,1.3337,0.0659,-0.2924,-0.26,0.3243,-2.092,-0.3353,-1.456,0.2839,1.1454,2.1687,0.7458,1.3807,0
205,3739000,0.0279,-0.0899,9.7104,0.613,-1.0769,-0.3069,27.8129,-9.5376,40.8595,-1.633,0.2664,1.2102,0.3079,-0.3,0.1862,-0.0522,1.2784,-0.2179,0.7876,0.3768,-0.9106,-1.1521,-0.3702,0.0415,0
206,3752000,0.0332,-0.1068,9.7805,-0.7571,-0.3334,-1.1065,29.7432,-9.6093,39.4451,-0.3895,1.1659,0.864,0.1454,0.7431,-1.8635,-0.3369,-0.7497,-1.7641,-0.9662,2.0469,-0.8259,-1.1981,-1.0005,0.0485,0
207,3763000,-0.128,0.0609,9.7916,0.7039,-0.1517,-0.6143,28.4741,-10.6173,39.5405,-0.7153,0.1457,-0.6248,0.0688,0.7659,-0.4054,0.0077,-0.398,-0.3849,-0.9496,0.6244,-2.4031,0.1174,0.2813,-1.5835,0
208,3776000,0.0746,-0.0731,9.7216,-0.6456,-0.7968,0.0572,29.5319,-11.4277,41.5215,-0.3963,-0.2599,0.4398,-0.7742,-1.1832,0.0487,-0.2054,0.6476,-1.1931,-1.3558,-1.133,0.6884,0.1836,0.2072,-0.1741,0
209,3788000,-0.0783,0.0319,9.8189,-0.2451,0.094,0.2934,29.8099,-11.3654,39.8307,-0.284,-0.0668,1.1794,0.9735,0.664,1.311,0.6655,-0.1554,-0.7898,-2.475,-0.2741,-1.7504,0.5947,1.6034,-1.7243,0
210,3805000,-0.0092,0.1105,9.7162,-0.0488,0.3864,0.5199,29.7584,-11.1751,40.5635,1.206,1.8071,0.0089,-0.4412,0.4988,-1.3453,-0.2834,-0.5196,-0.8667,1.8224,-0.4721,1.8869,0.1333,1.0158,0.0609,0
211,3822000,0.0386,-0.1382,9.8134,-0.0999,0.2912,-0.9195,29.7361,-9.2456,40.5607,-0.6571,1.2896,-0.7273,-3.236,-0.2269,0.2205,0.3724,-0.9174,0.369,-2.2189,0.6644,0.4354,0.779,0.286,-0.1541,0
212,3834000,-0.1605,-0.0883,9.7791,0.3842,0.2847,-0.4221,31.1713,-10.0928,39.4965,0.0371,-0.2122,-1.1944,-0.6832,0.2916,1.7022,-1.5377,0.9712,0.0465,-1.2475,0.7503,1.8327,-0.1175,-0.2375,1.6896,0
213,3848000,-0.0673,0.0805,9.7416,0.2428,-0.6531,0.1578,30.4806,-9.8982,39.481,0.012,-1.0459,-0.1954,0.3084,-0.7255,0.1528,0.8942,0.02,0.8611,0.9186,-0.5211,-1.2801,0.3848,0.3276,-0.3523,0
214,3859000,0.0169,0.0096,9.7169,-0.2223,-0.2695,-0.4791,30.2789,-9.2551,39.4443,0.7047,0.4269,0.9871,-0.1706,-0.8307,-1.0754,-0.6209,-0.0759,0.4172,0.4772,0.1264,-1.5105,1.212,-0.4954,-2.0309,0
215,3869000,-0.0035,-0.0359,9.6987,-0.4479,0.6501,0.1427,31.2533,-8.9049,40.0519,2.3452,0.2802,-2.4172,-0.7865,-0.0057,-0.9136,0.4183,0.2244,-0.2211,1.5237,-1.2351,1.2872,2.174,0.5184,-0.9179,0
216,3879000,0.2595,-0.0573,9.7707,0.2832,0.5052,0.1996,32.0939,-10.358,40.8056,0.3377,-0.6338,1.7366,0.1257,0.0176,-0.2158,-0.1666,0.0834,-0.8408,-0.2713,0.5211,1.4746,0.5703,-0.4329,-0.6786,0
217,3890000,-0.1471,-0.0538,9.8433,0.0992,0.1584,-0.0431,30.5973,-8.288,40.7352,-1.4618,-0.5314,-0.5067,1.4708,-0.9906,1.1288,0.507,-0.9245,-0.9175,-0.6332,0.1888,-0.5618,-1.2559,0.5954,0.582,0
218,3901000,0.105,0.1159,9.7942,0.2212,-0.1931,0.4539,27.9455,-12.2966,40.9616,-1.4992,0.6787,0.1251,0.7467,-0.0716,1.0658,0.6851,1.8453,-0.7485,-1.2991,-0.6508,-1.3595,-0.5748,-0.1044,0.2068,0
219,3911000,-0.0789,-0.2537,9.8244,-0.3029,0.267,0.2918,30.5716,-10.1782,39.6376,-0.0926,-1.8397,0.8979,-0.5039,-0.2605,-0.9007,-0.2492,0.2245,0.5133,0.269,-0.951,1.4966,1.0236,0.2833,0.5667,0
220,3922000,0.0399,-0.0889,9.8345,-0.4254,-0.6345,-0.614,29.0674,-7.6889,39.658,1.8565,-0.2202,-0.7224,-0.7095,0.0862,1.3857,0.5641,-0.2666,0.4189,-0.6301,1.707,-1.316,-1.379,2.1438,-1.2836,0
221,3950000,-0.0595,-0.0847,9.7713,-0.1669,0.3557,0.1055,29.6165,-9.9376,39.9216,-1.6898,0.1946,-0.5803,0.5279,1.3946,0.3467,-0.3591,-0.7601,-0.2218,-0.0623,0.5802,0.7101,-0.5454,1.0883,-0.7555,0
222,3961000,0.0295,0.0321,9.7562,0.259,0.4223,-0.0979,30.1685,-9.5393,39.5449,-0.192,-0.3738,-0.2743,-1.1043,0.0999,-0.947,0.5186,0.4482,0.2689,-2.1871,-0.8169,1.3515,0.2076,-0.1646,-1.03,0
223,3975000,-0.1122,0.1089,9.7603,-0.5739,-0.3914,-0.3088,29.6904,-9.9624,40.9161,0.2534,0.3114,1.8232,-0.5996,-0.0001,-0.1937,0.0664,-0.2914,2.0327,1.3241,1.7854,-0.7098,-0.806,1.1517,0.711,0
224,3988000,0.14,-0.0736,9.8027,0.3055,-0.3538,0.3897,29.3408,-9.8337,38.9766,-1.6782,-0.0467,-0.8355,-1.5306,0.8684,3.6119,-0.7765,0.2637,0.73,0.3684,0.3033,0.3389,0.9166,0.2584,0.0945,0
225,3999000,0.2526,-0.0454,9.7575,0.8629,0.5691,0.0373,29.8767,-10.286,39.5654,-0.8413,1.0205,0.8146,-0.5735,0.2117,-1.279,-0.0769,2.1303,-0.7228,2.2021,0.2172,0.2047,-1.4296,-0.6454,0.3274,0
226,4017000,0.004,0.0201,9.807,-0.269,-0.2078,0.5019,29.2674,-10.1808,39.9816,1.8509,-1.3314,-0.353,0.7888,0.848,0.2533,-0.3939,-1.4938,-0.0745,-0.2931,1.164,-0.3862,0.1715,-1.109,0.3746,0
227,4028000,0.0182,0.117,9.8406,0.9319,0.4091,-0.445,32.1721,-10.6992,39.2241,-0.013,-0.2632,-1.396,-0.1922,-1.0966,0.5803,-1.0334,0.4144,0.7813,-1.056,1.2475,0.9473,1.5468,1.7474,-0.285,0
228,4039000,-0.005,-0.0748,9.8534,-0.0498,0.256,0.3191,28.2685,-8.8072,41.2883,-2.1077,1.0927,-0.2233,1.3712,0.7397,-0.687,1.5067,-0.0656,0.3698,2.33,-2.1065,-0.2371,1.4316,1.2686,-0.9236,0
229,4053000,0.0621,0.0871,9.7731,-0.1138,0.2724,0.4073,29.2712,-9.5382,40.8823,1.3285,-0.0405,0.1515,1.9981,0.0777,-1.2887,-1.0466,0.2001,-1.2806,0.9396,0.7871,-0.1235,0.451,-0.1767,-0.1275,0
230,4066000,0.0538,0.1663,9.858,-0.1411,0.004,0.5378,29.3964,-10.1491,41.0233,0.1391,1.4982,0.4111,1.2715,0.7497,-1.97,0.3829,0.4136,-0.6761,0.5034,0.5044,1.1964,-0.6483,0.0573,-1.4826,0
231,4076000,-0.0945,-0.1072,9.8089,-1.0099,-0.0817,0.4504,29.2261,-10.7915,39.6745,1.2728,0.9144,0.7503,-2.2403,-1.6666,1.8613,0.6551,0.1829,-0.0976,0.9578,0.4744,-1.177,0.7835,-1.151,0.6809,0
232,4086000,-0.0224,-0.0624,9.8401,-0.1255,0.3121,-0.6363,30.1357,-9.1472,38.4392,-1.1983,0.5587,-0.4575,0.1055,-0.4268,-0.579,-0.3223,1.2318,-1.4205,-0.2693,-0.9023,0.2277,0.9511,0.5335,0.647,0
233,4097000,-0.0213,-0.0656,9.7779,0.6783,-0.0129,-0.4076,30.464,-10.3379,39.9912,1.0873,-0.0385,-0.1171,0.4999,-0.1318,0.4559,-0.8237,0.5183,-1.1564,1.3212,-1.3904,0.6803,-1.3579,-0.2841,0.3073,0
234,4108000,-0.0361,0.132,9.8614,0.1732,-0.8157,0.6276,29.2982,-10.6163,39.5962,0.3163,-0.7648,0.3933,0.1819,0.7541,2.1171,-0.0139,-0.4225,0.9981,-0.1749,0.458,-0.0803,-0.779,-0.2688,1.1799,0
235,4120000,-0.0542,-0.0443,9.7599,0.7858,-0.2652,0.3594,30.9668,-7.3453,39.287,-1.82,-0.1845,0.3864,-1.018,-0.6279,-1.5042,-0.7272,-2.0137,0.2168,0.3116,-0.5493,0.9215,0.6143,2.0991,-1.894,0
236,4130000,0.1183,-0.0124,9.7716,-0.1916,0.5012,0.0764,29.5463,-9.4105,40.7496,-0.7277,0.0807,0.27,-0.0605,-1.0004,0.7041,-1.9546,0.3464,0.8753,0.7672,-1.3968,0.7406,1.8904,0.7033,-0.6538,0
237,4143000,0.1167,0.2281,9.9121,0.5914,0.0033,-0.1005,29.8415,-9.4534,38.2586,-1.3404,1.2428,1.2076,0.8159,0.3872,1.6247,-1.8836,0.0701,-0.7681,-1.4033,0.6316,-0.1836,0.0361,-0.503,-0.1242,0
238,4156000,-0.0435,-0.0386,9.8208,0.197,-0.6828,0.7845,29.1709,-9.374,41.0494,0.8539,1.4751,-0.3677,1.4354,-1.1872,-0.4764,-0.6687,-2.2856,-0.6437,-0.2503,1.3771,0.7618,-0.1952,-0.0344,1.5197,0
239,4167000,0.0964,-0.0644,9.7428,-0.4719,0.2272,-0.5271,31.1515,-10.4162,39.1602,-0.0008,1.565,-0.4853,-0.9098,-0.193,1.2008,-0.6183,1.166,1.4736,1.8078,0.317,0.0875,-0.3823,-0.1531,1.6488,0
240,4178000,0.0657,0.0426,9.8233,0.1401,-0.934,0.0454,29.3552,-11.8151,41.7505,-0.4374,-0.6161,0.2594,0.1872,0.2434,0.1425,-0.1874,0.3597,0.8764,0.9202,0.4577,0.3469,-0.7913,0.4243,-2.6736,0
241,4189000,-0.0053,0.0839,9.8023,0.2238,0.0578,0.8326,30.1625,-9.6491,40.1761,0.6327,0.7041,0.7436,1.1724,-0.5025,-2.2825,-2.7712,-0.11,-1.1027,-1.1272,0.5626,-2.5001,1.5201,0.3146,-1.92,0
242,4200000,0.0556,0.0641,9.8602,-0.0052,-0.485,0.335,29.6278,-10.0048,40.1226,-1.438,0.1009,-1.6747,1.3017,-0.5145,0.6292,1.2706,-1.5835,0.0625,0.9167,-1.2564,1.007,0.4526,-1.0821,-0.6053,0
243,4212000,0.0107,-0.0939,9.8572,-0.1801,0.1669,-0.6828,29.386,-8.669,40.3894,-0.5383,-0.181,0.8117,-0.4129,0.0648,-0.4385,-0.7667,-0.9282,0.5993,-0.1034,-0.1292,-1.3648,1.7107,-0.4194,-0.4909,0
244,4243000,0.014,0.0331,9.7552,-0.0291,-0.4277,-0.5347,28.9623,-10.713,38.7407,-0.2996,1.7821,-1.5124,0.6239,-0.6242,-0.6688,-0.1678,-0.1011,-0.0399,1.4644,-0.5988,1.3258,-1.5554,-1.2424,-0.7354,0
245,4256000,0.0451,0.1776,9.812,0.698,-0.7119,0.4697,30.8527,-8.2138,39.2665,0.2868,-0.2515,0.1296,-0.8712,-0.9204,1.456,0.2665,-1.7811,-0.6034,-0.7264,-1.2115,-0.2229,-0.0518,-0.2909,-0.6868,0
246,4267000,0.0406,-0.2105,9.8515,-1.0478,0.9443,-0.8883,31.0061,-9.1991,40.0451,-0.437,0.779,-0.8251,-1.3042,0.5676,0.0942,-0.0593,1.2853,-0.7934,2.8563,0.2553,-1.6721,-0.1144,1.3488,0.3187,0
247,4280000,-0.0449,0.0644,9.8135,-0.0209,-0.5703,-0.2553,29.825,-8.7157,39.7551,0.2461,-1.3474,0.1112,0.026,-0.1141,1.1441,1.2645,0.0583,0.2265,0.5186,0.748,1.1814,0.1834,0.3122,-0.7778,0
248,4294000,0.0024,0.1315,9.8341,0.1811,-0.2314,0.0885,31.8171,-11.0409,39.9743,0.5767,1.5201,0.8791,-0.8654,-0.6856,-0.5705,-1.1786,1.5258,0.8463,-1.6623,-0.7048,0.8746,-0.325,-0.296,-0.3864,0
249,4306000,0.02,-0.0995,9.7907,-0.4029,-0.649,0.4903,30.0829,-10.1624,40.2222,1.043,-0.759,1.5018,-0.9567,-0.2991,-2.2639,-0.4021,-1.4838,0.561,-0.4118,1.3157,0.4443,0.8027,-0.4182,1.3658,0
250,4319000,-0.0569,-0.1259,9.8508,-0.3524,-0.7173,0.2123,30.436,-10.2116,40.8055,0.2697,0.0464,0.1252,0.7367,-1.1191,0.3524,0.5991,1.8372,-1.3836,-1.0405,1.4652,1.4553,0.0532,-1.1278,0.0767,0
251,4330000,0.0482,-0.0843,9.8959,0.2906,-0.3044,0.0075,32.4326,-10.3459,38.9689,0.4973,0.1787,1.6792,1.1118,1.8483,1.8255,-0.3904,0.9083,1.0426,0.193,0.1774,0.4388,-0.0118,0.6925,-0.018,0
252,4345000,0.1329,0.1569,9.7852,0.2668,0.7399,-0.0413,28.7897,-10.6333,40.0887,-0.7451,-0.3815,0.4905,1.0052,0.304,-0.1821,-1.8582,0.0019,-1.5183,-0.8051,0.8462,0.3198,0.4541,0.1706,1.3988,0
253,4357000,0.0457,-0.012,9.751,-0.3361,0.4154,0.1693,30.0988,-9.5438,40.4468,0.5855,-0.8769,0.9244,0.2307,-0.1734,1.9467,-0.2931,-0.2718,-0.6253,0.9909,0.7511,1.3311,0.0434,-0.8833,-0.2732,0
254,4367000,-0.147,-0.2479,9.7931,-0.1133,-0.2025,0.3807,30.3119,-10.5007,40.0455,-1.7295,-1.19,-1.3244,0.2615,-0.0724,1.4163,-1.2932,0.1975,-0.8896,-0.1496,-0.8564,1.0916,-0.8106,1.348,-0.3723,0
255,4378000,-0.1726,0.0281,9.7755,0.7775,-0.4439,-0.6591,30.7937,-10.4262,39.8559,-1.7878,0.272,-0.0182,0.2556,-0.8969,-0.2603,0.393,-0.2503,-0.1418,-0.3164,-1.1887,-0.1095,0.411,1.5046,-3.193,0
256,4388000,-0.0787,0.0298,9.7625,0.3887,-0.9757,-0.2978,29.9816,-9.352,40.8511,0.8663,-0.3867,-1.1522,0.0094,-1.1109,0.5815,0.1289,1.4309,0.312,-0.1562,1.4734,0.0207,-0.3307,1.0436,0.7514,0
257,4399000,0.0506,0.0739,9.7961,0.3248,0.3506,0.1638,30.0795,-12.3536,41.1879,0.2204,-0.5574,0.5164,0.0909,0.2112,-0.3924,-0.9299,-0.7639,-0.8547,0.1544,-1.2045,-0.7558,0.6365,-0.4734,0.3835,0
258,4410000,0.0346,0.0627,9.6944,-0.1385,-0.8184,0.5158,30.0484,-9.252,41.0559,-0.338,-0.8594,-0.7198,0.6176,-1.426,-0.2092,-0.4482,-1.3778,-0.9156,1.4409,-0.2919,-1.5155,0.9279,1.1759,-0.6141,0
259,4421000,-0.0492,0.1039,9.7736,-0.0187,0.7772,-0.6946,30.995,-11.5696,41.8916,-0.3107,-0.5748,0.7728,0.4746,0.8016,0.8582,-0.2119,-1.4312,-0.7637,0.0207,0.9372,-0.1799,-1.2849,0.1775,1.7908,0
260,4433000,-0.1106,-0.0487,9.7804,-0.4484,-0.8634,-0.4234,28.6719,-9.7164,40.09,1.4249,1.1594,-0.0789,0.4388,-0.7632,1.4882,2.0565,-0.4293,0.7993,0.9065,-0.7455,2.8279,0.4605,-0.7666,-0.2406,0
261,4444000,-0.0398,-0.0559,9.7492,0.3592,-0.3783,0.3734,29.5152,-10.2,40.3462,-0.5964,0.1445,0.5382,1.9686,-0.8798,-1.4397,-1.4742,2.3505,-0.1414,-0.3185,0.1837,-0.8585,-1.2014,-1.9262,0.3341,0
262,4455000,-0.134,0.05,9.825,-0.0666,0.592,-0.0134,28.7232,-9.5942,38.0423,0.0849,-0.6554,-0.4514,0.5004,-1.1094,-0.8946,0.1698,0.3123,1.3711,0.7847,0.7869,1.3334,1.5766,-0.0976,1.6717,0
263,4465000,0.1869,-0.1253,9.82,0.0436,-0.12,-0.3476,30.064,-10.2719,40.3048,1.371,1.4776,-0.391,-0.8287,-0.5825,0.6102,-0.6246,-2.1741,0.5539,0.8981,1.0116,1.0629,-1.5285,-0.194,-0.5827,0
264,4475000,0.1528,0.1576,9.7586,0.1483,0.2588,-0.725,29.5196,-11.3716,39.7302,1.6917,-0.5089,-0.0925,0.5118,-0.3348,1.4678,0.4253,-1.5194,0.3313,-0.5849,0.8713,0.3285,-0.7422,0.8516,1.09,0
265,4486000,-0.0415,0.004,9.8765,-0.2319,-0.064,0.0224,30.2344,-11.2474,41.0934,0.6115,0.5809,0.3215,-1.0785,-0.4617,-1.9703,-0.5406,0.0819,0.658,-0.3455,-0.3684,1.7678,-0.7313,0.6623,0.591,0
266,4496000,0.0792,-0.1329,9.7904,0.4815,0.3782,0.1943,30.8794,-8.308,40.4808,-0.0085,-0.3344,-0.9602,1.1809,-0.2254,0.9025,0.0632,-1.2731,0.3965,1.6428,-0.3586,-1.7978,-0.4744,0.8308,0.2265,0
267,4530000,-0.0303,-0.1024,9.7994,0.6037,0.4721,0.8906,31.1211,-7.9087,40.6913,-1.1326,0.8971,0.5142,-1.3655,0.395,0.7383,1.0832,-2.6535,-0.153,-2.9372,0.8,-0.3327,-0.5476,-0.0207,0.374,0
268,4541000,-0.1683,0.171,9.8167,-0.6137,-0.0756,0.5815,29.1306,-10.6615,39.9207,-1.8479,-0.9275,0.2244,0.959,2.4728,-0.0612,0.0422,0.9815,-1.2777,-0.5011,-0.742,-0.7091,0.6569,-0.0571,0.5012,0
269,4557000,0.1844,-0.0217,9.7159,0.138,0.7114,0.6073,30.2806,-11.1425,39.3317,0.5384,-1.2205,0.5805,-0.636,-2.413,1.9398,-1.8527,0.5213,0.9743,-0.1447,1.4119,0.8885,0.4894,-0.3086,0.6109,0
270,4567000,-0.0615,0.0328,9.8016,-0.7191,0.1156,0.7441,29.8548,-8.4034,41.4774,0.2143,2.5074,0.484,-1.3936,0.5622,0.2268,0.7905,0.8713,-0.4669,-0.8985,2.2184,0.081,1.7931,0.4508,-0.5466,0
271,4578000,-0.0308,0.1276,9.7564,-0.4882,0.0635,-0.0779,31.0409,-8.9081,39.7993,-1.2412,-1.2104,-0.0888,-0.8624,-0.1702,-0.3176,-0.7372,0.089,0.5392,-0.4767,0.5831,0.9649,-0.0569,-0.266,-0.5482,0
272,4591000,0.0111,-0.0625,9.9022,0.95,0.143,0.3507,31.6997,-8.3005,39.5276,2.3059,0.1405,0.4988,0.6067,-0.0774,-0.2129,0.2608,-0.8737,-0.8912,-0.3254,0.5053,0.8957,-1.7637,0.8192,-1.6772,0
273,4603000,0.1453,-0.161,9.8015,-0.5188,0.0656,-0.5274,27.9137,-10.1057,41.4461,0.7072,1.6711,-1.0036,2.1977,0.5391,-0.675,1.0318,-2.8262,-0.4102,1.5206,-0.8343,0.7265,-0.7531,1.5275,-0.0612,0
274,4615000,-0.0864,0.0824,9.8144,-0.0628,-0.157,-0.2098,29.5598,-11.0603,39.6463,-0.6598,-0.6185,0.7803,0.2959,-0.8378,-0.5359,0.0787,1.1111,-0.5278,0.1564,-0.07,1.0522,-1.0927,1.1809,1.3545,0
275,4628000,0.1011,0.0221,9.8648,-0.1909,0.5079,0.219,30.6372,-9.7846,40.0104,-1.841,1.1452,1.2252,-0.9328,-0.9039,1.4707,1.1036,-0.0843,0.7108,-1.1183,-0.3711,-1.9021,1.0625,-0.1628,-1.0247,0
276,4639000,0.0295,-0.0347,9.8512,0.611,-0.3985,0.2996,28.6915,-10.5987,39.6692,-0.2899,-0.0867,-0.4732,1.8737,-0.3401,0.0524,2.2817,-1.0597,-0.6202,-0.3373,0.2036,1.7405,1.416,-0.1884,2.2332,0
277,4650000,0.0316,-0.04,9.7924,0.1135,0.126,0.0832,30.2968,-9.2144,42.442,-0.7314,1.7743,-2.0286,1.1235,-0.2517,0.6398,1.7687,-1.3737,1.3084,0.0775,1.914,-0.163,-0.0038,0.0889,-1.2939,0
278,4661000,-0.0078,-0.1205,9.7728,0.412,0.0647,0.2304,30.2744,-10.6637,38.7566,-0.1344,0.9106,-0.3863,1.0164,0.7432,-0.484,-0.8628,-1.748,1.331,-0.8517,-0.2003,-0.6939,0.4069,0.4769,-0.636,0
279,4672000,-0.1813,0.0182,9.8107,0.3012,0.5541,0.1572,30.3447,-10.7435,40.041,1.4761,-0.0629,-0.3948,0.4188,1.1045,-1.846,1.0168,-0.4078,0.0735,2.1434,0.738,-0.316,0.3348,-1.8726,-0.2672,0
280,4683000,0.1167,0.046,9.9164,-0.0229,0.6825,0.3047,30.4003,-10.5178,40.7251,0.2181,-0.025,-1.9924,-0.4273,1.2199,1.1956,0.0928,2.2527,0.1372,-2.3444,1.8249,-1.3203,0.0979,-1.3762,0.5442,0
281,4694000,-0.0724,0.0271,9.8071,0.1556,0.1784,-0.2371,29.4596,-11.0018,39.7974,1.0223,0.6093,-0.8907,1.4184,0.6397,-1.3357,-0.205,-0.0275,-0.6665,-0.6774,0.1328,0.6402,-1.1518,-0.7718,1.9458,0
282,4704000,-0.0098,-0.0611,9.8147,-0.3175,0.2363,0.2991,29.4708,-10.6076,38.9827,0.5436,0.8345,-1.6922,0.9586,-0.7125,0.0132,-1.04,1.6262,0.2717,0.7647,0.5373,0.1818,0.0614,-0.5706,-2.2833,0
283,4715000,-0.0724,-0.0314,9.8441,0.1189,1.0636,-0.0474,29.1595,-11.5339,40.6954,-2.3608,-0.3078,-0.1991,0.1791,0.4611,1.298,2.7639,0.2226,0.9426,-0.6778,-0.2171,-0.3294,-0.5374,0.5126,-0.1488,0
284,4726000,-0.0359,-0.0355,9.7607,0.3358,0.0771,0.6827,28.4867,-9.567,39.6995,-0.5472,0.15,1.5008,1.1658,-0.9629,-1.8059,0.1763,-0.8447,-1.2369,0.4414,-0.8942,0.8058,-1.1881,3.0118,1.5991,0
285,4736000,-0.1321,0.033,9.8315,0.1394,0.1149,0.3147,30.1673,-9.6068,38.3802,1.1665,0.2345,0.2718,-0.0927,0.662,-1.2788,-0.3155,0.1651,1.3437,0.0721,-0.4997,0.4124,-0.2716,-1.0184,0.4748,0
286,4747000,-0.0226,0.0028,9.7876,0.1052,-0.5861,0.6044,28.4911,-10.2835,40.2074,-0.101,1.5955,-0.4797,0.7934,-1.365,-0.1352,0.3438,-0.8852,0.2959,2.2556,0.7711,-0.5929,-0.1877,0.4734,0.4394,0
287,4759000,0.0077,0.0692,9.8749,-0.0873,0.0217,0.6505,31.7131,-9.784,40.2504,0.2931,-0.9576,-0.2383,-0.546,1.6029,0.8584,-0.632,-1.8115,3.0722,-0.0376,0.2615,-0.8657,0.952,0.2186,-1.229,0
288,4769000,0.0486,-0.064,9.7482,-1.0768,-0.3693,-0.7278,31.448,-10.4338,41.2519,-1.4271,-0.3964,-0.3622,0.9044,1.7967,0.2795,-0.5752,1.4279,0.7705,0.8483,-0.9085,2.4611,-0.5697,-0.0216,0.4906,0
289,4780000,-0.0152,0.0237,9.7895,0.1275,-1.0285,-0.4539,30.3635,-10.0627,39.4687,-0.865,-0.0045,-0.7301,0.9066,1.1044,0.5947,1.2051,-1.6064,0.0858,0.4401,-0.2381,0.8992,1.2009,-0.4973,-0.1236,0
290,4790000,-0.23,0.1363,9.8267,0.4125,0.8264,0.6887,29.8128,-10.4821,40.1955,-1.5356,0.7298,0.7755,-0.6919,-1.2931,-0.0327,1.1398,-0.3011,1.4897,0.1077,-1.234,-0.0783,-2.0081,-2.317,-1.3976,0
291,4805000,-0.1395,-0.1518,9.7928,0.1031,0.3571,0.694,30.7202,-11.8522,37.6379,0.6149,-0.1028,0.6233,-0.7607,-1.0395,0.4355,-0.3512,0.4171,-0.0928,1.1191,0.0788,-1.675,1.0438,0.1689,0.4806,0
292,4841000,0.1593,0.0391,9.8695,-0.3823,0.2775,0.008,30.189,-8.3144,38.6539,0.5216,-2.0721,1.2299,1.2193,0.5902,-1.7907,-1.0924,0.5823,0.4871,0.6128,0.8239,1.174,0.6934,0.5209,0.8981,0
293,4853000,0.0656,0.1289,9.7824,-0.025,0.22,-0.097,29.2673,-9.3681,39.089,0.3183,-1.1493,-0.1856,0.8073,0.1175,-0.3717,-0.4505,0.0499,-0.6728,0.4689,-1.1082,-0.0281,-1.3127,0.3459,-1.4483,0
294,4866000,0.001,-0.038,9.7783,0.3592,-0.1636,-0.6277,30.5388,-9.3407,40.271,-0.0596,0.6431,-1.2175,-0.0408,-0.6353,0.4794,-0.2767,0.0551,0.7114,1.2361,-1.0617,0.8807,1.8696,0.6781,-0.2101,0
295,4879000,-0.0827,0.0028,9.7896,-0.2907,0.1114,0.7823,29.9789,-10.2191,39.8445,1.2983,0.6823,1.5173,1.1388,-0.3941,0.1552,-0.44,-0.704,0.4163,-0.109,-1.7491,0.4294,0.282,-0.6194,-0.7289,0
296,4890000,0.0405,-0.0075,9.8153,0.0099,-0.0038,-0.5986,28.8639,-8.422,38.869,0.7954,0.8809,-0.6314,-1.0191,-0.0553,0.574,-0.5456,0.1454,0.6029,1.3866,0.8977,0.3391,-2.5772,-0.1896,-0.0566,0
297,4901000,0.093,-0.0257,9.7319,0.0635,0.579,0.2842,30.039,-9.408,39.483,0.9054,0.846,0.5604,1.2478,0.4458,0.4116,-0.5524,1.1755,0.1048,-0.5784,0.4487,0.4583,-0.6931,0.7876,-1.3868,0
298,4912000,-0.0666,0.0352,9.8495,-0.7786,0.4781,-0.2966,27.8037,-9.4069,40.7047,-0.3694,-0.5104,-0.2768,2.3035,0.089,-2.1548,-0.7418,-2.7119,0.4587,1.5809,1.4236,0.047,-2.014,0.2953,-0.4493,0
299,4923000,-0.1124,0.1825,9.738,-0.1704,0.0035,-0.4406,29.4873,-12.4232,39.992,2.1129,0.0395,-1.3348,-1.1951,-0.2593,0.5635,-0.3822,-1.2968,-0.1933,1.4467,0.742,-0.861,2.5186,0.889,-0.7141,0
300,4934000,-0.1,0.028,9.7956,0.1393,0.3743,-0.4103,30.7897,-8.8134,41.5627,0.3147,-1.1082,-0.5095,0.2315,-1.0369,-0.6372,-0.3752,-0.2746,0.6242,0.2336,-0.371,0.3605,0.8811,0.2828,0.9404,0
301,4946000,-0.13,-0.03,9.7771,-0.2974,-0.632,0.4653,31.3132,-11.5004,41.2388,0.8989,0.0057,-1.0961,0.3196,-0.8977,-0.3174,0.6879,0.547,-0.0629,-1.0937,-0.139,-0.8031,0.4858,0.0245,-0.9811,0
302,4958000,0.0407,0.0964,9.7735,0.2732,-0.2598,-0.7497,28.9025,-11.1775,41.4623,-1.3738,1.1426,1.0822,1.6285,-0.9321,-1.247,-0.9121,-1.2108,1.6578,1.1098,0.214,-1.9001,-0.8082,-0.9709,0.651,0
303,4968000,-0.025,-0.062,9.8562,0.4859,-0.0241,0.3292,29.9662,-11.0959,40.0557,-0.1814,0.1627,-1.2415,1.1298,-0.2316,1.7129,-0.3061,0.378,1.5756,-0.1616,0.2282,0.6724,1.1146,-0.1671,1.6541,0
304,4979000,-0.1031,-0.1831,9.8789,-0.303,0.1776,0.4639,28.8923,-10.1282,39.3998,0.32,-1.5035,-1.8951,1.0829,1.2929,0.9766,-0.9913,-0.7436,0.1339,-0.5789,-0.4147,-0.3584,-1.6381,1.0473,-1.0668,0
305,4990000,0.1443,0.1082,9.7798,-0.8772,-0.3507,-0.9999,30.7093,-8.6905,38.4501,-2.3607,-0.6874,-0.701,1.577,0.6317,-0.8877,-0.9314,2.2101,-0.3941,0.0306,-0.9985,-0.3662,-0.217,0.4644,-0.6934,0
306,5000000,-0.1508,-0.0519,9.8171,-0.0979,0.51,0.2395,30.3758,-10.6158,40.2332,0.1632,-2.7118,1.8156,0.2704,-0.4985,1.771,1.781,0.3793,0.1318,-0.3466,-0.6205,0.8049,-0.6688,0.1205,-2.2181,0
307,5011000,0.0354,0.0667,9.7954,-0.1886,-0.3148,0.4752,30.0734,-10.0884,39.5966,1.2069,0.5041,-0.4017,1.8425,0.4874,-1.1328,-0.3913,0.2397,0.9188,0.5031,0.5908,0.2938,-0.3158,-1.3729,1.0048,0
308,5024000,-0.0538,-0.1907,9.8333,0.1085,-0.8359,0.3939,30.5656,-10.5555,38.1603,0.207,1.89,1.6852,0.275,1.5467,0.3352,-1.2994,-1.2049,1.1876,0.0214,-1.5095,1.4674,-0.6581,0.2039,-0.0028,0
309,5034000,0.128,0.0079,9.8211,-1.0281,0.7146,0.3118,30.7091,-10.253,40.194,0.1689,-2.2718,0.2714,0.6361,-0.9733,0.6648,-0.5887,-0.8443,1.4936,-1.1637,0.0592,-0.7038,-2.088,-0.9398,-0.0322,0
310,5045000,-0.075,0.099,9.8047,-0.1699,0.0691,-0.2349,29.8789,-10.8306,40.2502,1.7192,0.7482,0.6106,0.0554,0.1606,-0.1666,-1.2274,0.2763,0.214,-2.1038,-2.0391,-0.7209,1.1806,-0.3354,0.7859,0
311,5059000,-0.0631,0.0291,9.8526,-0.1105,0.8066,-0.3324,29.8954,-9.9425,40.7799,0.3056,1.0578,0.0088,-0.6449,1.0008,-1.1727,0.5641,-2.5357,-0.6455,-0.0333,-1.885,-1.0644,-1.5782,-1.0415,0.585,0
312,5069000,-0.0459,-0.1508,9.9024,-0.1404,-0.7859,0.0381,30.8961,-10.754,40.0141,-0.3182,-0.2491,-0.6136,-0.3557,-0.2497,1.9349,-1.8279,0.149,1.1843,0.6931,-0.9588,-0.6662,-0.1198,-0.5035,-1.2775,0
313,5099000,0.125,0.0677,9.8274,-0.0149,0.4132,0.0422,29.5984,-11.4395,38.0303,0.5631,0.1947,1.5907,0.0635,-0.331,-0.8318,-0.8493,0.872,-0.5167,-1.677,-0.7524,-1.9492,0.3806,1.1779,-0.5324,0
314,5110000,0.1097,0.0061,9.7989,-0.8516,-1.0864,0.005,30.7249,-11.2189,39.9792,-0.069,-2.1793,0.4531,0.1229,-0.2984,-0.5892,-2.2803,-0.3284,-0.4152,-2.1879,1.775,-1.7101,0.6752,0.6938,-1.0797,0
315,5120000,0.1572,-0.1483,9.7948,0.4029,0.9962,-0.4045,31.4667,-9.1798,40.4541,-0.7593,-0.0678,1.2908,-0.5557,-1.3536,-0.1948,0.3903,0.562,0.8764,-0.0658,1.4334,-0.2983,-0.3213,0.7751,-0.6536,0
316,5131000,-0.0668,-0.0061,9.8182,0.2576,0.2374,0.0281,29.6622,-11.0379,38.6532,-1.1716,0.1302,-0.5361,-0.9471,0.825,-2.3145,-0.3374,-0.2575,1.3475,-0.1754,0.2008,1.4162,1.0633,-1.0682,-0.6131,0
317,5142000,0.0083,-0.0482,9.8231,0.2786,-0.9448,-0.4194,29.8644,-10.1418,39.3872,0.4043,-0.18,-0.8361,0.3964,-0.9962,-0.6554,0.4565,0.9023,-0.7096,0.7469,-1.2138,0.8663,-1.2959,-2.2431,0.9956,0
318,5153000,0.081,-0.0306,9.7835,-0.0337,-0.2092,-0.133,28.8327,-8.4935,41.2106,0.5806,0.1271,0.1688,-0.8988,2.0662,-0.9086,0.4129,2.4152,1.6177,-0.3326,0.358,0.3581,-1.8838,-0.8346,0.2129,0
319,5167000,0.1231,0.0649,9.7445,0.2093,0.21,0.0837,30.6035,-10.0513,40.8136,-0.1249,-1.4013,1.8387,1.2331,-0.2447,-1.2297,-0.4142,-0.5078,1.2254,-0.9483,0.7508,-0.4273,-0.4467,1.4647,-0.3327,0
320,5178000,-0.0052,0.1804,9.7894,-0.1107,0.6427,-0.4443,29.7627,-11.8618,39.2002,-0.9091,-0.5127,-0.3739,-1.3422,-0.0826,-1.4736,0.6484,-0.0649,0.0609,-1.4574,-1.8734,0.7037,-0.9451,0.0312,-0.3208,0
321,5194000,0.1894,0.2038,9.7955,0.5362,-1.4051,0.5536,28.6332,-10.5806,38.9519,0.2518,-0.4895,-1.4697,1.6891,0.723,-0.4409,0.0422,-1.7794,-1.1349,-0.6139,-1.1609,-0.9376,-0.1385,0.8309,-0.2968,0
322,5210000,0.1457,-0.205,9.759,0.6286,0.7292,-0.0046,30.8149,-9.4359,40.1419,-1.2977,-0.0601,0.2133,-0.4591,-0.5828,0.124,0.0432,0.1965,-0.1718,0.0159,0.0418,-0.1451,-1.8619,0.1102,1.869,0
323,5222000,-0.087,-0.0523,9.794,0.304,0.135,0.209,29.3979,-9.458,40.005,2.0255,0.1665,0.4893,-0.8271,0.7894,-0.2399,0.502,-1.4902,-0.9877,2.1775,0.1621,0.4847,-0.7692,-1.5959,-0.5924,0
324,5232000,0.1071,-0.0252,9.7589,-0.141,0.1425,-0.723,29.3845,-9.1529,39.0053,0.7704,0.3482,0.4309,-0.2193,-0.2046,0.2112,-0.2321,1.3373,0.0925,2.0778,-1.8364,-0.7565,0.1344,0.0481,-0.6003,0
325,5243000,-0.021,-0.1171,9.7666,0.428,0.0495,0.3182,31.2873,-11.2814,39.8136,0.026,0.0506,-0.7363,1.7395,-0.9192,1.4833,-0.5413,0.2506,-0.8259,-0.2344,-1.5879,1.0205,-0.0311,-2.2402,-0.6736,0
326,5254000,0.0907,0.172,9.7172,0.509,0.502,0.7344,29.3199,-11.4882,40.1658,1.5275,-0.6689,0.5827,-1.2193,-0.5963,0.2848,-0.4421,0.1954,0.9059,-0.5508,-0.5235,0.9422,1.734,1.5624,0.1408,0
327,5265000,0.1356,-0.2656,9.8695,-0.4603,0.4813,-0.3683,29.6876,-9.3071,41.5378,0.7131,0.4333,-0.4084,0.3768,0.0317,-1.8871,0.3956,0.3067,-0.4213,0.8135,-0.0277,0.2509,-0.0511,-0.4678,1.0468,0
328,5275000,0.1088,-0.0307,9.7595,0.2639,0.1572,-0.7806,32.0759,-10.5469,40.4353,1.3597,-0.2056,-0.1223,1.5305,-3.1627,0.8259,0.2259,0.6109,-0.067,-0.3365,0.5929,-0.2383,-0.5946,-0.8661,1.2635,0
329,5286000,0.0414,-0.0162,9.8121,0.4446,-0.6667,-0.3476,28.8428,-8.879,41.0548,-0.2613,0.799,0.091,1.0702,0.6285,-1.057,-0.1985,-1.9942,-0.4135,0.0581,-1.2576,2.1742,-0.7311,-0.3311,-0.5848,0
330,5296000,-0.0967,-0.1595,9.8612,0.2504,-0.1604,-0.3505,28.5278,-8.3843,40.7838,1.1982,-0.0013,0.7003,0.625,0.9553,0.4519,0.5245,0.8428,-0.8571,-1.6128,0.6825,0.4826,1.1444,-0.0301,0.1799,0
331,5308000,0.0788,0.0978,9.818,-0.1313,-0.3877,-0.2953,29.618,-9.7859,40.9538,-0.1421,1.0033,-1.6183,-0.0048,0.3621,-1.1528,1.5059,0.0918,0.0693,-1.1716,0.4066,1.2742,0.406,-0.7322,-1.5611,0
332,5319000,0.0589,0.0077,9.7157,0.3286,0.6336,0.9485,29.3965,-8.6247,41.7618,-0.9592,-2.5188,-0.1282,-0.0593,-0.1874,-0.0809,0.9518,-0.0456,0.3535,0.1699,-0.7595,0.785,1.561,0.2244,1.5458,0
333,5330000,0.1237,-0.0027,9.7548,-0.6366,-0.2529,0.0709,30.1422,-10.6305,40.9484,0.6583,0.2851,0.4548,0.8766,-0.744,0.0306,-2.232,-2.3537,0.1752,-1.6801,-0.5323,-2.1449,-1.1141,-0.7595,-1.448,0
334,5344000,0.0372,-0.023,9.8746,0.0256,-0.3983,0.2441,29.7884,-10.1112,39.2561,-2.0996,-0.0321,-1.7704,0.5189,-0.5991,-0.1642,-0.8106,1.2396,1.0148,-0.7482,2.1225,0.3944,-0.7101,0.8105,-0.8887,0
335,5355000,0.0174,-0.0692,9.8503,0.3619,0.2127,0.6679,29.7999,-10.3765,41.1525,-1.054,-0.082,1.066,0.3615,-1.0591,0.1174,-2.3177,-0.4978,-1.0719,-1.1981,0.1962,0.6369,1.5655,0.3303,-0.0666,0
336,5435000,0.0041,-0.0949,9.8444,0.1679,0.4331,0.2616,29.6334,-9.2228,40.5902,2.224,0.0936,-0.991,-0.4114,-1.8988,1.241,-0.8955,0.9222,0.0903,-0.1804,0.2581,0.2697,1.0399,-0.1858,0.5938,0
337,5455000,0.094,-0.1499,9.8403,0.6511,0.089,-0.7154,29.7726,-9.2946,40.7548,0.3731,-0.4179,1.1337,-0.8146,-1.0919,-0.0973,-1.5085,-0.167,-0.2859,0.8265,-0.2098,-1.1443,0.0837,-0.4881,-0.2679,0
338,5469000,-0.1847,-0.0796,9.8719,-0.1438,0.3598,0.0169,31.5902,-9.1179,40.4522,-0.0392,-1.8513,-1.3076,-0.805,-2.6371,-0.2155,1.7238,1.2676,-0.6494,-0.5858,0.3545,-1.1924,-1.6915,-1.0116,-0.2085,0
339,5482000,-0.147,-0.0125,9.8368,-0.2985,0.3103,0.0504,29.9122,-8.0564,40.1915,1.0444,2.1192,-0.6411,-0.8387,-2.2557,-1.9008,-0.2874,0.3436,-0.6206,0.1738,-0.3799,-0.5768,1.6981,0.0264,1.6091,0
340,5494000,-0.0824,0.0694,9.6465,0.3629,0.0005,0.7716,30.9869,-10.6087,41.1859,0.5409,-0.2818,0.0035,-1.4422,-0.0692,-1.458,0.4364,-1.8475,-1.1675,0.8251,-1.1766,-0.3938,0.6531,1.4726,-0.5445,0
341,5505000,-0.1139,0.1345,9.8085,-0.0329,0.1198,0.5296,30.2297,-9.8342,41.5513,0.854,-1.7645,1.364,-0.7143,-0.2241,-0.6166,1.0169,0.2406,-1.8113,-1.1335,1.696,1.326,-0.8394,-1.9149,2.0119,0
342,5517000,-0.0587,-0.1125,9.8699,-0.3293,-0.0728,0.7474,30.2444,-10.1004,41.5633,-0.7246,-0.3636,1.0231,-0.3386,-0.2067,0.6343,-1.0713,-0.3235,0.6458,-0.2141,-0.0061,0.1448,-0.4153,0.3287,-0.8191,0
343,5529000,-0.072,-0.0336,9.8142,-0.7998,0.1309,0.1484,28.5436,-9.476,41.678,-0.1041,-0.8257,1.1843,-0.2323,-0.6738,-1.3765,-0.1159,0.4124,0.0908,0.2297,-0.6989,0.1276,-0.7522,0.5564,0.9498,0
344,5542000,0.0827,-0.1946,9.8497,0.1117,0.2951,0.3724,29.4904,-9.2215,42.0612,-1.9274,-0.7136,0.2229,0.9331,-0.6076,0.5077,0.6391,0.1694,-0.5626,-1.1248,-1.0527,0.9212,0.0879,0.1146,-0.034,0
345,5554000,-0.0318,0.0492,9.751,0.3691,-0.2377,0.4442,30.5322,-8.7797,39.7003,-0.9299,0.1232,0.4784,-1.2419,-0.4107,-0.3383,1.1275,-1.4765,0.9646,-1.1819,-0.763,-0.8777,0.4645,0.152,0.4847,0
346,5566000,-0.039,-0.0214,9.7544,0.248,-0.2036,-0.4749,30.022,-10.2671,40.0153,0.8805,1.0111,-0.2785,0.4559,-0.2926,1.271,-1.4351,-0.8055,-0.328,0.7158,-0.019,-0.0368,-0.2164,-1.1793,-0.0661,0
347,5577000,-0.1205,0.0893,9.7945,-0.523,0.4195,-0.3312,30.1385,-9.0685,39.9323,0.3283,0.6231,-1.1109,-0.0128,-1.9616,-0.3092,-0.203,1.293,-0.3027,-0.6223,-0.2215,0.7845,0.2836,-0.7423,-1.3912,0
348,5587000,-0.0901,-0.2985,9.8058,-0.9208,-0.6699,-0.2062,30.3844,-10.5621,39.9016,2.6245,-0.0491,-0.3774,-0.7149,0.5839,0.7456,-1.061,-0.954,1.1327,-0.22,0.4421,0.0692,-0.9348,-1.0217,-0.3941,0
349,5603000,0.0175,0.115,9.8216,1.0048,0.0135,-0.3075,29.0805,-10.9193,38.3016,0.5209,0.2055,-1.572,0.2061,-1.4771,-0.3597,-0.331,1.0334,1.8753,-1.1711,-0.4683,1.0415,-0.5414,-1.5939,0.3257,0
350,5614000,0.0799,-0.0507,9.8157,-0.0245,-0.0365,0.8619,31.536,-9.747,39.9353,-0.5908,1.1288,-1.5852,-1.8543,0.0933,-0.4688,-1.269,-0.5917,1.0135,-1.3239,-0.6357,-0.8176,-2.7165,-0.6813,0.5783,0
351,5625000,-0.0271,0.2463,9.8739,-0.5348,-0.6608,0.5388,28.3661,-10.3003,37.4533,0.1735,0.3229,2.462,-0.8354,1.5396,0.3335,-0.5117,0.873,-0.3401,-0.7356,-1.7561,0.1983,0.2273,0.4338,-0.0132,0
352,5635000,0.1038,-0.0018,9.7955,0.2524,0.4814,-0.5825,29.6716,-9.8979,41.0044,1.1298,1.8067,-0.9291,1.8259,0.1115,-1.7798,-0.5307,-1.319,-0.2301,0.7075,-0.2639,-1.0331,-0.6532,0.0532,-1.1201,0
353,5646000,-0.0627,-0.1386,9.7626,0.1487,0.557,-0.6915,29.5412,-9.4991,39.8681,0.4213,-1.2275,1.3324,0.4377,-0.2348,1.2395,0.2944,-0.5509,-2.1775,0.0267,0.7179,-0.1083,-0.7732,1.9582,-0.1467,0
354,5657000,0.0352,-0.0447,9.69,-0.067,-0.0029,0.0875,28.1355,-9.802,40.8173,-0.0536,0.659,-0.3703,1.6649,2.1134,0.2901,-2.809,-0.4149,-1.2012,1.0573,1.0983,-0.3475,0.7988,-1.1473,0.7799,0
355,5667000,-0.0944,0.0416,9.726,-0.3074,0.6408,0.1953,29.5379,-10.6493,39.1202,-0.1718,0.0231,0.3102,1.6744,1.0448,-0.6911,-0.6712,0.8504,0.2278,-0.559,0.1681,-1.0145,2.4084,1.0258,-0.6556,0
356,5680000,-0.0376,0.0853,9.8368,0.6905,0.2292,0.6282,30.9443,-8.6658,41.5621,0.9053,-0.1652,0.2606,-1.5715,-1.2191,0.6103,-0.5905,-0.2938,0.0243,-0.7349,0.8865,0.9096,0.0737,0.5084,0.4263,0
357,5690000,-0.0039,0.0455,9.8817,0.1194,0.1549,0.5677,28.4234,-8.2778,40.0392,0.7872,0.2015,0.5279,0.4226,-0.8147,-0.9125,1.1303,2.2988,0.6968,-0.0289,-1.3462,0.0572,-1.1098,-0.6224,-0.635,0
358,5715000,0.0444,0.0238,9.7717,0.9744,-0.3816,0.0575,28.2108,-9.7952,39.7361,1.2646,-0.2983,-0.9765,0.0237,1.3409,-1.3974,0.2905,0.463,-0.5907,-0.8966,0.5593,0.3515,-0.7888,0.7511,-0.0941,0
359,5725000,-0.1665,0.0553,9.7646,-0.8401,-0.1214,1.676,29.4551,-7.8369,40.9333,-1.1215,0.2151,2.0037,-0.1608,-0.4446,0.0646,1.2101,-1.3984,0.1298,0.2531,-1.0696,0.279,0.834,-0.9693,-0.906,0
360,5735000,-0.1604,0.2015,9.7201,0.8593,0.3333,0.065,30.1955,-9.4152,38.8473,0.9436,-1.3511,-1.0188,-0.4867,0.9268,0.353,0.7079,-0.2298,0.9283,0.0504,0.4241,-1.5741,-0.347,-1.2846,1.5688,0
361,5746000,0.0972,-0.0924,9.7653,-0.0997,-0.0514,-0.3702,31.0349,-10.2049,38.9108,-0.2369,0.4335,0.017,0.455,-1.0991,-0.0597,-0.7387,-1.4732,0.1665,0.3549,1.4753,1.1588,1.8362,0.1578,-0.7172,0
362,5757000,0.0776,-0.0698,9.7757,-0.0625,-0.5677,-0.5522,30.5404,-11.0854,38.5758,1.2582,-0.2518,-0.5912,0.3563,-0.778,0.9707,-0.1746,0.0478,-0.3071,0.3378,-2.0635,1.7649,0.6037,0.0139,0.7134,0
363,5772000,0.0369,-0.0183,9.8934,0.5733,-0.5609,-0.0918,29.925,-11.5569,39.7906,1.3707,-0.7055,-1.3851,-0.4375,0.7022,-0.0522,0.9974,0.901,0.2373,-0.823,1.3951,0.2301,0.5254,-0.754,0.2268,0
364,5785000,0.0825,-0.0168,9.745,-0.0373,0.4267,-0.4499,30.8556,-9.6508,39.2098,-2.5631,0.527,1.2417,-0.3907,0.1252,-1.2575,0.8705,-1.1889,0.0977,0.2237,-0.7974,-0.547,1.8329,0.1312,-0.4787,0
365,5795000,0.1155,0.115,9.883,0.0022,0.2343,-0.4538,29.8723,-9.104,39.3546,-1.3929,0.6929,-0.1419,0.7156,0.1626,-0.728,1.0505,-0.5306,0.4892,0.165,1.2939,1.0467,2.1755,-0.5948,-0.1564,0
366,5806000,0.0871,0.0903,9.7875,-0.0621,-0.2715,0.084,30.9776,-8.7181,38.9728,-0.6842,-1.2027,0.8583,-1.1877,-0.0674,-0.1655,1.8759,0.1364,-0.8363,-0.2555,0.0125,-0.6598,1.0889,0.6746,0.1918,0
367,5819000,-0.0774,0.0617,9.8089,-0.4477,-0.4279,-0.044,31.1863,-10.4766,41.3758,-1.401,0.13,-0.5792,-0.5825,-1.1713,0.7201,-0.9919,0.807,-0.5926,1.6966,0.5202,1.7067,-0.2801,-0.8002,-0.2663,0
368,5830000,0.0205,-0.0355,9.8205,-0.3806,0.0292,0.4012,29.1608,-10.9604,38.1076,0.0629,-1.4322,-0.5373,2.159,-0.7999,0.6763,1.0048,-0.68,-1.8569,0.2296,-0.0821,-0.7769,1.1446,0.0907,0.7759,0
369,5841000,-0.0041,-0.0659,9.7937,0.6401,0.3744,-0.4161,29.9329,-7.621,40.6969,0.4061,-2.4959,1.0559,-0.796,0.6363,0.1416,-1.1614,-1.2826,-1.6537,0.0713,0.6483,-1.3251,1.4753,0.1049,-1.3609,0
370,5852000,0.0114,-0.1246,9.7555,0.2232,0.3485,0.2196,30.7156,-9.4737,40.85,0.5346,-0.5467,0.5416,-1.6104,0.0782,1.0536,1.1211,-1.0121,-0.3537,-0.2204,-0.6984,0.978,-0.1809,0.0237,0.179,0
371,5864000,-0.1342,-0.0213,9.7015,0.4703,0.4004,-0.3207,31.3242,-11.3554,41.4829,-0.3542,0.1775,0.0731,0.227,-0.5178,-1.2802,-1.5105,-0.8291,-0.3699,0.3691,-0.5196,-0.4734,0.2466,-0.3907,0.3521,0
372,5875000,0.112,0.1394,9.7275,-1.3143,0.347,0.4618,29.1778,-11.1887,40.3982,-1.1045,0.6744,-1.4132,1.6068,0.8659,0.7082,0.9336,-2.0966,0.9539,-0.4159,0.19,-0.8098,0.428,0.172,-1.8465,0
373,5889000,0.21,-0.0415,9.779,0.5857,-0.1737,0.0848,30.4324,-10.7377,40.2777,-1.1842,0.0742,1.2254,2.444,1.2339,0.7946,-1.6564,0.4042,1.1303,1.1015,-0.8889,-0.6035,-1.3596,0.9309,0.0287,0
374,5899000,0.0705,-0.1162,9.816,-0.193,-0.1295,-0.1185,28.5789,-7.3336,41.4123,-0.3925,0.4656,-0.8055,-1.017,0.7616,0.8422,-0.761,-0.1647,-1.6117,1.6277,-0.2882,-1.5,-0.5477,0.5362,-1.6964,0
375,5909000,-0.1769,-0.0934,9.798,-0.728,0.3522,0.9264,30.1968,-10.3187,39.8007,-0.3674,-0.3851,0.0689,-1.2778,0.3436,2.287,-1.2519,0.1028,-0.2855,0.1716,-0.1459,-1.2559,1.4432,-0.7809,0.0664,0
376,5919000,-0.0966,0.0049,9.7844,0.2115,0.5388,-0.7088,30.048,-10.6824,40.2078,0.0763,0.2715,-0.8182,-0.0205,0.7985,-0.84,1.0149,-1.128,-0.1258,1.0514,-1.7618,0.0299,0.7277,1.7544,0.8506,0
377,5930000,-0.035,0.1736,9.832,0.2565,-0.0667,0.0052,29.8442,-7.9575,39.1706,1.3949,-0.0247,-0.5156,1.1297,0.6907,-2.193,-0.4456,-1.5658,-0.6782,-1.7778,-0.6965,-0.2955,0.2385,0.1548,-1.188,0
378,5942000,-0.018,-0.1518,9.7605,-0.3145,-0.4212,0.4098,28.4918,-10.3846,39.3327,-1.6412,0.8249,-1.0815,1.3683,0.319,0.4935,1.2749,-0.9499,0.7231,0.4022,0.7493,1.1921,0.5003,-0.9954,0.2269,0
379,5953000,-0.0008,0.1852,9.8515,-0.089,0.4342,0.943,29.53,-8.9462,39.196,-0.4415,0.9541,-0.0519,0.3538,-0.6623,-0.2244,-0.8865,-0.5719,1.7712,0.4129,0.6733,-1.5813,0.2843,-0.41,0.3063,0
380,5964000,0.0082,0.0389,9.7633,0.3886,-0.0564,-0.228,30.0218,-9.0234,40.5718,-0.6974,-0.1173,-0.2184,0.1043,-0.5503,-1.1622,-0.5079,-0.4159,0.3355,-1.5322,1.9635,1.2601,0.9248,-0.4025,0.1786,0
381,5976000,-0.014,0.0098,9.786,0.3313,-0.0034,-0.0022,29.5493,-11.2097,39.7541,0.4684,0.9246,-0.9038,-1.1786,-0.2964,-1.5605,-0.4735,-1.1666,0.1141,-1.04,-0.0126,0.968,-0.5646,-0.5176,-0.3341,0
382,5994000,0.0031,0.1107,9.7565,-0.1655,0.7789,0.3775,29.5861,-9.2901,42.5281,-1.4015,2.3317,-0.0725,-0.6949,0.6667,-0.0089,-1.0382,0.9091,0.0453,0.5484,0.2811,-0.1459,-1.4889,0.6599,-0.4717,0
383,6014000,-0.1017,0.0956,9.7955,-0.264,0.143,0.2382,31.3764,-8.5433,38.939,-1.7452,1.2607,0.026,-1.2128,-1.4469,-1.2057,-1.419,1.0703,0.1633,-1.3046,1.8892,-0.4787,-0.6788,1.8583,-1.109,0
384,6028000,0.1125,-0.0932,9.7649,0.1402,0.5789,0.4597,29.5386,-10.2636,37.8091,0.027,-0.1159,0.8524,-0.8426,0.2174,-1.3584,-0.2702,-0.1505,0.8098,1.7998,1.6598,-0.4872,1.8084,-0.1757,-1.4178,0
385,6039000,0.014,-0.0611,9.7799,0.0994,-0.2024,-0.7168,30.0166,-10.7087,38.773,0.2925,0.0859,0.6538,1.5479,-0.2848,1.332,-0.2334,-2.7061,-1.0129,-1.168,-1.1281,-0.5663,1.9909,-0.4554,-0.5738,0
386,6051000,-0.1008,-0.2118,9.7489,-0.4047,1.1291,-0.031,29.7236,-10.5891,39.6159,-0.59,0.623,-1.3028,1.6884,0.3274,0.4312,-0.8057,-1.6103,0.7828,-0.3195,-0.6036,0.7604,1.0004,-0.6571,-0.2063,0
387,6062000,-0.1193,0.021,9.7587,-0.571,0.335,0.7145,28.56,-10.923,38.051,0.4544,-2.11,-1.2441,-0.4784,-0.6121,1.4402,0.1886,0.6445,1.0214,0.6568,0.9991,0.2798,-0.372,-1.9595,-0.9457,0
388,6073000,0.0665,0.0489,9.7843,0.0015,-0.2389,-0.082,31.3959,-10.1269,42.7676,0.6839,-0.1453,0.614,1.0878,0.0817,1.5142,-0.2485,-0.078,-2.0124,-0.3252,0.031,0.2248,0.4935,-0.1908,0.799,0
389,6084000,0.01,0.1735,9.8081,0.9671,-0.3659,-0.006,29.8657,-10.9044,40.257,0.2214,2.2392,-2.0616,1.0431,0.478,-0.6573,1.7786,-0.1436,-0.3858,0.3675,-1.6782,0.629,-0.6922,-1.869,0.0029,0
390,6096000,0.0643,-0.0381,9.7628,-0.439,0.0695,0.6796,30.1786,-11.2103,40.4156,0.1001,-0.4709,0.0121,0.4348,-0.028,-1.2951,0.3028,0.0841,0.4116,0.2461,0.7273,-1.9384,-1.0784,-0.9169,-1.2152,0
391,6113000,-0.0498,0.1184,9.8386,0.0254,0.2266,-0.0414,29.3726,-10.6485,38.685,-2.1024,0.335,1.3874,0.7136,-0.5149,0.5729,0.3746,-0.5378,-0.5775,-0.9146,0.5157,0.7989,0.4848,0.5704,0.7133,0
392,6125000,-0.1429,0.1341,9.941,-1.249,-0.9091,-0.5538,30.5009,-8.4502,39.3627,-0.4894,0.358,-0.7523,-0.4937,0.3717,0.7882,-0.2471,-0.4494,-0.1672,1.0601,-0.6646,0.181,-0.4163,-1.0847,-0.3871,0
393,6137000,0.0419,-0.0122,9.8002,-0.2081,-0.2803,0.0037,30.6473,-10.1862,39.7894,-1.5701,0.2245,0.5121,-0.5721,0.8,1.0823,1.0994,-0.2453,1.76,-0.608,-0.7219,1.838,-1.3237,-0.9603,1.2364,0
394,6149000,-0.1102,-0.0688,9.832,-0.8742,-0.034,0.0262,30.0177,-11.5051,40.4842,0.7337,0.265,-2.2587,0.3079,-0.0641,-1.1124,2.4021,0.7775,0.1158,0.1286,-1.1046,-0.6301,1.2134,-1.7364,-1.3689,0
395,6162000,-0.039,-0.193,9.7884,0.427,-0.5905,0.3566,28.5945,-10.5076,41.5533,-0.54,-2.0404,-0.2944,1.382,0.7514,-0.2936,-1.3597,-0.2087,0.7393,-0.4424,-0.8693,-0.1028,1.2703,0.3671,0.575,0
396,6180000,-0.062,-0.0558,9.7441,-0.0684,-0.0905,0.6497,29.7388,-9.899,39.3968,-1.3577,1.3187,0.5073,0.7661,2.4045,0.8008,-0.1047,-0.2309,-0.7887,-0.5925,0.526,-1.1325,0.7549,0.1034,-0.3897,0
397,6191000,-0.0494,-0.0519,9.7932,-0.6837,-0.8215,-0.8667,29.751,-9.1612,39.918,1.9951,-0.7419,1.4105,-2.1936,-0.812,-0.075,1.0222,0.1711,-0.8608,-0.1289,-0.9956,0.9406,-0.8538,-0.7999,1.4132,0
398,6201000,0.186,-0.186,9.9017,-0.2672,0.0191,0.026,29.9978,-12.2525,40.3088,1.1261,-0.2123,-1.3782,-0.3969,0.2269,1.3449,0.2819,-0.1187,-0.2218,-0.062,0.7492,-1.6155,-0.0908,0.2273,-1.2237,0
399,6215000,0.0595,-0.2191,9.758,-0.3344,0.1709,-0.1381,30.1251,-10.5976,40.3793,1.4302,0.9298,1.5643,-0.0747,0.4748,-0.8552,-0.4296,-0.6436,0.8814,0.5309,-0.1079,0.0398,-2.3689,0.2641,-0.0837,0
400,6227000,0.09,0.056,9.7888,0.0124,0.6536,-0.1192,30.3988,-8.5702,38.9007,-0.742,0.3222,2.1733,0.329,0.7824,0.8782,0.8909,1.7632,-0.2079,-1.0647,0.4646,-0.402,0.0529,0.9758,-1.4331,0
401,6237000,0.0821,-0.1961,9.8039,0.0858,-0.1628,-0.1513,29.3666,-10.8829,40.8006,-1.1011,0.0868,-0.7984,-0.2825,0.1941,-1.1496,0.5153,1.1951,-0.9167,0.089,-1.2681,0.3314,-0.454,0.4337,0.281,0
402,6248000,0.1064,-0.0879,9.8027,-0.1349,-0.3198,0.1476,30.3915,-7.3491,39.1805,-1.194,0.3505,-0.2167,-1.2715,-1.1595,0.1782,-0.4887,1.8423,1.1075,0.6627,-0.0333,0.2491,0.2033,-0.0119,-0.7518,0
403,6263000,0.1079,-0.1283,9.7724,0.9045,-0.6651,-0.0354,29.7617,-11.7402,40.9013,-0.1882,1.9149,0.3878,0.1627,-0.2717,0.9902,0.14,0.3963,1.0087,-1.644,-0.5442,-0.0686,-0.2342,-0.239,0.1816,0
404,6274000,0.0137,-0.0119,9.7494,-0.1101,0.068,-0.6977,30.6251,-10.6526,41.2656,0.7442,-0.1191,0.1396,0.4189,-0.1521,-1.6392,-0.0822,0.6317,-0.6545,1.3817,0.3032,1.146,-0.2923,0.2158,0.8346,0
405,6302000,0.1061,0.0639,9.7585,0.3446,0.2876,-0.7495,28.8857,-10.9037,37.4845,-0.8185,-0.0565,-0.7564,0.218,-0.2199,0.4689,0.8836,1.1711,-0.4161,-0.2344,1.4518,-1.4363,0.2216,-0.4165,-1.6064,0
406,6314000,0.0266,0.1445,9.7271,-0.1174,0.0733,0.4045,30.2492,-9.7073,40.5599,0.1203,-0.0048,2.0088,0.4515,0.0076,-1.7199,0.1587,0.6029,0.4576,-1.9305,-1.2888,-0.2116,1.4159,-0.6373,-1.2238,0
407,6324000,-0.0746,0.033,9.8152,-0.5293,0.6483,0.9255,30.5771,-9.7578,39.9721,0.2635,-0.1024,0.6171,0.799,-0.3175,-1.6215,0.2439,-0.2508,1.1426,0.2369,0.631,-0.1224,0.4235,1.0787,1.2833,0
408,6338000,-0.1507,-0.0445,9.7158,0.082,-0.2517,-0.1776,30.2555,-6.5109,38.5824,0.801,-0.5825,-0.7523,-0.6854,-1.3859,0.081,-0.3499,0.4224,1.0929,0.5004,-0.1117,1.9021,-0.748,0.7201,0.232,0
409,6350000,0.1385,0.1029,9.7757,0.0679,0.205,-0.2948,30.4647,-11.263,39.871,-0.3488,-1.268,-1.1722,-0.8883,1.7119,-2.2245,0.5922,0.423,-0.5741,-0.887,0.8796,1.0123,0.11,-1.6287,1.2404,0
410,6365000,-0.0511,-0.0984,9.7859,-0.6427,0.1096,0.2985,30.3805,-9.4737,40.6492,-0.6666,0.3329,0.1744,-0.1892,-0.4617,-0.7153,-1.2974,0.302,-0.6593,-1.6482,-0.9052,-0.7547,0.2703,-1.3606,0.6388,0
411,6379000,0.182,0.0487,9.8884,0.0283,-0.1819,0.3548,30.6683,-10.5233,41.3326,-3.152,-0.9124,0.1777,0.1868,-0.4383,1.698,-0.228,-0.2848,1.6902,0.0041,-0.0694,1.1933,-0.5635,-0.7434,-1.2632,0
412,6390000,-0.0078,0.0131,9.832,0.4495,0.4044,-0.7233,29.418,-8.8868,39.6759,-2.176,-0.7794,-0.2996,0.7895,1.9894,-0.6167,-0.0641,1.344,-0.7169,-1.5795,0.2944,-1.1415,-0.6658,2.4012,-0.3577,0
413,6405000,-0.055,0.1182,9.7599,-0.3509,0.1637,-0.1285,32.4851,-10.9264,39.1571,0.2127,1.222,0.52,2.0308,0.2145,-0.0964,0.4985,-0.5075,0.765,-0.8538,0.0075,0.039,0.4321,-0.1136,-1.7853,0
414,6416000,0.2134,0.0917,9.7455,-0.1365,0.2073,0.1735,29.3287,-9.4838,40.0299,0.1287,-0.2716,-2.6912,1.6133,-0.2024,1.6582,-0.8801,0.1935,-0.7189,-1.8173,0.6985,1.5722,0.4089,1.4225,-0.9205,0
415,6426000,-0.117,0.1134,9.7779,-0.619,0.8061,0.576,30.9052,-10.1627,40.8539,0.3905,0.8339,0.4115,-0.7035,1.1851,-1.2817,-0.1374,-1.5309,-0.2878,-0.1266,-1.2215,0.4679,-0.2515,-0.042,-1.2251,0
416,6437000,0.0812,0.2081,9.7656,0.0274,-0.5081,-0.193,27.7034,-8.2086,39.6252,-0.0433,0.7225,1.0806,0.732,-0.1811,1.3918,-0.2011,-1.1998,0.4116,1.4046,-2.0869,-0.4007,0.3334,1.199,2.3156,0
417,6448000,-0.258,-0.0231,9.7722,0.4105,-0.2076,-0.7595,29.7004,-10.8328,39.442,1.2138,-0.2558,-0.6839,0.9267,-0.272,-0.1665,-0.794,-0.1659,0.0034,-1.9104,0.9042,-0.0157,1.512,-0.5849,1.2367,0
418,6459000,0.1594,0.1181,9.9071,0.5883,0.2591,-0.699,30.2173,-10.8074,40.525,-0.2041,0.506,1.2769,-0.2071,-1.6027,0.2324,0.6803,0.7248,1.8652,-0.1768,-1.0816,1.2481,-0.5385,1.0789,-0.5948,0
419,6470000,-0.1045,0.0031,9.7661,0.5793,-0.149,-0.0091,30.498,-10.2913,40.0967,-1.4546,-0.5137,-1.5485,1.378,-0.9828,-0.1358,-0.8841,0.1938,-1.6393,-0.337,0.8316,-0.9601,0.0253,-0.3046,-1.774,0
420,6481000,0.0224,0.04,9.7529,-0.435,0.8028,0.691,29.3581,-10.8152,41.0346,-0.7023,0.7755,0.309,-0.9667,-0.5507,-1.361,0.1295,0.9741,-1.5321,-0.4862,-1.1602,0.0635,0.6935,0.3044,-0.1888,0
421,6492000,-0.0363,0.0099,9.8253,-0.3789,0.1982,0.3804,30.8508,-10.3423,42.7417,-0.5875,1.0708,0.1835,-1.4735,2.1596,-0.6444,1.1073,-1.4442,2.6642,0.2463,0.1515,-1.1164,0.4188,0.1499,0.4824,0
422,6528000,0.0943,-0.0022,9.8395,-0.76,-0.0105,0.2697,29.4404,-10.0888,40.0065,-0.8894,1.1857,0.1128,-0.9975,1.2663,0.2533,-1.9509,0.4564,1.5854,-0.4279,-0.8249,-2.1613,0.6234,-1.7212,0.0429,0
423,6539000,0.1458,-0.0457,9.7646,0.3953,-0.3311,0.0576,32.8865,-9.4601,40.9425,-1.2784,0.6611,0.3175,-0.4042,1.0325,0.9358,0.2518,0.033,1.332,-1.0996,-1.1494,-0.2241,1.189,-0.4786,1.6506,0
424,6551000,0.1905,-0.1179,9.8354,0.245,0.8495,-0.3508,29.631,-8.3557,37.7654,-1.0374,-0.152,1.2709,0.2953,0.1611,-0.4464,-0.6241,0.0669,-0.5442,0.2557,1.5224,-0.1331,0.2918,-1.4002,-0.6646,0
425,6563000,0.0049,-0.0419,9.8132,0.4605,0.6418,0.6801,28.6486,-8.0705,40.4116,0.3444,-2.4112,0.37,-1.5759,-0.1701,-0.5532,1.1092,0.5321,-0.0201,0.8469,-0.1959,-0.9795,-0.5558,0.775,-1.744,0
426,6575000,-0.0593,0.0924,9.794,-0.1125,-0.4305,0.0604,31.5293,-10.4455,42.2721,-0.8184,0.2231,-0.1763,-0.4639,-1.3327,-1.4161,0.7464,0.7404,-0.4166,-2.0117,-2.1684,-0.5018,-1.9743,0.124,1.408,0
427,6586000,0.0042,-0.0134,9.8902,-0.1003,-0.0621,-0.6724,29.5,-9.2935,40.5952,-0.762,1.8155,0.3829,-0.4951,0.3392,-1.082,0.3735,0.1905,-0.8275,-0.8929,1.0089,0.3888,0.5662,-1.2442,0.5127,0
428,6599000,0.1485,0.1252,9.8806,-0.7453,0.827,-0.7805,28.798,-10.5613,39.6759,1.3158,0.2437,-0.7826,0.7852,0.3129,0.6987,0.1262,-0.3942,0.1707,-0.0752,0.2335,-1.2012,-0.9964,0.1796,-0.7766,0
429,6611000,-0.0529,-0.0336,9.779,-1.247,-0.2456,-0.1985,31.1721,-11.2531,38.8145,-0.5397,-0.8304,-0.378,-1.4933,0.6005,-0.3131,-1.2394,1.4812,-1.911,1.0161,-0.4226,-0.3436,0.9645,0.8358,-0.1587,0
430,6624000,-0.0169,0.1423,9.7013,0.293,0.3801,-0.5536,30.484,-10.1146,40.0957,0.855,-1.0238,1.1623,-1.5253,-1.5977,1.7139,-0.5075,-1.3826,-1.4102,-0.4573,1.8168,-0.7074,0.7665,0.0615,-0.7269,0
431,6637000,-0.1358,-0.0023,9.8342,-0.0218,-0.0022,0.1187,31.8494,-8.5353,40.8508,-0.5784,-0.8097,0.0423,-0.1531,0.392,0.7664,2.1857,0.7105,0.3932,-0.9271,0.0862,0.3532,-0.2835,-1.669,-0.2976,0
432,6651000,-0.0065,0.1377,9.827,0.4119,0.879,0.0281,30.0148,-8.6659,42.035,1.314,-1.2182,0.3415,0.3103,1.0185,-0.3071,-0.5608,0.1106,-0.1688,0.4659,-1.2057,0.7453,-2.3594,-0.9634,-1.5839,0
433,6663000,-0.011,0.2577,9.7844,0.979,0.4447,-0.2902,30.6208,-8.5123,40.3326,-0.0255,0.2645,-0.4455,1.6924,-0.9085,-1.2736,0.8253,1.0624,-1.6068,1.0335,-0.1775,1.2713,-0.6425,0.2804,0.2108,0
434,6679000,0.0736,-0.1596,9.7695,-0.494,0.3843,-1.0464,30.6745,-10.2218,42.0155,1.3091,1.1669,-0.9243,0.8549,-0.5419,-0.7866,0.6005,-0.2461,0.987,0.4497,-1.7303,0.8407,-0.9944,1.4819,0.9208,0
435,6690000,-0.0874,-0.0211,9.7917,0.1045,-0.2548,0.4723,29.3225,-11.3431,40.0486,1.1772,0.4252,-0.3114,-0.9581,-0.5051,0.4911,-1.8489,-0.8174,-0.2819,-1.5279,0.5484,0.0483,0.5448,-1.3451,-0.1257,0
436,6701000,-0.0761,-0.0671,9.7539,0.5246,-0.2208,0.8744,28.9513,-9.564,39.4146,-2.1011,-0.4368,0.4725,-1.1449,0.16,-2.0822,-1.1728,-1.2185,0.1588,0.0618,0.209,-1.2917,-1.2356,-0.4778,-0.1622,0
437,6711000,-0.1088,-0.0955,9.8141,-0.7349,0.2114,-0.0375,31.4914,-10.8153,40.9635,-0.7211,0.8541,-0.1001,0.1653,-1.5522,0.2868,-0.3987,0.7792,1.244,0.2442,-0.9647,0.708,0.1044,0.4525,-1.4026,0
438,6722000,-0.0113,-0.018,9.7946,0.2096,-0.0294,0.7757,29.8033,-10.3475,38.647,-0.1951,-0.3378,0.6403,0.3262,-0.2261,1.7676,-3.3578,0.3958,0.4399,1.7264,0.3602,1.8965,1.8141,1.247,-1.0308,0
439,6733000,-0.0207,-0.0209,9.8179,0.0447,0.6992,-0.1384,30.2355,-10.8463,40.0911,-0.4568,0.8757,-1.5744,0.2078,0.4971,0.7103,-0.2593,1.2642,-0.1251,-0.378,-1.2533,-0.2988,-1.2027,-0.0093,-0.7806,0
440,6743000,-0.0942,-0.1303,9.837,0.0987,-0.2347,-1.0755,28.8245,-9.7865,40.137,0.6064,1.4136,-0.7064,-2.5828,0.3316,-1.2659,-2.4096,-0.6576,-1.9175,2.2617,1.415,-0.9372,-1.7192,1.1092,0.8995,0
441,6754000,0.0209,0.0215,9.8368,0.0857,-0.2141,-0.7584,28.8782,-11.489,41.2628,-0.4685,0.0321,-0.6914,-1.4289,0.6663,0.3182,-2.2871,2.1125,0.1404,-1.2399,0.9287,-0.5057,1.2744,0.9587,0.289,0
442,6764000,-0.0977,0.0847,9.8071,0.0887,-0.538,0.0476,29.6116,-9.8841,38.4678,-0.801,-0.1056,-1.2021,1.7696,-1.5193,-2.3548,-0.1752,0.3115,0.1733,1.2933,0.965,-0.2392,-0.6744,0.2848,0.9668,0
443,6782000,-0.0214,-0.0617,9.874,0.0612,-0.3348,-0.8619,29.3079,-11.2413,40.4448,1.0968,-1.1735,-0.7156,0.7293,-0.6168,-1.2164,2.5806,-1.1602,-0.6331,-1.9147,2.1165,-0.6619,1.5029,-0.0055,0.5172,0
444,6814000,-0.0354,-0.1765,9.7092,-0.6337,0.1704,0.1829,29.5547,-11.1358,39.397,0.8036,0.5886,1.1679,-1.0499,0.972,-1.0795,0.5498,-2.4468,-0.294,-0.8839,-0.6883,0.5913,0.6774,0.0184,2.2057,0
445,6825000,-0.0765,0.0109,9.8929,-0.0687,0.3486,-0.1691,31.8583,-10.4496,40.2024,-2.1719,-0.5673,1.103,0.393,-1.1841,0.0617,1.0128,0.0193,0.8674,-0.2932,1.0705,-0.6964,0.3739,-0.958,0.6129,0
446,6837000,-0.1517,-0.0009,9.8471,-0.0929,0.3561,-0.1164,31.9427,-9.6048,38.3193,1.3991,-0.5085,0.1368,-0.6847,0.5689,-2.3204,0.4257,-0.012,1.6628,0.0695,-0.5413,1.6135,1.4453,-0.6968,-0.152,0
447,6847000,0.0407,-0.2077,9.827,0.0418,0.156,-0.3122,29.306,-10.1677,40.5668,-0.9159,-0.2427,-0.0337,-0.0031,2.9419,1.7036,2.2021,0.6276,0.6493,0.9313,0.7857,-1.8928,0.8183,2.4843,-1.6827,0
448,6863000,-0.0511,-0.2045,9.8316,0.4807,0.5604,0.3308,31.3469,-8.6777,39.4542,-2.3503,1.4349,-0.8511,-0.655,-1.0862,1.1396,0.9917,0.7668,-0.1915,-0.881,-0.1244,-0.8047,-1.464,-0.0071,-0.6863,0
449,6874000,0.0197,0.0636,9.8392,1.0108,-0.2726,-0.6561,30.4059,-9.3856,41.5723,-0.6066,1.9166,-0.9002,0.2869,0.2079,-0.1839,-0.5002,0.7208,1.0746,0.3541,1.3682,2.2523,0.3509,-1.3855,0.2459,0
450,6887000,0.1775,0.0376,9.755,-0.2858,-0.7183,-0.0708,29.4038,-10.2978,40.0415,-1.4156,-1.4775,0.8561,0.1224,-1.4832,-1.1127,-1.749,0.072,0.4848,-0.3174,0.2056,0.4497,0.135,0.12,-1.2757,0
451,6898000,0.1254,-0.0094,9.8133,0.1749,-0.6425,0.0542,30.8567,-10.5559,39.215,2.3253,-1.068,-1.6908,-0.9332,-0.4995,1.0745,-0.1506,0.2792,1.9302,1.359,-0.1858,0.6347,1.4501,0.1319,0.1405,0
452,6909000,-0.1676,-0.1631,9.7698,-0.1448,0.8356,0.279,30.0876,-9.882,42.5452,-0.2024,-0.0409,-0.4324,-1.3885,-1.8129,-0.4944,-0.6064,-0.9059,-0.5081,1.3275,0.4146,1.4985,0.3606,-0.8666,-0.4526,0
453,6926000,0.2605,0.0944,9.8412,0.7135,0.8157,-0.027,28.6849,-10.723,38.8828,-1.1856,0.4113,2.2871,2.0221,-1.3112,1.0531,-0.8612,-0.15,-0.5992,-1.8816,-1.7202,-1.4357,0.0414,-0.0198,1.5149,0
454,6937000,-0.0881,0.0006,9.8282,0.4244,-0.4765,0.0862,32.4394,-7.934,40.0254,0.0128,0.8188,0.4589,1.3525,-0.5853,0.3309,0.657,1.2523,1.0073,1.1509,-1.9231,0.0629,0.6367,-1.468,-0.559,0
455,6947000,0.0592,0.1949,9.7554,-0.16,0.0222,0.805,30.5877,-9.4835,40.1458,0.836,-1.9443,-1.347,0.6369,0.7698,0.5803,1.4916,0.9138,2.2904,0.0816,-0.2728,0.287,1.1167,0.0391,-0.1077,0
456,6957000,-0.1065,0.1509,9.8137,-0.0439,-1.0546,0.2208,29.3951,-10.6565,41.8365,-1.4284,-1.1571,-0.2868,-0.1989,-0.0392,-0.0573,-0.1585,-0.5379,1.0019,0.523,-0.7907,-0.3523,-1.8145,-0.8771,-1.4026,0
457,6968000,0.0366,-0.0617,9.8212,0.9116,-0.4045,-0.0062,30.2292,-10.0546,40.4261,1.0251,0.3305,2.0153,-0.4921,0.1048,1.0467,-0.0634,-1.3444,0.9424,-0.1172,-0.7824,-0.61,-0.9316,-0.6699,1.5017,0
458,6983000,-0.0583,0.1347,9.788,0.5019,0.1472,-0.1274,28.4774,-10.2943,40.4688,0.2188,0.4754,-1.7583,0.2623,-0.5,1.0122,0.0156,-2.2421,0.5259,-0.2175,0.9795,0.4909,-0.86,0.704,0.6734,0
459,6994000,0.0663,-0.0911,9.7604,-0.0292,-0.8262,0.396,29.8878,-9.4583,39.3548,0.0665,2.0543,0.7027,0.5523,-0.8856,-0.8612,0.6006,0.7242,0.4324,-0.3489,0.0552,-0.6618,-0.0456,1.0086,-0.3952,0
460,7004000,0.1631,-0.1107,9.8347,0.9244,-0.0057,-0.2852,28.849,-11.9669,40.4804,-0.3454,0.4219,-1.0719,-0.9127,-0.6069,0.8543,0.4532,-2.0784,-0.031,0.1664,0.2883,-0.7918,-1.6206,0.0344,1.5542,0
461,7015000,-0.0699,0.0227,9.8266,-0.0787,0.3226,0.3964,31.4638,-10.803,39.9473,0.2438,0.3504,-0.1167,0.7788,-0.4586,1.9592,0.8055,-0.7537,-1.1441,1.499,-0.5943,0.3312,0.0314,0.5832,-0.5084,0
462,7029000,0.2095,0.0452,9.7351,-0.1635,-0.0656,0.3016,29.1423,-9.6401,39.0299,1.458,-1.0791,1.1395,0.4439,-1.0031,0.4209,-1.0978,0.2275,0.4616,-0.5864,0.1672,0.6109,-0.4881,-0.7748,-1.0035,0
463,7040000,-0.0494,0.0276,9.8336,-0.1565,0.5371,-0.5038,30.3941,-11.1879,40.9613,0.0494,0.164,1.1914,1.0365,2.146,0.4037,-2.406,0.4902,-0.6957,-0.4617,-1.7856,1.3237,-0.1639,-1.2563,0.4247,0
464,7051000,-0.0222,-0.0459,9.8336,0.1219,-0.5779,0.1501,28.4528,-9.0722,38.7875,-0.6967,-0.8919,-0.3692,0.9655,-1.0681,1.2669,1.0745,0.1934,-0.2138,0.1329,-0.7272,-1.0977,-0.4597,1.2304,-1.5055,0
465,7064000,0.0168,-0.0332,9.7855,0.0123,-0.0307,0.5098,30.1734,-9.8476,40.6609,-0.0437,0.5109,-0.9914,0.3793,-0.234,-3.6856,-0.0545,-0.006,-0.2678,0.6093,-0.9338,1.1551,-1.0027,-1.1064,-1.373,0
466,7074000,-0.0356,0.0781,9.8483,0.4088,0.4042,0.1209,30.1866,-10.0887,40.1718,1.7956,0.1029,1.0797,1.13,-0.4184,-0.4513,2.4878,-0.0326,1.523,0.9772,0.5851,-0.9626,0.9497,-0.1579,-2.2551,0
467,7086000,0.0235,-0.0198,9.956,-0.6108,0.8739,-0.5302,30.0742,-9.1117,40.2769,0.1073,-0.8827,0.4701,0.6787,-2.0488,0.2113,-1.7715,-0.7239,-2.4955,-0.0397,1.1491,-0.0521,0.153,0.6023,-0.3892,0
468,7119000,0.0845,0.0013,9.7683,-0.8469,0.0947,0.1538,30.1678,-11.7839,40.0392,0.2906,-0.3879,1.2464,-0.2967,-0.2278,-0.6371,1.2276,0.4529,-0.1276,-0.9163,-0.616,-1.4227,0.7211,0.9795,-0.3827,0
469,7129000,0.0638,-0.0924,9.8635,-0.3096,-0.2463,0.934,30.4022,-9.345,39.1968,-0.162,0.0552,-0.2599,1.0399,-1.8709,0.3126,2.4415,0.6876,-0.3088,-0.0528,0.8542,0.2196,-0.5883,0.9465,0.2712,0
470,7142000,-0.0058,0.0342,9.7508,0.2142,0.658,0.5572,29.3651,-7.7634,39.3017,1.9026,0.6747,0.1281,-0.4414,-0.095,0.2846,0.2019,-0.163,-0.6807,1.3334,-1.5692,-0.6716,1.3067,-0.8309,-0.5177,0
471,7156000,0.1128,-0.1241,9.8166,-0.2584,0.0131,0.099,31.1561,-9.8923,40.2598,-1.0802,0.0176,0.7506,-1.2408,-0.2277,-0.732,0.8505,1.1765,-2.3432,0.2409,1.3137,-1.7611,0.0313,-1.0123,0.7464,0
472,7169000,0.0183,0.098,9.7749,0.3111,-0.0445,0.1699,29.2416,-11.2665,39.3865,-0.0566,-2.1154,2.0126,-0.5897,1.6576,0.4034,0.3954,-0.3638,1.295,-0.1083,-0.3095,-1.2628,-0.8486,1.4524,0.7592,0
473,7183000,-0.0867,-0.1294,9.8212,-0.4695,0.102,-0.2071,29.8334,-10.7184,39.1966,-1.6284,-1.4834,-2.7847,1.3604,-0.3115,0.8263,-1.1872,-1.1493,-0.104,-1.0581,0.2817,0.1235,-0.8237,0.4273,0.4627,0
474,7194000,-0.0051,-0.1245,9.7494,-0.0292,-0.9305,0.5193,29.6096,-11.5394,40.672,-2.0917,1.8039,-0.0775,1.2331,-0.5794,1.3163,-1.3066,-0.9969,2.1938,-1.2907,-0.7403,-0.2785,-1.0574,-0.1751,0.7908,0
475,7208000,0.0542,0.0078,9.7852,-0.3666,-0.4333,0.6329,29.1337,-10.7206,38.1432,0.3576,1.0796,1.9706,0.1556,-0.1214,-1.7703,1.1834,-0.4506,0.8077,-0.8649,-1.4261,-1.4208,0.4308,0.1556,-0.0194,0
476,7218000,-0.118,0.1298,9.8412,0.4629,0.1314,0.667,29.9017,-9.935,38.9312,0.9683,-0.4353,1.4247,1.1595,0.0729,1.3474,0.5618,0.2386,0.2012,0.0697,0.6437,-0.7713,0.7345,0.9532,-0.1256,0
477,7233000,0.0908,-0.0354,9.8204,-0.3634,0.605,-0.6229,30.0492,-8.84,40.6237,-1.2842,0.8646,-1.7459,1.2296,0.2151,0.1889,-0.6892,-1.2806,0.0796,0.2396,-0.5016,-0.0253,-0.5059,-1.5587,-0.328,0
478,7244000,-0.0386,-0.141,9.8293,-0.567,0.5785,0.3374,30.1781,-10.4516,41.1161,-1.9429,-0.0949,-1.3398,-0.3637,0.5333,-0.5324,0.1854,1.6232,-0.7925,-0.3036,-2.5345,1.324,-1.2107,-2.1874,-0.5491,0
479,7254000,-0.1899,-0.0802,9.7686,-0.193,0.2307,-0.7966,29.7204,-10.2874,39.9303,-1.8355,-1.0528,-1.3773,-1.7974,-0.2347,-0.2216,-1.271,-1.1736,-0.3138,-1.2584,1.2313,0.2684,-0.3115,-1.0101,-0.5229,0
480,7265000,-0.0279,0.0531,9.8599,-0.0926,-0.3867,-1.156,29.4952,-9.6892,38.4726,-0.5208,2.7906,0.6206,0.6219,-0.9635,1.0628,0.2422,-0.5241,-1.1568,-1.2979,0.0693,-0.9097,0.2203,0.5769,0.8194,0
481,7275000,0.0851,-0.0638,9.7175,-0.0987,-1.0642,-0.5429,29.8909,-7.5831,38.9542,-1.0306,1.5665,0.3456,-0.7877,-1.362,0.2827,1.618,0.5116,-0.9884,-0.4742,-1.5246,-0.0855,-1.3466,-1.4659,0.199,0
482,7286000,0.0136,-0.0553,9.8769,0.0861,0.4769,-0.3201,30.1705,-11.3167,40.1267,0.6891,2.3485,0.5211,0.673,1.9618,-0.0486,0.553,0.1124,0.8193,0.5417,1.1519,-1.6528,0.2688,-1.304,-0.3365,0
483,7297000,0.2003,0.1935,9.7945,-0.19,-0.3591,-0.5809,30.4673,-10.6108,38.1294,-1.161,0.2835,0.3949,0.8696,0.5216,0.1494,0.1804,-2.1589,0.3142,-0.2255,-0.8513,-0.423,1.1151,-0.2907,-0.9453,0
484,7308000,0.0285,-0.1475,9.7534,0.1094,-0.3638,-0.1291,30.4833,-9.7704,41.1092,0.6161,-2.1419,0.4488,-0.3117,0.6457,0.2843,0.6737,1.046,-0.3921,0.2771,0.2021,0.3051,0.5022,-1.5655,0.6334,0
485,7318000,-0.1223,0.0319,9.8205,0.232,-0.4355,0.1725,31.4722,-9.9015,39.7204,1.4879,1.1592,-0.3676,-0.1225,-0.6629,-1.3775,-1.0335,1.4295,-2.4269,-0.6864,0.0234,2.6079,1.8856,-1.0279,1.8566,0
486,7329000,0.0595,-0.0245,9.7931,0.3381,-0.6333,-0.6343,30.0526,-9.3072,38.0072,-0.6268,-0.4452,0.4167,1.0601,0.2032,0.5966,-0.1727,-0.2782,-0.4035,1.6058,-1.2454,-0.0284,1.646,1.1704,-1.2867,0
487,7339000,-0.1333,0.0363,9.8118,-0.2765,0.0951,0.1082,28.9505,-9.7509,41.1054,-1.2158,0.0482,-0.7166,0.1186,0.3875,-0.8033,-0.3394,-0.0513,2.1451,-0.9666,-0.7137,1.0464,-0.1754,1.9937,0.423,0
488,7350000,0.1178,-0.1016,9.7712,0.3668,-0.1311,-0.2344,29.9195,-10.6634,40.5012,0.306,0.9157,0.9721,-0.5785,-0.5118,-0.8376,-1.3445,0.0775,-0.7393,-0.3511,-1.0947,0.9461,0.0429,-0.9965,-0.4694,0
489,7364000,0.1068,0.0733,9.8015,-0.323,0.7575,0.0145,31.3487,-7.9828,40.6075,0.8922,1.5418,-0.8752,2.5614,-1.4303,-1.1458,1.4054,0.68,-0.634,1.1963,-0.4467,0.1824,0.1818,0.3212,-0.617,0
490,7375000,-0.0513,-0.0951,9.8285,0.2654,0.1368,0.2297,32.2367,-9.2116,40.1766,1.021,-0.3034,-0.4547,-0.2034,-1.5706,-0.0641,0.7054,-1.018,1.5057,-1.3197,-0.1908,1.1325,0.53,-0.5028,-0.3642,0
491,7386000,-0.0939,-0.0936,9.8392,-0.6665,0.4651,0.1436,30.4305,-9.0926,38.9905,-1.0729,1.0927,0.4016,-0.7384,-0.6421,0.9812,0.0624,0.1027,-0.3648,0.8914,0.9899,0.7011,0.3117,0.5278,-1.1635,0
492,7399000,-0.0189,-0.0306,9.7754,-0.2256,0.7801,0.3458,29.9256,-11.7651,39.5418,0.6262,-0.678,-0.4219,0.8918,0.1249,-0.4082,0.6784,-0.397,0.9944,2.0752,-0.5964,0.2029,-0.4635,-0.1107,1.4185,0
493,7429000,-0.0313,0.0692,9.7996,-0.2777,-0.2443,1.1607,28.7123,-10.8832,39.9705,-0.6636,0.6346,-1.4966,0.1907,0.9627,-2.1068,0.9149,-0.3024,-0.3833,-0.4472,-0.2697,-0.9742,-0.9856,-2.0837,-0.1154,0
494,7441000,0.0241,0.0426,9.7852,-0.4308,-0.2099,-0.0825,29.3579,-9.976,39.5401,0.1532,0.0096,-0.8686,0.3224,-0.6938,-0.6473,1.0701,0.4335,-0.8357,0.116,-0.4704,2.1219,3.0242,-1.6615,-0.4217,0
495,7453000,0.1884,-0.0642,9.8653,1.8962,-1.0324,0.3526,29.404,-9.7533,40.6812,0.6001,-1.1798,0.2815,-0.232,-0.2344,0.3647,-0.7672,0.2598,1.3392,1.4919,-0.8341,-1.1046,0.4281,-0.4244,0.4838,0
496,7467000,-0.0988,-0.0755,9.8426,0.1203,-1.0132,-0.3791,29.9641,-11.6182,39.8976,0.6846,-0.8018,0.2006,0.2634,-1.2691,0.3077,-0.4064,-0.2005,1.1274,0.3612,-0.4256,0.783,-2.4231,-1.8939,-0.3781,0
497,7482000,-0.0901,0.0359,9.6947,-0.0856,0.4008,0.1365,30.2961,-9.9716,39.3737,2.887,1.9842,0.9337,1.2738,0.5057,-1.8391,-0.6715,-0.1395,-1.6998,-2.1575,-1.7493,-0.3678,-1.16,0.1368,0.8648,0
498,7493000,0.0459,0.1359,9.8838,-0.4638,-0.6305,-0.3187,30.7077,-12.6248,39.9148,-1.05,0.5504,0.8871,-0.8106,1.4443,-1.2024,1.3929,-0.1686,-1.0135,-1.7672,-0.8967,0.0756,0.455,0.6027,0.251,0
499,7504000,-0.0135,0.1241,9.8232,0.3185,-0.3142,-0.0177,30.4304,-11.2997,40.0325,1.4433,1.162,0.9678,0.6697,-0.0136,0.9718,1.9516,0.1082,1.4461,-0.1407,-0.5646,-0.9354,0.6332,1.2394,2.086,0
500,7516000,-0.0026,0.0656,9.6569,0.7593,-1.0279,0.3421,31.5055,-10.8197,39.802,-2.1688,0.279,0.3524,0.9305,0.789,-2.2571,-0.1722,0.2805,-0.2143,1.9047,-1.0177,0.9989,0.161,0.8508,-1.259,0
501,7528000,-0.0994,0.0048,9.7821,0.0918,-1.0025,0.6274,30.3047,-12.0393,40.2046,-0.1046,1.0966,0.0401,0.866,1.6971,1.3533,-0.1501,0.3905,-1.6189,1.0364,-0.2587,-0.6957,-1.1648,-0.3148,-1.3334,0
502,7538000,0.1123,0.0616,9.8333,-0.2677,-0.313,-0.6211,30.7747,-9.8705,40.1556,-1.7903,-0.0251,-1.8503,1.8687,-2.0983,-1.1389,-3.2474,-0.5583,0.7351,-0.5063,0.8926,-0.3186,-0.2369,-1.613,0.74,0
503,7553000,-0.2309,-0.0597,9.7826,-0.7489,0.5207,-0.6032,29.8617,-11.8339,40.7984,-0.4413,1.2254,-2.7699,-0.3974,1.2513,0.2105,1.6869,0.053,1.1737,-2.6911,-0.1978,0.1958,0.3753,1.2976,-1.0778,0
504,7564000,-0.1262,-0.0114,9.8105,0.1578,0.4494,0.472,28.9666,-9.4596,41.5124,-0.3349,0.0164,0.2729,-0.4789,0.2718,0.7516,1.1302,0.4281,-0.1102,-1.1831,0.1026,-1.3788,0.1826,-0.4669,0.135,0
505,7574000,0.0629,-0.062,9.7418,-0.236,-1.6645,-0.4001,30.3233,-8.1565,40.5502,1.1051,-0.7149,-0.6185,0.841,0.1735,1.1671,0.5012,-0.583,-2.4081,-0.7862,0.5514,1.2324,0.2991,-0.6359,2.6265,0
506,7585000,0.0167,0.0477,9.7603,0.0125,0.2985,0.1998,30.8074,-9.4372,38.4482,-1.1477,-0.649,0.7192,-0.0522,1.5601,1.8169,0.6403,-1.2901,-1.1346,0.4758,0.6674,0.6185,1.7133,-0.1591,1.0938,0
507,7597000,-0.0088,-0.0599,9.851,0.3643,0.7538,0.4746,28.4489,-10.2056,40.0112,-0.3141,0.8144,0.4278,1.9376,-0.5459,0.5578,0.4448,-1.5269,1.1555,-0.2032,1.2612,1.3905,0.4785,-1.8562,-0.4509,0
508,7607000,-0.1268,0.2955,9.7852,0.2343,0.1158,-0.1612,30.3173,-7.3703,40.927,0.0642,1.817,-0.8254,2.4584,-0.8643,0.6416,1.0021,-0.7914,0.4848,1.2199,0.2803,0.7748,-1.5303,1.7247,-1.832,0
509,7618000,-0.0286,0.0792,9.7731,-0.2358,-0.2231,0.0636,29.4192,-8.4267,40.6984,2.6793,-2.5927,1.4738,0.8011,0.3193,-0.6113,-1.4062,1.7567,0.5228,-0.5056,-0.6305,1.2957,-0.1076,1.9841,0.2294,0
510,7629000,-0.0139,-0.1404,9.7309,-0.5513,0.0393,-0.1552,30.2616,-8.9454,39.8715,-0.141,-0.1964,0.1621,0.4239,0.1845,-0.1785,-1.4703,-0.5162,0.1674,1.6241,-0.7293,0.5558,-0.7672,0.0435,-0.6988,0
511,7639000,0.1216,-0.1189,9.8476,-0.1817,-1.1294,-0.6931,30.7443,-9.9651,38.3332,-0.0768,0.9624,-0.8047,0.0933,-0.3408,1.099,-1.0815,0.3243,0.0438,0.7345,2.0599,-0.001,0.1659,1.1898,0.7621,0
512,7650000,-0.0225,-0.1582,9.7653,-0.0713,0.9516,-0.9197,31.6438,-9.3188,39.7086,1.6316,-0.4917,-1.5496,1.3361,-0.3826,2.1733,-0.6104,1.198,-1.9667,-0.1369,-1.2451,-1.8009,0.1596,-0.1056,-0.649,0
513,7660000,0.0229,-0.1237,9.772,0.3861,0.1125,0.212,29.474,-8.8976,42.1733,-0.8348,0.2912,-0.1614,-0.5065,1.4087,-0.4289,-1.7254,0.914,-0.4808,0.3144,0.4129,-1.3473,-1.9757,1.1785,-0.8211,0
514,7670000,0.1941,0.0137,9.8609,-0.1906,-0.3587,-0.1209,28.3976,-11.1615,41.2234,0.0565,-1.2715,0.3986,0.0306,-0.6319,0.4804,-1.9678,-0.1696,-0.5263,1.1578,-0.9536,1.4449,1.218,-0.1068,2.6823,0
515,7684000,0.0821,0.0239,9.7958,-0.4409,0.2955,0.2672,29.5919,-10.2112,39.5702,-2.117,-0.298,0.7744,-0.2391,-1.0592,1.0544,-1.0723,-0.0634,-1.0849,0.2389,0.6389,1.0874,1.0751,0.0132,-1.1458,0
516,7701000,0.0894,0.0863,9.8556,-0.3613,0.6656,-0.5622,30.5797,-10.6894,39.0885,0.7606,-1.1359,-0.2641,0.1302,0.6366,-0.3365,-0.102,0.1061,1.8304,0.4422,0.1722,0.3832,1.7114,0.8441,-1.0197,0
517,7730000,0.1647,-0.0476,9.7498,0.6443,-0.0442,1.0039,28.9238,-10.692,38.5043,0.7827,-1.3431,-1.0879,-0.4403,-0.3842,-1.094,-1.2429,1.0621,-0.586,-0.0364,-0.3684,0.5997,1.3227,-1.1326,-1.2406,0
518,7741000,0.0265,0.1944,9.7427,0.27,-0.1882,-0.5181,30.5294,-10.645,41.4942,-1.1623,-0.0807,0.4577,0.9779,-1.4573,0.3242,1.4153,0.5058,-1.1603,-0.058,-0.2344,0.9082,-0.1474,0.4459,0.1607,0
519,7752000,-0.0148,0.0875,9.7224,-0.4766,0.2713,0.1812,30.8222,-10.6728,39.6563,-1.7231,0.2459,0.2805,-0.4604,0.9178,1.1956,-0.0653,-1.6297,-3.0827,0.0611,-1.2519,0.0694,1.653,-1.577,-1.2355,0
520,7767000,0.0378,-0.0766,9.8342,0.5882,-0.7509,0.7507,31.5376,-12.7523,40.6337,0.123,-1.4087,-0.3203,-0.8484,-0.4713,1.1125,0.2413,0.202,1.1976,1.2399,0.8871,0.3133,-1.3375,-0.7578,-0.4904,0
521,7782000,-0.1693,-0.0423,9.7859,-0.3698,-0.1932,-0.0854,29.3563,-9.0635,40.8112,0.8472,1.228,0.7945,0.382,-0.2408,0.4026,1.0041,0.1263,-0.3099,-0.1823,-0.8299,-1.3269,-0.73,0.8337,-1.3031,0
522,7800000,-0.0508,0.0395,9.8754,0.6569,-0.4562,0.4788,29.8862,-9.9199,37.8335,0.101,0.577,-0.8156,1.2308,-0.7545,0.5298,0.5168,1.1191,0.9622,-0.3341,0.53,-1.4006,0.7025,0.1987,0.4654,0
523,7811000,-0.094,-0.149,9.7846,-0.072,-0.1637,0.0562,29.4403,-10.0328,39.5217,-0.9996,-0.3875,1.6363,-1.2614,0.1049,0.5959,1.0967,-0.6874,-0.0313,1.492,-2.2892,2.1324,0.5,-0.0425,-0.1635,0
524,7828000,-0.0109,-0.0063,9.7661,-0.0569,0.1482,-0.3943,28.9448,-10.0469,40.6293,-1.0072,-1.2186,-0.3367,-2.5936,0.8153,-0.0688,0.0042,0.744,0.2848,1.526,0.1906,-0.8768,1.1317,1.3783,0.8868,0
525,7839000,-0.0853,-0.0204,9.7495,0.0964,1.0313,0.2387,28.7525,-9.5922,39.8559,1.9315,-0.8159,-0.894,-0.011,-0.1773,1.7999,0.974,-1.2343,0.6002,-0.4408,-0.9614,0.1931,0.692,-0.0148,0.6666,0
526,7849000,-0.005,0.0581,9.8422,-0.0584,-0.6451,0.1975,29.0362,-9.2883,41.0425,1.1433,-0.4444,0.1327,0.0943,0.2766,0.53,0.5073,-1.7287,1.0916,0.3822,-1.9308,-0.7678,-0.0773,-0.3426,0.2681,0
527,7860000,-0.0561,0.2628,9.7263,0.575,-0.5689,-0.0302,29.5417,-10.824,40.6606,1.8102,-1.416,-1.2758,-3.1034,1.1563,-1.3337,0.2621,0.5364,-1.1438,0.894,1.0443,0.0779,1.0697,-0.7457,-1.2244,0
528,7870000,0.1439,0.0799,9.8421,-0.8217,-0.2624,0.2287,29.7177,-10.4779,40.3841,-0.6494,1.3484,0.5288,0.5987,-0.3127,0.2029,0.2496,-0.4667,-2.3082,-1.6218,0.304,-1.1109,0.5237,-0.6526,1.3816,0
529,7885000,-0.1182,-0.0579,9.8825,0.0543,0.5201,0.3344,28.4817,-10.9157,39.6345,-0.4009,0.1268,0.5718,0.9971,-0.0783,-0.2112,-0.7514,0.262,-0.85,-1.6815,0.1388,1.4232,-2.1216,0.1329,-0.0464,0
530,7895000,-0.0074,0.1948,9.769,-0.473,-0.0389,-0.6184,30.3199,-10.1165,41.7022,0.214,-0.3726,-0.227,1.2665,0.4057,-1.2624,-0.3284,-0.0382,-0.8455,-0.0782,0.2789,-1.5644,-0.4686,-0.6897,-1.5193,0
531,7905000,0.1029,0.1017,9.8567,0.3748,0.3395,0.8497,30.6913,-9.0181,41.0118,-0.2668,1.4149,-2.2427,1.715,-0.0525,0.8439,1.0506,0.4868,1.2947,-1.9612,0.1123,2.3487,-0.1663,0.9306,-1.6273,0
532,7916000,0.0325,-0.0193,9.7844,-0.4262,0.0535,0.3547,28.7597,-9.6267,40.1258,0.9143,-0.023,-0.0978,0.6909,0.5418,-0.4623,-0.2202,0.4756,0.9553,-1.2906,-0.214,2.006,0.5306,-1.9891,1.1939,0
533,7926000,-0.0731,0.0502,9.8308,0.3418,-0.0922,-0.1114,29.3805,-11.5519,39.243,-0.2778,-1.1893,-1.124,0.1633,0.8771,0.8866,1.087,-0.9372,-1.0824,-1.074,-0.1239,0.8613,-1.5107,0.6039,-0.4717,0
534,7937000,-0.0492,-0.1665,9.9359,-0.2956,-0.1298,0.8094,30.9665,-9.842,38.6651,-1.2609,0.7558,0.3823,1.0142,-0.0709,1.3347,0.6986,0.1821,0.767,0.7373,1.1236,1.1314,0.8737,-1.1063,1.9681,0
535,7974000,-0.1567,-0.0767,9.8393,-0.6594,-0.0362,0.0048,28.9778,-9.9921,38.7805,1.8119,1.241,-0.1901,0.3506,-1.0262,-0.9641,-0.2211,-0.3426,0.7778,0.5584,-0.6123,-0.2391,0.9597,0.6281,1.9059,0
536,7985000,0.024,-0.1957,9.8402,0.5857,0.1051,0.4415,29.2393,-8.637,38.2276,0.645,-0.9533,0.4894,-0.9936,0.3238,0.7791,-0.1691,-0.7469,-1.2067,1.0926,0.9186,2.2565,-0.3543,-0.4906,-0.5518,0
537,8001000,0.0773,0.0832,9.7528,0.0316,0.2341,-0.1784,28.6505,-9.1128,41.3028,0.283,1.3387,-0.2696,-0.1719,-0.1546,0.1568,0.1345,0.7196,-0.7119,-1.0372,0.2568,0.933,0.8952,0.701,1.4088,0
538,8012000,-0.0912,0.0264,9.75,0.2721,0.5572,-0.3045,31.2928,-9.7436,39.8522,0.3477,0.3335,-0.0885,0.7128,1.4797,-0.2876,0.6364,1.92,-0.6805,-1.2312,-0.8814,-1.0271,0.2796,0.3933,-2.6628,0
539,8027000,-0.0487,-0.0293,9.8123,-0.2901,0.0029,0.8013,30.3501,-10.7012,39.3426,1.6053,0.1488,-2.2669,0.4679,0.3646,-1.3617,0.8151,0.22,0.2496,0.3508,0.2735,0.9268,0.6048,-2.0545,0.8586,0
540,8038000,-0.0572,0.0202,9.9326,0.4185,-0.8238,0.3158,30.4443,-9.9122,40.1368,-0.6172,0.0491,0.5374,0.7699,-1.1473,-0.3604,1.9051,1.0984,0.657,0.783,1.3171,-1.9047,1.1712,0.6627,1.3886,0
541,8049000,0.0207,0.1633,9.7466,-0.2193,-0.0138,0.0378,30.6789,-10.0069,40.1476,0.5263,-0.1614,0.2244,1.784,-0.9399,-0.5733,0.1582,-0.0142,1.821,0.5345,0.2002,-0.0983,-0.0067,0.07,-1.6377,0
542,8060000,-0.0772,0.0879,9.7377,-0.037,-0.2229,1.5161,30.1431,-9.8375,40.498,-0.5139,0.342,-1.1434,0.1218,0.8481,-1.3267,-0.8783,0.9767,0.3413,1.9437,-0.4432,-2.1569,0.2337,-1.0742,0.9161,0
543,8071000,-0.0157,0.0086,9.8505,0.4909,0.3109,-0.0589,29.3239,-9.7937,39.3643,-2.1978,0.2958,1.1955,-0.2718,-0.4138,-0.7403,-0.2265,0.9963,0.0407,0.6428,0.7012,0.2166,1.1015,0.027,0.3703,0
544,8082000,0.0249,-0.184,9.8201,0.3358,-0.0066,0.1092,30.9785,-8.5885,39.4471,-0.9766,1.1289,-0.2139,-0.2225,0.5401,-2.1902,1.223,-1.8211,-0.9539,-1.3601,-0.2692,-0.262,1.6979,0.5272,0.5578,0
545,8094000,0.0701,-0.0766,9.9075,-0.5224,-0.4123,-0.082,29.6824,-10.2769,39.6008,0.2553,1.1228,0.1258,-1.53,-1.5445,0.4055,0.461,1.3962,-1.0901,0.8539,1.2617,0.0886,-0.3158,-0.1734,-1.0283,0
546,8104000,0.0572,0.3048,9.8351,-0.0916,0.9119,-0.7482,30.7117,-10.2897,39.3326,0.3058,1.4451,2.1019,0.3944,-0.3529,0.2287,0.0172,0.0869,0.3538,2.0338,0.1768,-0.0116,0.58,1.4426,1.7362,0
547,8119000,0.0215,-0.0345,9.8924,0.215,0.7247,0.0605,30.0381,-10.4335,40.7741,1.3116,-0.9495,2.7282,-0.3603,0.5096,0.3068,0.7295,-0.6912,-1.0529,1.5,-0.5628,0.8568,0.3014,-0.9632,-0.9772,0
548,8134000,0.004,-0.0216,9.813,-0.4315,0.3984,-0.3086,28.7907,-9.8774,37.6378,-1.7796,0.1841,-1.455,-0.2494,-1.3523,0.0277,-0.1011,-0.3033,-0.7803,-0.5135,0.5576,1.7271,-0.0843,0.7298,-1.7009,0
549,8148000,-0.0445,-0.1051,9.7739,0.4409,-0.2669,0.1856,30.2207,-8.247,40.6355,0.3814,-0.7543,-0.7683,-1.7927,-1.9031,-2.2604,0.8903,0.9786,-0.5404,1.0869,1.7933,0.1173,-1.484,-0.7204,1.1484,0
550,8158000,-0.0472,0.0658,9.8566,-0.262,-0.0509,-0.1472,30.6098,-11.351,39.9829,-1.1069,-0.8207,-0.4715,0.2568,1.2766,0.8136,-0.9975,1.4058,0.794,0.4101,0.7787,0.3465,0.2778,0.2315,-0.2125,0
551,8169000,0.0229,0.0289,9.8308,0.4231,0.3393,-0.2789,29.6962,-10.8703,39.9815,1.6288,-0.0845,1.4338,0.5305,-1.3301,-0.834,-1.4035,1.326,1.5936,1.2267,-1.1286,-0.4055,-0.0966,0.5541,0.736,0
552,8179000,-0.0332,0.1231,9.8199,-0.5419,0.2231,-0.5543,30.8424,-10.103,40.438,1.5632,0.8307,0.289,-1.465,0.2035,-1.518,-1.3287,-0.4977,-0.175,1.7348,0.669,0.0094,0.2609,-0.0346,-0.336,0
553,8190000,0.039,0.0423,9.7344,0.786,-0.2544,-0.4873,30.9152,-11.6292,40.5869,1.073,0.2611,-2.0146,0.9958,-0.6915,-0.3923,-0.3302,0.9135,1.2833,-0.522,0.1596,-1.8144,-1.2413,1.4362,1.4109,0
554,8222000,0.0068,0.0945,9.8603,-0.6214,-0.2292,-0.0138,31.1008,-9.8036,39.6007,0.161,1.1616,-0.0653,0.9738,-0.0611,-0.2383,0.1209,-1.5034,-0.7316,1.7249,0.4934,-0.7914,0.7045,-0.1314,0.9575,0
555,8233000,-0.2199,-0.0142,9.8024,-0.7736,0.3916,0.5004,30.731,-11.01,40.3054,-0.7043,-0.0359,0.6181,0.0751,0.026,0.7703,-0.7701,-0.7733,-0.6415,-0.5809,-2.1236,0.928,0.3108,0.9747,1.0672,0
556,8244000,-0.0785,0.0072,9.7721,0.1488,-0.6744,0.3135,30.5024,-11.2262,41.3853,1.5235,-0.7872,0.6579,-1.4419,-0.9008,-1.1838,-0.83,0.9042,-1.047,0.6985,0.6204,-2.2196,-0.4405,0.1793,-1.2759,0
557,8255000,0.2021,0.1677,9.7709,0.1884,-0.668,0.7191,28.3464,-11.7707,40.6957,-0.0791,0.9494,0.215,0.644,-1.1935,-0.6126,-0.6589,-0.7709,1.3844,2.8232,-0.5233,0.7297,-0.6983,1.0597,0.524,0
558,8267000,-0.1325,-0.0671,9.7284,0.186,-0.9733,-0.763,31.3749,-10.7391,40.4355,-0.7233,0.4117,-0.989,0.6982,0.6072,-0.3266,2.4458,1.1047,0.3244,-0.5219,-1.078,-0.1506,0.1299,-1.4875,-1.095,0
559,8278000,0.1206,-0.0891,9.8553,0.7993,0.5585,0.41,30.3006,-10.6643,40.6173,-0.9726,-1.9423,-0.209,0.0066,-0.5439,-0.8352,-0.5266,0.7336,0.8151,0.1018,-0.9625,-0.3005,-0.4104,-0.0787,-0.309,0
560,8290000,-0.1126,0.0713,9.7973,-0.5073,0.2584,-0.4982,31.473,-9.8988,40.5951,-1.0983,-0.7772,0.114,-0.1799,-0.1411,-0.3628,0.2471,-0.0917,-0.023,-1.2807,-1.2102,-1.1376,1.4114,1.828,0.8807,0
561,8304000,-0.0028,0.0886,9.8537,-0.7419,-0.3782,0.0353,32.0459,-11.2956,38.3815,2.0721,-1.0308,-0.7747,0.9815,1.2552,-0.6323,0.359,-0.4314,0.5672,-0.2372,0.0071,0.489,2.3076,1.8574,0.1581,0
562,8315000,-0.0263,0.209,9.8301,-0.9515,-0.793,-0.1387,29.7864,-8.6377,39.2513,0.7783,-0.4808,-0.1443,2.4118,-0.1723,-1.0696,-0.1199,-0.392,-0.7954,-0.0389,0.9726,-1.2185,-1.0838,1.0126,0.3844,0
563,8326000,0.2552,-0.0019,9.8012,0.5811,-0.0354,-0.2735,30.1976,-9.6743,39.7307,-1.1451,-0.0141,2.6503,0.3283,-1.1165,0.129,-1.7075,-2.3562,-0.0045,0.9758,-2.3084,0.8853,-0.2882,0.1263,0.4684,0
564,8337000,0.2108,-0.0397,9.7634,-0.1488,0.0956,0.65,30.6503,-10.1892,39.1112,-0.3106,1.2576,1.5894,-0.4791,-0.3847,0.1289,-0.5174,-0.8387,-1.2015,-0.6719,-0.0674,-0.9121,2.4611,-0.0744,1.6875,0
565,8351000,0.0293,0.031,9.8988,0.0113,-1.0481,0.101,30.4878,-9.9164,38.1443,-1.7853,-0.1861,0.5297,-0.8423,1.4728,1.3174,2.3585,-0.2672,-1.3399,-0.4177,2.3757,0.403,-1.5993,0.5004,-0.3725,0
566,8367000,-0.0511,0.0339,9.8097,0.1396,-0.0681,0.0233,29.5331,-10.7383,38.8834,-0.7457,1.1378,2.1799,1.1745,-1.179,0.741,0.5722,-1.1051,0.6005,0.3546,-0.3792,1.0204,0.966,-2.5719,1.4399,0
567,8380000,0.0487,-0.3144,9.847,-0.2667,-0.0336,-0.0132,29.2309,-11.1059,37.5319,-1.6515,0.3729,1.6786,-0.112,1.4567,0.637,2.017,-0.4559,1.233,2.055,-0.1232,0.7619,-0.1687,-0.8124,-0.8704,0
568,8390000,0.0214,-0.1636,9.8054,0.0314,-0.5928,0.0683,30.8989,-8.0695,39.0773,-1.3428,1.0914,-0.9821,1.1127,-0.7198,-1.4539,-0.34,-0.8277,-1.5387,0.5052,-0.7349,-1.7684,-0.6919,0.251,-1.3932,0
569,8401000,-0.068,0.1441,9.8511,0.792,0.2534,0.1042,29.4297,-8.7201,40.6294,0.8001,0.5236,1.2928,-0.3766,-0.1717,-0.2425,-0.2229,-1.5236,-0.4438,-0.2937,-0.3524,0.4813,0.8082,-1.5801,-0.3032,0
570,8411000,0.2309,-0.1333,9.8568,0.526,-0.0595,-0.494,29.3679,-9.6196,40.1045,0.0591,-1.8126,-0.4328,0.7128,0.3372,0.4232,0.648,-0.3463,1.2641,1.1412,1.4058,-0.5061,0.0693,1.0805,0.8477,0
571,8444000,0.119,-0.0857,9.8456,0.012,0.2678,0.5048,30.7889,-10.9407,40.3229,-0.3035,0.2502,-0.0133,-0.6908,0.3231,0.5213,0.1589,0.0298,1.3042,1.5158,-0.4098,-0.6828,-0.4657,0.0336,-1.1731,0
572,8457000,-0.1378,0.1524,9.7901,-0.2334,0.8443,-0.4659,31.2817,-11.2012,39.9153,-0.5692,-2.3439,-0.8037,-0.6806,0.1781,0.6597,0.9726,-0.5932,0.4608,0.0711,-0.3387,0.0487,1.8186,-0.158,1.9321,0
573,8471000,-0.0002,0.0043,9.8777,0.4764,1.49,-0.0262,30.776,-10.003,42.0134,-0.5759,0.9109,1.6281,-0.8368,0.6392,0.7892,-0.2103,-0.4789,0.8203,-0.3478,-0.0813,0.519,0.0125,-2.2675,0.3145,0
574,8483000,-0.0733,-0.0848,9.8133,0.7377,1.3817,-0.1495,27.7332,-7.8415,40.0386,2.0124,-1.7918,-0.8109,0.6649,-1.0349,0.9767,-0.2519,-0.3183,0.3638,0.5069,0.4212,2.0196,0.3292,1.4029,0.6663,0
575,8494000,-0.0056,0.1021,9.8435,0.5362,1.0584,0.2146,30.7948,-9.3764,39.9351,1.291,-1.0504,1.3074,-1.1346,0.9767,1.0935,-0.8827,0.5299,-0.8553,1.2525,0.2022,0.1031,1.2063,1.6939,0.5824,0
576,8505000,0.1241,0.1631,9.6814,-0.4078,0.2406,0.4544,29.5474,-8.4232,38.3947,-0.6339,-0.9449,-0.8732,1.5536,-0.4723,0.9354,0.9618,0.8413,-0.7079,0.5847,-0.0533,0.9934,1.4996,0.4786,-0.2798,0
577,8518000,-0.2403,-0.1125,9.7419,0.8407,0.5985,-0.1966,28.9793,-9.2801,41.7234,0.7597,-1.1615,-1.7568,-1.0577,1.5188,-0.925,-0.6381,-0.4824,-0.4718,0.916,0.9368,-0.094,0.4042,-1.0463,-0.9129,0
578,8529000,-0.0338,0.0798,9.7534,-0.4404,0.372,-0.6367,29.989,-8.7835,40.3716,-0.8681,1.0004,-0.7993,-0.8996,-0.5018,-0.5412,-1.0392,-0.8751,-0.1868,0.2947,0.0694,-0.054,-0.2748,-2.2522,-0.3434,0
579,8545000,-0.1175,0.0035,9.7755,0.8575,-0.3053,0.1538,28.3905,-9.6303,37.6748,-0.1926,0.1423,1.0604,-0.9206,-1.3478,-0.1789,-0.9324,0.4415,-0.6535,0.1972,-0.1531,-0.7572,0.1544,1.6042,0.4379,0
580,8556000,0.1433,-0.1008,9.7642,-0.6083,-1.2577,-0.9567,30.1309,-9.5354,41.1413,-1.086,0.298,-0.3677,-0.3818,0.1038,0.3357,0.2327,1.1428,-0.535,0.3624,0.4865,-1.0157,-1.1811,0.907,0.7914,0
581,8576000,0.1345,-0.05,9.6769,-0.6296,0.5572,0.1646,30.5907,-9.2023,37.6531,-1.6703,-1.3645,-0.3637,-1.3372,-0.7282,-0.4041,1.6205,0.8617,-1.4872,-0.3231,0.4226,1.034,0.5277,-1.9846,-0.3466,0
582,8587000,0.1974,-0.1148,9.7463,-0.4548,-0.2002,-0.168,29.0159,-10.9935,40.8164,-0.1624,0.6014,-0.0724,0.389,0.9693,0.0363,-0.2672,1.2433,-0.3067,-1.5938,0.8125,0.6607,-1.1112,-0.1557,-0.1321,0
583,8602000,-0.0295,0.0238,9.7752,-0.9061,-0.156,-0.042,30.4924,-11.3078,39.5206,0.717,-1.164,1.3724,-0.706,-1.0242,-0.1925,0.4382,-0.8325,-0.3109,0.2637,-0.8125,-0.6066,0.7622,-0.6857,-1.5293,0
584,8613000,0.1012,-0.0305,9.829,0.1492,0.3901,0.6906,29.3486,-8.5197,40.1616,0.9687,1.2668,-0.7862,-0.0075,-0.1974,0.2718,0.1754,0.3804,-0.4487,-1.6932,-0.9915,-1.6678,0.0854,1.4846,0.9809,0
585,8624000,-0.0567,-0.0742,9.809,0.2224,-0.7319,-0.5491,29.3867,-10.5314,38.393,1.4462,-0.2918,-0.056,-1.1808,1.4909,-0.6025,0.137,-0.0981,1.0271,-0.1035,0.6065,-0.8005,-0.157,0.4273,0.3668,0
586,8637000,0.0493,0.0799,9.7933,-0.1085,0.0366,-0.6715,30.4336,-11.6285,39.6186,-0.7118,0.3937,0.9987,-1.0783,0.2429,0.7918,-0.34,-0.578,1.0542,-0.2501,0.7264,0.1179,-0.5576,-1.0786,0.3225,0
587,8649000,-0.0393,0.0684,9.7577,0.1011,0.0773,-0.4471,28.9275,-9.333,41.7091,-1.07,-0.4807,-0.2334,2.0449,-0.0799,-0.1925,0.3317,1.7821,0.8681,-0.1194,0.1569,-0.6918,1.1471,-2.5176,-1.3863,0
588,8659000,-0.0911,0.126,9.7875,0.0979,0.3414,0.2369,28.5282,-8.9988,39.5482,0.4791,0.3794,-0.4177,1.5547,-0.803,0.4546,0.6614,-0.0285,0.0567,-0.9503,-0.2349,-0.9898,-0.6156,1.5801,2.0993,0
589,8672000,-0.0876,-0.0225,9.8112,0.2207,0.8077,-0.7466,29.4062,-11.0203,40.4386,1.7304,-2.5162,1.08,0.0288,0.9348,0.4561,0.8472,0.1784,-0.5632,0.0385,-1.109,0.3588,-1.509,0.963,1.1597,0
590,8705000,-0.0221,-0.1603,9.7432,0.7493,0.1434,-0.4284,29.9323,-10.4715,38.7266,1.1308,-0.215,-0.2442,0.2185,0.7928,-0.0306,-0.0304,-0.1374,0.4914,-0.4762,-0.9283,-0.8361,-0.0688,1.05,0.1306,0
591,8719000,-0.028,0.0472,9.7821,-0.3966,0.4838,0.2778,28.7907,-9.9172,38.4042,0.951,-0.4198,0.1844,-1.3424,0.13,0.3614,1.3663,-0.005,0.9672,-0.8708,-0.0611,-0.0494,0.4248,1.7411,-0.0071,0
592,8730000,0.1385,-0.0003,9.7922,-0.0728,-0.1176,-0.2084,31.5128,-9.6315,40.2536,-0.2324,-0.0545,-0.098,0.2156,-0.0423,-0.4831,1.6343,1.4805,0.7717,1.0271,-1.658,0.5831,0.7346,0.2161,0.7072,0
593,8743000,0.0081,-0.0274,9.7419,-0.2163,0.3834,0.5808,29.2095,-12.5732,42.7127,1.1761,-1.3686,-0.9693,0.4808,-0.029,0.1166,0.1574,0.8345,-1.1219,-0.2551,0.3843,-1.5575,1.4322,-0.0535,0.118,0
594,8755000,0.0767,-0.1028,9.8379,-0.1054,0.4766,-0.0645,30.8741,-9.8475,40.3627,-1.1923,-0.0332,-0.102,0.3207,-1.3018,1.4842,-0.7266,1.0078,0.5468,-0.7383,-0.5047,0.3062,1.1218,0.0521,-1.8254,0
595,8766000,0.0538,0.1105,9.7827,0.5101,-0.4571,-0.0311,31.2936,-12.0795,38.8272,-0.9056,-0.6255,-0.2257,-0.6774,1.5758,0.5571,-2.2755,-0.0782,-0.8168,-0.406,0.3315,0.2558,-0.1949,-0.8777,-1.5487,0
596,8777000,-0.028,0.0222,9.8377,-1.1203,0.0852,0.3363,29.8683,-9.1789,41.2038,-0.9043,-0.6118,0.6058,1.1973,0.5727,0.1224,0.4094,0.2829,-0.6762,-0.4355,-1.1035,0.2744,-0.8876,0.3533,-0.2857,0
597,8792000,-0.0964,0.0318,9.7231,0.6499,-0.1994,0.2222,28.8076,-9.4214,39.8175,0.6862,0.73,1.8015,-0.8224,-0.7243,0.4086,-1.4898,-0.4349,-0.7977,1.0127,0.4697,1.5657,-1.7979,0.9883,0.6884,0
598,8804000,0.0104,-0.2045,9.7986,-0.6817,0.1111,0.6125,30.5721,-10.1231,39.685,-1.2507,2.6659,1.0702,-0.658,-0.7258,1.6003,0.9263,-0.1907,1.4487,-0.1425,-1.0762,-0.0444,1.5247,1.5169,0.0097,0
599,8819000,0.0564,0.0568,9.8269,-0.6912,0.4367,-0.5731,29.8803,-9.6185,39.3678,0.3686,1.0286,-0.486,-1.7795,-1.0511,-0.4821,-0.236,1.0522,-0.1158,-0.6741,-0.4071,1.3073,1.2432,-0.6477,0.4342,0
600,8834000,0.1847,0.0796,9.7208,-0.7344,0.4575,-0.7866,29.7953,-9.8199,40.632,1.7564,-1.3076,0.344,1.9042,0.6074,0.4407,0.6563,-0.0656,-0.9691,0.1927,0.9005,-0.1919,-0.0927,1.2371,-1.6469,0
601,8844000,0.1094,-0.0984,9.787,0.4549,-1.3081,0.3178,30.4116,-10.6041,39.4443,0.2226,0.5708,0.393,-0.2432,0.3805,-2.2429,-0.9882,-1.1781,-1.6298,-0.9052,0.4247,0.2946,-0.8083,-1.9864,-0.028,0
602,8856000,-0.0899,0.0303,9.8357,0.7783,-1.2369,-0.6186,30.5854,-10.8271,37.7871,-0.7353,-1.2959,1.3806,0.9219,-1.3909,0.0144,-0.9471,-0.2217,-0.2323,0.7191,0.9064,0.7812,0.4517,0.4857,2.1206,0
603,8867000,0.0891,-0.0318,9.7735,0.146,0.3033,0.0601,32.1805,-9.7162,41.175,-0.2146,-3.0345,2.4502,-0.7264,-0.3272,-0.5101,0.972,-0.6078,0.1949,0.665,-1.3715,1.0484,0.4822,1.2478,0.3104,0
604,8878000,0.0253,0.046,9.8895,-0.208,0.5879,-0.3491,29.6179,-9.573,39.2056,1.4047,0.1705,0.6629,-0.7037,0.7316,0.7823,0.4816,-1.3421,-0.5824,0.5864,-0.1611,0.1863,1.2199,0.0191,0.9407,0
605,8894000,-0.0814,0.0214,9.7286,0.1472,0.8349,0.7844,29.5936,-8.5776,39.902,0.399,0.8413,-0.2249,-0.9671,2.067,1.3226,1.389,-1.1446,1.1957,0.1407,0.8885,-0.398,1.1583,-0.1432,-1.0033,0
606,8924000,0.1128,0.0253,9.8377,-0.1,0.1596,0.5166,31.8792,-10.6281,38.7095,0.6,0.6026,1.0395,-0.9264,-0.468,-1.0515,-1.1839,0.6653,1.3026,1.0252,0.1641,-2.0309,0.8809,-0.5419,-1.4272,0
607,8936000,0.2142,-0.0305,9.7777,-1.057,0.0645,-0.3515,29.4496,-10.6749,39.7907,0.2649,-1.4849,-0.0996,-0.7692,1.7505,0.237,-0.0237,0.7941,1.7497,0.0755,-1.3584,-0.0597,-1.0623,-0.7896,-0.1976,0
608,8947000,-0.1519,-0.031,9.7923,-0.4147,-0.8151,-0.4206,29.8034,-11.5298,40.005,-1.4398,1.0154,0.2812,1.4984,-0.7901,1.0255,-0.3503,0.478,1.0558,0.9063,0.8157,-1.2257,0.288,2.0824,-0.7158,0
609,8962000,-0.0822,0.0563,9.8009,-0.2887,0.5496,0.2728,28.9376,-10.2939,38.8961,1.7538,1.2064,-0.264,-0.4495,-0.0121,0.9194,-0.1416,0.7094,0.1266,-0.3468,1.5932,-1.5565,-0.2934,0.3719,-0.2185,0
610,8973000,-0.0791,0.1094,9.8764,0.0921,-0.19,-0.1015,30.3454,-8.8287,38.6413,0.8166,-1.2358,-0.2788,-0.0686,-1.4422,-1.9911,-1.0707,-0.1457,-0.1653,-0.46,-0.0022,-0.2128,-1.3379,0.2814,-1.0185,0
611,8984000,0.1891,-0.0434,9.7601,0.3476,-0.4606,-0.741,29.339,-11.6665,40.0957,-1.5404,1.5913,0.6967,-0.1329,-1.0207,0.8887,1.6923,0.0635,-0.0897,-0.0628,0.8572,0.2661,0.6254,-0.7204,-0.0318,0
612,9011000,0.0069,-0.0902,9.7733,-0.5741,0.1402,-0.0117,29.3506,-9.8159,39.1179,-1.3388,-1.6762,-0.1936,-0.7564,1.2642,0.5129,-2.7801,1.3886,2.1676,0.5545,-1.3287,1.1378,-0.2424,0.8256,0.4213,0
613,9026000,-0.0767,0.0898,9.8576,-0.1299,-0.3401,-0.0028,31.1297,-10.0344,39.3632,-0.6086,-0.9366,-0.3593,0.0945,0.8116,-0.0451,-0.5189,-0.8736,0.3322,-0.7572,-1.8777,-1.477,0.1481,0.6007,-0.2395,0
614,9038000,-0.0715,0.0307,9.8182,0.2316,-0.9786,0.5593,29.6558,-10.9386,39.095,0.3057,-1.0602,-0.0787,-0.33,-0.7393,-0.591,-0.8717,0.1833,-1.1353,3.1782,1.2355,-1.5258,-0.7631,1.4129,-0.7496,0
615,9052000,-0.0326,-0.0763,9.8581,-0.2907,0.1176,-0.6337,29.4527,-8.7228,38.8191,0.1229,-2.2786,0.0224,2.4065,1.0726,-0.1862,0.0698,0.7605,-1.607,-0.0841,1.0055,-1.6089,-0.8272,-0.6918,0.2791,0
616,9068000,-0.0261,-0.0431,9.8589,-0.4645,0.9677,-1.0323,30.3006,-10.3411,39.3821,-0.2896,-0.2564,0.0439,1.2639,0.2648,0.5188,0.8925,-0.2137,1.0856,0.9977,1.6556,-0.3091,0.3055,0.1501,-0.0925,0
617,9080000,-0.1791,-0.0989,9.7049,-0.2312,-0.1265,0.107,30.3507,-8.9063,39.9645,0.7374,1.7271,0.1029,0.9363,-1.4562,-0.2565,-2.1306,0.1896,-0.3311,0.2805,0.2907,-1.5099,1.353,0.3023,0.0541,0
618,9090000,0.0216,-0.0394,9.8512,-0.792,0.4822,-0.513,30.2927,-10.1692,40.3788,-0.0478,-1.2073,-0.0644,1.555,-1.2224,0.4428,0.863,-0.8028,-1.5,0.6716,-0.6538,0.3142,-0.753,1.2596,0.7017,0
619,9101000,0.1115,0.0065,9.8368,0.4613,0.9128,-0.0698,30.0195,-9.6162,39.956,1.0193,0.5568,0.598,-0.7194,0.0668,0.2372,-1.3704,-1.6179,-0.8217,0.7175,-1.3301,1.2931,-0.4339,0.3369,-0.0682,0
620,9112000,0.0509,0.1464,9.883,0.7149,-0.8761,-0.3005,29.7912,-9.9213,39.0124,-1.1386,2.0754,-0.2739,-1.2344,-0.7191,0.3079,0.7505,-0.842,-1.2198,0.0526,0.3872,-1.0401,1.0326,-0.6366,-0.2639,0
621,9123000,-0.1539,0.0785,9.7842,-0.6355,-0.2097,-0.2217,31.0695,-10.5219,39.0733,1.1562,-0.8978,-0.901,-0.8032,-0.8512,0.927,0.6744,0.1311,-0.88,0.6447,-0.9021,-0.7946,-0.7015,-1.0878,-0.5261,0
622,9153000,0.0607,0.0729,9.7924,-0.1375,-0.4231,0.246,29.7922,-9.8667,38.3986,-1.2852,-0.7665,-0.7359,-1.6273,-0.3853,-0.4208,-0.5343,0.3327,-0.2792,-0.7697,1.4368,0.0229,-0.4715,1.2885,0.5068,0
