time_ms,ax,ay,az,gx,gy,gz,mx,my,mz,roll_cf,pitch_cf,yaw_cf,roll_kf,pitch_kf,yaw_kf
12,0.0637,0.0658,9.7931,0.1363,0.1101,-0.8167,30.2981,-10.5899,39.3537,-0.8092,1.2586,-0.7987,0.0461,-0.9388,1.1962
22,0.0819,0.1116,9.8497,-0.3391,-0.2629,-0.0847,30.1674,-10.1725,38.7772,1.8926,-1.4459,0.3179,1.0784,-0.0437,-1.2434
101,0.0502,-0.0196,9.8181,-0.7855,-0.2533,-1.0234,31.8187,-11.1633,40.0324,-0.6,-1.1366,0.6731,0.3843,-2.0493,-0.3598
111,0.0879,0.0143,9.7959,-0.1996,0.5376,-0.5749,30.1995,-11.5268,40.5691,1.4248,-0.2365,-0.6552,1.2361,0.8565,0.8564
121,0.0584,0.0554,9.8918,0.0997,0.5483,-1.0715,29.2229,-11.4609,41.0544,0.7369,-0.5034,-1.8656,-0.8838,-1.4561,-0.988
132,0.0029,0.0726,9.6728,-0.4006,-0.0493,0.0398,30.1056,-9.098,39.4926,0.3807,-0.4151,1.2277,-0.0143,-1.4215,1.2445
142,0.0027,-0.0601,9.8084,0.0229,0.3433,0.3581,32.01,-10.8428,40.7723,0.8226,-0.776,0.5204,0.4841,-0.0814,0.4043
157,0.1169,0.0855,9.7831,-0.0376,-0.1682,-0.5129,31.0538,-10.6508,39.9662,-0.1126,1.091,-0.3432,0.0895,1.6688,0.6861
173,0.1184,0.0712,9.8174,-0.7516,-0.4862,0.0875,27.8807,-10.7399,39.5204,-0.3791,0.6237,0.4282,0.7731,0.4783,0.8583
184,0.0546,-0.2053,9.7475,-0.0612,0.5345,-0.5427,31.0828,-8.1286,39.6205,-0.2975,0.1146,0.6944,-0.1267,0.0673,0.6544
194,0.0362,-0.0762,9.7505,0.019,0.1538,0.6306,30.1216,-9.7845,38.5977,0.6731,-0.8318,0.0384,0.8655,-0.0567,-2.2604
204,-0.0921,0.0098,9.7105,0.2824,0.9029,-0.6322,29.1597,-10.0487,40.6777,-0.047,-0.3459,-1.1203,1.6563,-0.6434,-0.3926
215,0.266,0.0363,9.7451,0.5045,-0.3448,0.1023,30.2682,-9.6562,40.0447,-0.0156,-0.6087,-2.3624,0.7844,-0.5869,-0.1709
233,0.089,-0.022,9.7473,0.1973,-0.2535,-0.0848,28.8581,-10.821,38.99,0.9929,-0.5106,0.7862,-0.1717,-0.8017,0.0339
245,0.0091,-0.0008,9.7843,0.5821,0.2209,0.0861,31.4537,-12.6666,40.8225,-2.04,0.4296,0.7574,-0.1613,0.1701,1.0772
262,-0.1584,-0.007,9.7656,-1.012,0.3922,1.0451,30.1564,-12.4123,37.988,0.9766,-0.4254,-1.0878,1.0189,-0.2128,-2.0137
273,0.176,0.0108,9.8189,-0.1647,-0.3851,-0.3087,31.2314,-9.5652,38.5881,0.1237,0.0267,1.0615,0.6633,-1.3218,0.2311
284,0.0002,-0.0763,9.7619,-0.035,-0.0491,0.1123,29.4283,-9.1235,39.8576,-0.7455,-0.853,0.7783,0.5486,-0.9776,0.5784
296,-0.0982,-0.0649,9.7577,-0.4986,-0.0309,-1.0229,30.7309,-10.9223,39.269,0.9589,2.409,0.7914,0.0412,1.0225,0.7165
307,-0.1374,-0.0236,9.8158,0.3224,0.5666,-0.0732,30.7785,-9.5926,39.728,-0.0692,-0.3554,1.7628,0.566,0.0881,-0.6824
318,0.0085,-0.0771,9.8178,0.2027,-0.2615,-0.1,30.5332,-10.9035,39.2828,-0.8109,-0.6119,-1.346,2.115,-0.3362,2.6414
336,0.2529,0.1703,9.9057,0.4987,-0.296,-0.4368,28.8639,-11.6628,37.9822,-1.7947,0.0379,1.123,0.448,-0.7279,-0.3995
346,-0.044,-0.1319,9.7628,0.6263,0.1664,-0.0878,29.4915,-8.3961,38.4517,0.1571,-1.9251,-0.0432,-2.6338,0.5763,-0.4365
357,0.0832,0.0747,9.8276,-0.1228,-0.5814,0.4992,30.137,-9.8017,40.5703,0.8624,-0.9752,-0.1164,-1.2139,-1.2851,-0.9618
367,0.0595,0.1689,9.8475,0.5667,1.101,-0.1538,30.3982,-9.1477,40.0983,-0.0395,0.325,-0.1299,-0.8228,-1.0929,-1.1767
378,-0.0385,-0.0681,9.767,0.0929,1.0734,0.0374,30.3115,-10.9998,39.9043,0.032,1.5723,0.9311,0.2592,0.3663,0.2689
390,0.1343,-0.061,9.8322,-1.0424,0.2193,-0.7111,29.0957,-10.0413,39.5251,-0.1178,0.2219,1.0416,-0.2037,-0.6587,-0.8154
403,0.1278,-0.0106,9.8258,-0.0298,0.4542,-0.0097,28.0963,-11.6521,39.5401,-0.1096,1.1879,0.3248,-0.2846,0.8213,-0.4624
416,-0.0652,-0.0622,9.8217,0.6101,-0.0426,-0.6527,30.4741,-11.5614,39.5455,2.1434,-0.4731,0.3467,0.8138,1.0067,0.5492
427,0.0216,0.0838,9.829,-0.2029,-0.0246,0.3838,27.9885,-9.4846,41.0448,-0.2418,-0.6121,-1.4772,0.5327,1.3256,0.3765
437,-0.0698,0.2232,9.7471,-0.1917,0.0835,-0.5817,28.8067,-9.8442,40.1027,-0.1157,0.5684,-1.02,0.147,0.7038,-0.1228
447,-0.0016,-0.0262,9.8121,0.2772,-0.9118,0.0562,30.3817,-8.8588,38.0002,-0.7567,-0.4638,0.1721,0.0233,-1.5649,0.4642
458,0.1932,-0.0051,9.8214,-0.5856,-0.0015,-0.4002,29.084,-10.079,38.7049,-1.1232,-0.2926,-0.2985,0.6015,-0.4453,0.2547
476,0.0445,-0.1956,9.8465,-0.5141,0.7685,0.3465,30.6571,-9.7146,39.9506,-0.5198,-1.3499,0.1558,0.2875,1.7026,-1.3104
487,0.0194,-0.0793,9.7856,-0.0397,-0.6814,-0.5836,30.9593,-12.4398,40.3417,0.2041,1.0582,-0.1693,0.1672,0.694,1.2063
498,-0.0699,-0.0523,9.8474,-0.1053,-0.3493,-0.1891,30.678,-10.0632,39.3026,0.3664,0.1569,-0.6292,0.7095,0.6812,-1.1026
510,-0.0258,-0.0613,9.7908,-0.3809,-0.6144,0.4831,29.8018,-10.101,40.358,1.5082,0.8555,-0.2244,-0.49,-1.6348,0.0708
521,-0.0821,0.0357,9.807,-0.0844,-0.4967,0.3022,30.1491,-9.7126,38.7935,-2.7156,-0.4721,0.2352,-0.2834,2.1858,0.003
531,-0.0359,-0.0627,9.7555,-0.0113,0.1689,-0.4237,30.9311,-9.8432,42.4551,-2.8119,-0.0289,-0.282,-0.4973,-1.1612,-1.7616
542,0.0078,-0.1081,9.7541,0.1969,0.9906,0.3784,29.5415,-9.7525,38.8817,0.89,-1.0605,1.1118,0.5329,0.8482,1.3819
552,-0.1018,0.0571,9.7962,-0.6743,0.124,0.1542,31.02,-10.4601,40.229,0.9429,-0.8521,-1.5367,0.1684,-0.4194,-0.146
562,0.1249,-0.0484,9.7754,-0.1644,0.4931,0.2666,29.5653,-8.6869,40.2214,0.1786,0.7186,1.5871,-0.239,1.5432,-0.0154
573,-0.0893,0.0327,9.8222,0.0304,-0.288,0.074,31.2588,-9.9308,39.8809,-0.8375,0.9464,0.5816,-1.5424,-1.1225,0.5797
591,0.0494,0.0789,9.7338,-0.6746,-0.119,-0.5105,27.7751,-8.7349,39.7361,1.1661,2.6269,-0.4153,0.4346,0.8126,-0.3745
606,-0.0126,-0.0429,9.8212,-0.2797,0.1837,-0.889,30.7136,-8.3997,39.9633,0.7874,0.8533,0.885,-0.4924,0.102,-1.0343
617,-0.0539,-0.0491,9.7884,0.3091,0.1784,0.474,29.5326,-11.2719,40.7703,1.1645,-2.6839,1.0058,0.4316,-0.0377,0.7445
628,-0.1074,0.0909,9.78,0.2692,-0.6056,0.7102,29.9878,-10.118,41.0575,0.4782,-2.926,-0.7015,0.9122,-0.0945,-0.5589
640,0.0829,0.0193,9.7007,0.6937,0.4379,0.6684,28.9228,-10.6078,41.8651,-1.048,0.8412,0.3081,-0.0093,-1.5758,-0.9547
650,0.0817,0.0881,9.7369,0.4461,0.8699,0.3363,28.2757,-11.3567,39.5723,-0.0143,-0.1331,2.1872,0.7486,0.5138,-0.1081
660,-0.2752,0.0059,9.7837,0.7034,0.072,0.0856,29.5542,-9.5569,38.2961,-0.8495,0.068,0.9671,-0.7721,-0.2683,0.1378
671,-0.1027,0.0492,9.8241,-0.4654,0.0687,0.3067,30.3317,-9.9455,41.5423,0.41,0.7911,-1.7045,0.1304,1.0651,-0.9987
681,-0.0116,-0.0492,9.8263,0.1088,-0.5003,-0.1503,29.6597,-9.9965,42.0211,-2.1573,-1.3589,0.1422,0.7295,0.4617,-1.1828
692,-0.0622,0.0204,9.8205,-0.1895,0.4325,0.2281,29.8531,-8.5631,41.2598,-1.6526,0.8599,-0.093,-0.1333,1.6915,0.2633
702,0.0178,-0.0234,9.8165,0.3574,0.0357,0.4635,29.9738,-8.4207,39.4323,0.0224,-1.9286,-1.1725,-0.2299,-0.4247,-0.4048
712,-0.01,-0.0145,9.7236,-0.1941,-0.0241,-0.8273,30.5956,-9.7983,40.0486,0.6143,1.443,0.8782,0.6176,-1.3733,-1.9438
724,0.0176,0.0113,9.8344,0.1265,-0.5935,0.4691,28.5935,-10.1438,37.4288,0.4565,0.7079,2.6236,-1.0326,0.1116,1.4473
739,-0.0847,-0.0353,9.8825,-0.0206,-0.5236,0.2597,29.8483,-9.557,38.3987,-0.785,-1.4163,-0.3785,1.3664,-0.2963,0.0443
751,0.1027,-0.1291,9.833,-0.2445,0.3756,0.1917,29.5646,-9.9647,39.5096,1.7288,-0.0706,0.1475,2.7293,1.6253,-1.3152
763,-0.2474,-0.0576,9.8088,0.1309,0.0289,-0.9407,28.8108,-10.7361,40.2166,-1.305,-1.7822,-0.0862,1.0685,-1.495,-0.24
773,0.1008,0.0441,9.7934,0.3913,-0.2786,0.0478,30.3133,-8.1659,41.4521,0.4407,0.3642,0.8794,-1.0913,0.0482,-1.1326
783,-0.0064,0.0448,9.7844,-0.1007,-0.2713,0.0415,28.364,-10.1007,41.3504,1.1966,0.6151,-0.1701,0.0439,-0.1611,-0.9822
794,0.0191,0.0286,9.7435,-0.2108,0.1139,-0.5387,29.957,-10.351,40.5149,0.2941,-0.2519,-1.1046,-1.3425,0.4651,0.3518
804,-0.0016,-0.0619,9.7851,-0.4981,0.2602,-0.4192,29.6734,-9.2617,41.8141,-0.8732,-0.0809,0.376,0.4987,-1.0667,0.925
814,0.1324,-0.1926,9.8336,1.2546,0.2707,0.5103,28.2006,-8.7563,38.2676,0.7715,0.3449,1.8101,0.868,-0.9331,0.1261
834,0.1312,0.0145,9.7487,-0.0025,-0.254,0.0572,29.8195,-9.8395,41.3404,0.4374,-1.0742,0.7161,-1.9064,2.3229,1.2203
844,0.0184,0.0618,9.7893,-1.0974,0.6765,-0.5853,29.5254,-7.3535,40.6191,-1.9397,-0.3398,-0.6062,-1.7973,-1.5759,2.2978
855,0.075,-0.02,9.8066,-0.8606,-0.1232,-0.2969,31.1049,-8.8656,40.6381,0.9082,-0.867,-1.2798,-0.2556,0.7692,-1.7885
866,0.0213,-0.0023,9.743,-0.8354,0.241,0.3558,30.9693,-8.1151,40.7332,-0.0251,0.7647,1.3512,0.876,-0.8904,1.4504
877,-0.1481,0.1029,9.7759,-0.5811,0.8721,0.1575,29.5582,-9.1909,41.4522,0.8258,-1.3031,0.1345,-0.5472,0.5274,0.4924
887,0.0282,-0.0147,9.8553,-0.0427,0.5418,-0.3329,28.9392,-11.1694,39.7601,-1.1061,-2.4582,-1.0918,0.0066,-0.8559,2.3249
898,-0.023,-0.0476,9.8069,0.0842,-0.2813,-0.8138,30.1609,-10.3932,40.9017,2.1505,0.6343,1.1254,0.1718,-0.4237,0.2269
908,0.0104,-0.0641,9.6895,0.574,1.0411,-0.3632,29.9703,-11.0675,39.9988,1.5304,-0.1579,1.1862,-0.3188,2.0654,-0.3754
918,0.0467,-0.0293,9.8381,-0.3958,0.8502,-0.0077,29.6516,-9.398,39.8706,0.7176,-2.0493,-2.206,0.7412,-1.1741,0.4492
929,0.008,0.0434,9.7564,-0.0618,-0.8202,0.8698,29.7007,-11.5225,39.3616,-0.2835,0.9378,0.4948,2.0013,0.7416,-1.9221
939,-0.0604,0.1272,9.7607,0.3163,-0.4779,-0.2065,29.4274,-9.6228,39.1712,-0.0561,1.0298,-1.6108,0.1547,-2.8017,0.5152
953,-0.2233,0.0169,9.8094,-0.0456,0.0082,0.5613,28.8902,-11.5053,42.5555,0.837,-1.6977,-0.88,-0.1851,-0.4186,0.7004
963,0.1358,0.1826,9.7781,0.0105,-0.0848,-0.0488,30.4233,-10.2287,39.7432,0.1192,-0.5355,-0.0379,1.1249,0.4218,-0.9088
975,-0.2476,-0.0519,9.8547,0.326,0.2706,0.5593,28.6087,-9.2519,40.9125,-0.6899,-0.4911,0.7799,-0.0638,0.8849,0.5149
985,-0.1963,0.1255,9.7881,0.5517,0.9441,0.0343,30.1006,-10.0699,39.4548,1.0541,1.0658,-0.7587,1.2462,0.356,1.027
998,0.0056,-0.1378,9.8056,-0.0278,-0.6466,0.902,29.4144,-12.7063,40.2588,1.3414,-2.4338,-0.0116,0.5824,1.7937,0.4345
1009,-0.0401,0.0295,9.8068,0.1357,0.6619,-0.2805,29.0053,-8.5678,41.1969,1.3149,0.411,-0.3588,-1.0329,-0.2739,-0.041
1020,-0.0293,-0.0564,9.7243,0.141,0.1596,-0.4339,29.0219,-12.0919,40.0713,-0.1082,-0.2628,0.5281,-0.2176,0.3943,-1.6133
1030,-0.0575,-0.1207,9.8305,0.5013,-0.5797,0.0923,30.8563,-9.3964,38.351,-0.1985,1.5266,2.4363,0.6447,0.4029,-1.2864
1041,0.0808,0.0406,9.7973,0.332,-0.0577,0.072,30.928,-7.7488,39.9501,-0.6899,0.2831,0.5883,0.1687,-0.1566,1.7559
1051,0.2772,0.0716,9.7451,0.7376,0.5892,0.0487,28.3444,-7.9415,40.2099,-0.6739,-1.7085,-0.9692,-0.1361,0.3044,0.3366
1062,0.164,-0.08,9.7256,-0.1138,-0.4478,-0.0267,30.02,-10.0741,39.7444,-0.0715,-0.1402,0.9469,1.0905,-0.3916,-1.102
1073,0.1196,-0.0173,9.8059,-0.2782,0.3044,-0.1999,31.1269,-10.2248,41.59,0.322,-0.1072,0.6981,-0.3726,-0.519,0.404
1090,-0.0677,0.1123,9.8394,0.1066,-0.0822,-0.2011,30.3111,-11.0683,38.9512,-0.9549,-1.3483,-1.2076,1.0094,0.4483,2.438
1100,0.0026,-0.069,9.8508,0.6657,0.644,-0.2404,30.2753,-11.2,40.9417,-0.0164,-0.0346,-0.9862,1.3694,0.7003,0.3812
1111,-0.0893,0.0737,9.8894,0.0747,0.2533,-0.3625,30.3804,-10.8806,39.0164,0.0465,1.386,1.618,0.4174,0.6276,1.2201
1122,0.0656,0.1322,9.8232,1.0498,-0.3994,0.9608,28.1881,-8.9599,40.3233,-0.5993,0.875,-1.1577,0.2159,-0.0771,1.4087
1133,-0.1219,-0.1181,9.8669,-0.1389,-0.1998,-0.0145,29.5012,-8.7805,41.2383,-0.5338,-0.3914,0.2426,0.9372,-0.7831,1.4709
1143,-0.013,0.0175,9.762,0.3083,-0.5579,1.0085,31.4686,-8.8212,40.2825,1.9653,1.0994,-0.6362,-0.6302,1.0438,-2.4056
1154,0.0729,0.0947,9.7792,-1.2825,0.0609,0.4003,29.3438,-10.8293,40.0671,-0.5936,0.8192,0.6552,0.1232,0.3516,-0.2969
1164,-0.01,-0.0809,9.7194,-0.4194,-0.4945,0.5715,31.5459,-12.5107,39.7999,-1.639,-1.8422,1.5337,0.1535,-2.0192,0.5965
1175,-0.2933,-0.0308,9.9236,-0.7526,0.6578,0.1518,30.6527,-10.8366,41.5992,0.759,1.7629,0.1126,-1.4224,-0.8989,-1.0527
1197,0.0245,-0.0895,9.7701,-0.29,-0.2786,1.1158,31.275,-9.9958,41.1604,-0.8966,0.666,0.1464,0.2328,1.3219,-1.5445
1207,-0.0693,-0.1102,9.6907,0.4445,-0.0032,0.5868,29.2744,-9.2756,41.0,1.3827,-0.8496,0.4616,-0.1489,-0.1726,1.3822
1219,0.0702,-0.1058,9.868,-0.5428,-0.2246,-0.5358,27.0181,-10.3454,40.3191,0.8351,0.0683,-0.4111,1.8124,0.8095,-0.2398
1230,0.0447,-0.0379,9.849,-0.1634,0.4246,-0.5354,30.4983,-9.9067,41.2025,0.2872,-1.4821,-0.6468,1.0843,1.469,-0.1945
1241,0.0838,-0.0441,9.8209,-0.0608,-0.1778,0.6863,31.4321,-9.5094,39.6513,0.1584,0.1212,-0.3187,0.8328,-1.3589,0.45
1251,-0.0013,0.1635,9.7794,0.5555,0.1872,-0.3391,31.0113,-9.13,40.483,0.8309,-0.7384,0.6481,1.2637,-0.866,1.2581
1262,0.0445,0.0492,9.7264,0.1938,0.0085,0.3824,28.1532,-9.7356,39.4291,-0.1392,0.3873,-1.1849,-0.0685,-0.2209,-0.6887
1272,-0.0739,0.1144,9.8333,-0.2217,0.2395,0.3866,30.9864,-9.4868,41.6009,0.4476,-0.6666,-1.1938,-1.1534,-0.2438,1.3665
1283,-0.1111,-0.1744,9.8711,0.0781,0.6792,0.5516,28.2844,-8.6059,41.2729,-0.4816,-0.0278,-1.8758,-0.8356,0.7603,0.6447
1293,-0.0795,0.1638,9.7981,0.0988,0.8568,0.0797,28.7437,-10.2359,41.4555,0.605,-0.6413,0.5691,-0.7158,0.3007,-0.1837
1312,0.0715,0.0209,9.7247,-0.156,0.6922,-0.0221,29.5289,-10.4789,39.2,0.0185,0.6533,-1.0452,-0.4353,1.3106,-1.8103
1323,-0.1099,0.1484,9.7177,0.4992,0.3605,-0.2944,28.9415,-9.9062,39.0875,0.423,0.0407,1.2159,-1.2727,0.4754,0.8071
1333,-0.1029,-0.0994,9.8367,0.0912,0.0426,0.0628,32.9747,-9.0684,41.6646,-0.4134,3.181,0.8488,0.1703,-0.1126,2.7471
1344,0.0029,0.1005,9.8094,-0.2251,-0.2478,-0.0727,31.0063,-9.615,39.7617,1.3175,0.8113,0.4627,-0.0147,-0.2048,-0.7263
1354,-0.0462,0.0177,9.7988,0.1198,-0.3582,0.711,29.5689,-8.9431,41.1647,-0.6753,-1.3509,-0.8673,1.1453,-0.5184,3.7352
1365,0.0458,0.0119,9.7429,0.2384,-0.4999,-0.9198,30.3502,-10.4618,40.1405,-1.4113,0.9255,-1.98,-0.2969,1.8606,0.3961
1375,0.0401,0.1705,9.8533,0.3471,-0.5188,0.242,29.2003,-8.8732,40.855,0.2143,0.2584,0.761,0.7203,0.3172,0.7958
1386,-0.019,-0.0618,9.7355,-0.9173,0.4945,0.6282,28.555,-8.4478,40.4447,0.825,-0.0619,2.3735,-1.5266,0.3018,0.5142
1396,0.0655,-0.0157,9.8392,0.2532,-0.2812,0.1256,30.3375,-10.4068,40.6252,0.3732,-0.012,-0.9981,-0.5002,-1.0848,-1.2454
1407,-0.0829,-0.0328,9.8347,-0.1218,0.2875,-0.1527,30.205,-10.7333,39.163,-2.0039,0.2405,-1.2045,1.9805,-1.0347,-1.0517
1417,-0.005,0.1095,9.8626,-0.5781,0.1238,-0.1596,30.6034,-10.1806,39.8429,-0.5731,0.5049,-2.486,-0.4706,0.062,1.027
1433,0.101,0.0643,9.8195,0.8211,-0.3653,0.3571,30.5548,-9.7898,38.0367,-0.4015,-0.9359,0.3621,0.4861,-0.4998,0.3101
1444,-0.0544,-0.0316,9.7614,0.3713,-0.6599,0.111,29.9628,-10.4422,39.3051,0.3367,0.5782,1.2151,-1.3198,-0.1878,-0.2013
1454,-0.0629,0.0934,9.8619,-0.3159,-0.3251,1.4394,30.6295,-9.3124,40.6295,-0.7265,0.217,0.3081,1.6132,1.85,-0.1794
1465,0.0138,-0.033,9.8627,-0.4121,0.0671,0.3649,29.7949,-10.5,40.988,-0.553,-0.8593,-0.1858,-1.4552,-1.459,-0.2063
1477,-0.0452,-0.0678,9.7057,-0.3476,0.5238,-0.383,29.2588,-11.6601,40.0908,0.5343,-1.025,0.6503,0.3284,0.26,-0.2744
1489,-0.0594,-0.1486,9.8162,-0.4361,0.1313,-0.2581,30.1435,-10.4078,39.8226,0.303,1.6912,2.8448,-1.3876,-0.6094,0.1369
1499,-0.0438,-0.0793,9.8413,0.1866,0.0638,-0.061,30.8249,-10.0752,38.626,-0.3501,-0.615,-1.4566,0.0501,-0.2635,1.9043
1510,0.0497,0.1252,9.7418,-0.6039,0.5992,-0.5638,30.5066,-11.1915,40.0738,-1.3909,0.1283,-0.4284,0.6874,0.3919,-0.8711
1520,-0.0382,-0.0217,9.815,-0.1942,-0.3186,-0.3177,30.7911,-9.078,39.2167,2.6508,1.2947,-0.0304,-1.85,1.4101,-1.1109
1530,-0.0285,0.0046,9.8232,-0.2326,0.3218,0.2641,27.9785,-10.1646,37.9625,-0.3604,0.1541,-0.622,0.7823,0.8741,0.4295
1540,0.1607,-0.016,9.738,-1.0053,0.0856,0.6005,29.8396,-10.3872,38.7102,-2.0174,-2.6184,0.2115,0.7538,1.5719,0.2554
1551,0.0223,-0.0009,9.9123,-0.7609,-0.4072,0.6444,28.9189,-10.2727,40.7125,-0.3606,-0.2537,0.1565,0.4968,-1.292,-0.3522
1565,0.1824,0.0429,9.7483,-0.3787,0.08,0.1059,29.8863,-9.755,41.8222,1.8874,-0.7123,1.0074,-0.1786,-1.7741,0.7579
1578,0.0237,0.0778,9.842,1.0597,-0.3075,-0.841,31.1267,-10.6378,39.5004,0.8284,-0.0775,-1.6693,0.5248,-0.7877,-0.0556
1588,0.0169,0.0289,9.8415,-1.7364,0.6803,-0.4969,28.4845,-10.0002,38.5658,2.6604,1.1286,0.8041,0.4179,-1.0353,-0.8916
1600,-0.0012,-0.1755,9.7447,0.0252,0.4995,0.6352,30.1298,-10.1992,40.2327,0.9976,-0.2051,0.055,0.5719,0.856,-0.1264
1612,-0.08,-0.1929,9.8586,0.4861,0.0926,-0.3143,30.04,-11.047,40.0666,-1.0319,0.6184,-0.7668,-1.3315,-1.5988,-0.1256
1623,0.077,0.0196,9.8582,0.4593,0.5702,-0.0749,29.8927,-10.7686,37.8677,-0.2373,0.4485,0.5327,0.1718,-0.055,0.2787
1633,-0.195,0.0759,9.7901,-0.4123,0.0946,0.0461,29.5473,-10.0046,40.4297,0.1664,-2.246,0.4156,-2.3704,-0.4847,-0.118
1644,0.0131,0.1679,9.8735,-0.4801,-0.1439,0.0013,30.8828,-10.2942,40.7081,0.1432,-1.3815,-0.9097,-0.1105,-0.4783,0.0441
1654,-0.024,-0.0603,9.7733,0.102,-0.2645,-1.0659,29.8129,-12.4287,38.6104,-0.0242,-0.2066,0.019,1.5828,0.3008,0.4303
1665,-0.1655,0.0616,9.7818,0.5857,-0.4353,-0.6658,32.1334,-9.5444,39.2032,-1.0138,1.4524,-0.2928,0.2639,-0.5622,-0.2776
1683,0.0016,-0.0652,9.8032,-0.0425,0.2646,0.3942,30.1778,-10.147,39.1351,0.9197,-0.0659,-0.8384,1.456,1.079,-0.7224
1696,-0.0792,0.0687,9.8388,0.2845,0.7508,-0.6579,31.2659,-11.2996,40.3959,0.5823,0.1404,-0.5548,1.1642,-0.5128,-0.616
1707,0.1615,-0.0867,9.7787,-0.7882,0.068,0.8651,29.1247,-10.2174,39.9694,0.3567,0.2684,-0.1267,-0.8484,-0.9337,-0.3497
1717,-0.095,0.0223,9.8184,0.6,-0.0262,0.7482,29.6247,-8.9531,39.4513,-0.0738,-0.1618,2.1656,-0.5023,-1.6576,0.0855
1728,-0.0938,0.0319,9.7839,-0.3084,-0.2396,-0.8543,29.184,-9.9727,39.2702,-0.5891,-0.3316,-1.1636,-0.5843,-0.6517,0.1303
1738,0.0849,-0.0423,9.7434,-0.3455,-0.267,-0.1756,28.8263,-11.0354,39.5945,0.9471,-1.2622,1.1574,-0.9412,1.114,-0.0697
1750,0.0661,0.0606,9.7893,-0.4213,0.4585,0.3,28.6205,-11.4679,40.4613,-1.5805,0.9002,0.8548,1.2068,-1.1198,-1.6245
1760,-0.0782,0.0101,9.7805,0.1277,0.2933,-0.4204,31.7732,-10.4599,39.7617,-0.7582,-1.131,0.4465,0.9855,0.2789,-0.3405
1771,-0.1707,-0.0658,9.7768,0.7741,-0.1509,-0.0182,31.0126,-10.0626,39.2012,0.8419,-2.1771,-0.2057,-0.73,0.5116,1.8382
1781,-0.1754,-0.188,9.7875,0.9792,-0.3124,-0.3131,29.5247,-9.937,40.899,-0.2984,-2.2021,-0.3264,0.2405,0.2599,-0.1312
1791,-0.0816,0.0618,9.7516,-0.2477,-0.0503,-0.0052,30.7003,-9.9388,38.3332,-1.2297,-0.2808,0.4256,-0.9437,1.1909,-1.4206
1810,-0.1276,0.1623,9.8125,0.4699,0.707,0.2444,30.0363,-11.8108,41.0386,-1.332,-0.1346,2.0679,0.5161,-1.3209,0.5004
1820,0.041,0.063,9.7982,0.2812,0.4112,-0.6581,27.9756,-10.8546,38.5463,0.163,-0.7868,2.2366,0.1922,-1.4065,0.0125
1831,-0.0334,-0.0954,9.7867,-0.6459,0.3515,-0.324,29.8208,-9.4882,39.2531,-0.2185,-0.5666,0.555,1.4711,1.0208,0.501
1841,-0.0504,0.0374,9.7637,0.1047,-0.1332,-0.0957,28.1307,-11.8234,41.2331,1.2298,1.2728,2.0569,0.1459,0.1162,-0.0474
1853,-0.0745,0.099,9.7837,-0.7985,-0.49,0.0595,29.2193,-9.28,39.5945,-0.5909,-0.0381,-1.6315,-0.5124,0.5993,-0.4643
1864,0.0765,0.0345,9.711,0.6419,-0.6466,-0.5262,29.8803,-12.8875,40.0157,0.9607,0.7053,-2.3771,0.7852,0.4592,0.3348
1875,-0.0211,0.1366,9.8319,-0.4791,0.1201,-0.3794,28.9632,-9.6256,39.6293,-1.7081,1.8755,-0.6978,0.1749,-0.5548,1.0251
1885,0.1114,-0.0866,9.8435,0.946,0.8152,0.3264,30.1244,-9.6404,40.2747,-0.2295,-0.6026,-0.5845,0.049,1.3749,-0.3072
1897,-0.1342,-0.1141,9.815,-0.9989,-0.7394,-0.4509,31.3488,-9.6331,41.6856,-0.9434,0.6308,1.8166,-0.7816,1.0709,0.4875
1908,-0.1571,0.1473,9.7654,-0.1321,-0.0289,-0.6527,28.2321,-9.7281,37.7643,1.5412,1.2827,0.6801,0.3617,0.422,0.0083
1925,-0.1511,-0.1863,9.8737,1.0889,0.0938,-0.8488,31.2061,-8.6862,41.4249,0.5289,0.4993,0.1931,-0.8591,1.6003,-1.3793
1935,0.0302,0.1474,9.8319,-0.5957,-0.4865,-0.3959,31.9786,-9.2818,39.8922,0.9279,1.2224,-0.2248,-0.5147,-1.3119,0.9555
1946,-0.0747,-0.1117,9.8171,0.3005,-0.0299,-0.5081,30.5681,-8.3608,39.6178,-0.9823,1.0752,0.5723,1.0806,-0.1857,0.295
1956,0.0749,0.021,9.8295,-0.0983,0.5193,0.0649,30.1517,-9.9757,40.5474,-0.2456,0.8296,-2.1261,-0.7558,0.9806,2.082
1967,-0.1481,0.0071,9.867,-0.3877,0.9758,-0.4817,29.5454,-10.585,39.7647,0.0753,1.725,-1.2106,0.6337,-0.4285,-0.9107
1979,0.0153,0.0839,9.764,0.2382,-0.306,0.4343,28.9454,-8.2319,39.9421,-0.322,0.6286,-0.6158,0.4471,-0.2924,0.8691
1990,-0.0858,-0.0213,9.8291,-0.2149,-0.4487,0.6885,30.1717,-10.595,40.7318,1.1634,0.5584,-1.1841,1.2451,-0.3807,1.0418
2001,0.0326,0.0381,9.8158,0.6278,0.0309,0.8364,30.2854,-10.3408,39.971,1.3542,-0.4384,0.621,0.0451,-0.8806,-1.3148
2011,0.0502,-0.1794,9.9323,-0.3269,-0.7099,0.4972,29.0584,-10.4974,42.0182,0.6862,-0.1514,-0.0045,1.1333,-0.2104,-0.635
2021,-0.1224,0.0518,9.8241,0.1914,0.0796,0.4726,28.7617,-8.4544,40.1832,-1.2003,0.8235,-0.2627,1.2037,-0.8033,0.945
2042,-0.0621,-0.0154,9.7439,-0.0136,0.0753,0.8443,31.8843,-10.5944,39.8849,-1.0164,-0.5035,0.8439,-1.521,1.1348,-1.2331
2053,-0.094,0.1715,9.854,-0.392,-0.2254,-0.8596,30.9667,-9.7112,39.3474,-0.2676,1.0115,1.1003,0.8422,0.2084,-0.8735
2067,0.0566,-0.1677,9.8502,-0.0838,-0.8635,-0.0596,29.9062,-10.29,40.4811,-0.8382,-1.2095,1.0589,-1.3067,2.3952,0.4113
2080,-0.0208,-0.183,9.7747,0.6124,0.2637,-0.0325,29.5803,-11.1399,40.1764,0.6874,0.9824,-0.1134,-1.0852,0.8793,-0.6425
2091,-0.0502,-0.0816,9.7832,1.0047,-0.7762,-1.1424,31.0772,-10.24,40.9715,-2.0324,0.691,-0.7115,-1.0093,-0.5296,-0.1482
2101,-0.0918,0.1699,9.7843,0.0071,0.1685,-0.2032,27.8392,-10.3695,39.8954,-1.5081,0.2109,-0.1039,-0.8671,0.1465,0.5972
2112,0.0933,-0.0809,9.727,-1.1235,-0.7539,0.3216,29.9746,-10.053,40.208,-0.1456,1.283,0.9699,0.043,-1.0537,-1.1588
2122,-0.0372,-0.0168,9.7839,-0.6285,0.2938,0.3572,29.8646,-9.5884,38.1566,1.7071,0.7453,0.5586,-1.7512,-1.6137,0.9271
2133,0.0513,-0.1619,9.776,-0.5256,0.139,-0.4079,29.2478,-10.6938,40.0076,1.7377,1.1065,-1.275,-1.6232,0.7575,0.4774
2147,0.1349,-0.1099,9.8101,-0.4918,-0.6829,-0.4646,32.6048,-11.2646,40.6382,2.3616,-0.1289,-1.2389,-0.3571,0.7722,2.067
2161,-0.1504,-0.0939,9.793,-0.4538,0.7171,0.4965,29.8336,-10.7146,40.4846,-0.4174,0.0938,0.0791,1.0505,0.4702,-0.1746
2171,0.132,0.0738,9.6838,-0.2174,-0.2773,-0.0953,30.8302,-9.7517,40.0729,-0.4691,0.0774,-0.2117,0.8726,-0.0234,1.6761
2182,0.0405,-0.0015,9.7808,0.2378,-0.3854,0.0883,30.1661,-8.0895,39.8259,0.9393,0.5154,-1.9508,-1.1697,0.2453,0.2096
2194,-0.0935,0.0664,9.9019,0.3488,-0.6212,-0.1156,32.0925,-8.7385,38.6759,0.3767,0.6874,0.2119,0.4323,3.1894,1.2649
2204,0.0519,0.2077,9.8628,-0.6497,0.2856,-0.6665,30.0995,-9.768,39.3504,-0.1128,0.038,0.6291,1.4891,-1.2287,1.072
2222,0.0497,0.1574,9.8452,1.1173,0.1471,-0.4311,29.1735,-10.3248,39.1033,-0.6084,0.3896,-0.0712,-1.3874,0.879,-2.0032
2236,-0.0131,0.046,9.7552,0.1027,0.1764,0.1819,30.1183,-10.4417,42.542,1.3296,0.2413,-1.0483,-1.5309,1.1968,-1.024
2246,-0.1093,0.0135,9.7606,-0.7972,-0.2719,0.1313,28.2843,-8.8219,40.9728,0.837,1.6233,-0.8228,0.9899,-2.0615,-1.5758
2257,0.0473,-0.0702,9.7776,0.9024,-0.3893,1.2042,30.1997,-10.3943,40.878,0.962,-0.4271,-0.0367,-1.0555,0.0337,2.1164
2269,0.0501,0.1345,9.7125,-0.0484,-0.847,-0.0256,29.4606,-10.3024,39.2206,1.7053,-1.6177,-0.129,-0.9153,0.5859,3.1177
2280,-0.0609,0.097,9.8029,-1.215,-0.8945,-0.1405,28.7304,-9.6127,39.8401,-0.0062,0.6951,1.4462,1.6402,1.6194,0.9184
2290,-0.0614,0.0849,9.8736,-0.2952,0.2762,-0.6284,29.632,-9.7781,36.6362,0.3297,-0.2137,0.1117,0.2781,0.526,0.0914
2300,-0.031,-0.0236,9.7982,0.6704,0.5003,-0.153,28.3399,-9.9694,42.0416,1.3746,-0.9678,0.3759,-0.6906,-0.2889,-0.7651
2311,-0.081,-0.0144,9.8479,-0.5679,0.2451,0.4136,29.4724,-9.0852,40.7643,0.7704,-1.2279,-0.4408,-1.8099,0.3483,1.2928
2321,0.0695,0.0095,9.8737,-0.6925,0.1557,0.7736,29.5775,-10.8124,40.3014,-0.9219,0.5877,1.1225,-0.5826,0.7725,-0.423
2340,0.0223,-0.099,9.8334,-0.1593,0.5555,0.323,29.4242,-8.5877,39.916,-0.5568,-0.3351,-0.8873,-1.5478,0.2367,0.5864
2350,0.173,0.0956,9.7905,0.2299,0.2708,-0.0467,29.7351,-10.1192,41.2675,-1.3546,0.1415,0.9573,0.0231,1.2423,-1.7906
2360,-0.0354,0.1459,9.7855,-0.1863,-0.3675,0.4562,29.8426,-9.7299,39.7895,-0.806,0.7807,0.5511,0.779,0.6654,-0.7218
2373,-0.1706,0.1403,9.7145,-0.6642,0.1718,-0.0687,30.5852,-11.0846,38.7437,-0.0747,0.6677,-0.827,-2.0483,1.0712,1.3469
2384,0.015,-0.0852,9.6879,0.1927,-0.3347,0.5852,30.3214,-8.8866,39.264,-0.0513,-0.2807,-0.2702,0.3717,-0.9668,0.1837
2394,0.05,0.0078,9.7626,-0.7889,-0.7699,0.4509,28.01,-9.2936,40.9527,0.8435,-0.1848,2.2208,-1.0442,2.6731,0.5506
2405,0.0138,0.076,9.7504,-0.6194,0.3736,0.3091,32.2299,-11.1815,39.5487,-0.7084,-0.1912,0.5946,0.403,-1.4475,0.7047
2415,0.0315,0.1771,9.8902,-0.4781,-0.4291,-0.2643,28.9725,-10.805,40.0624,0.0331,-0.4091,-1.3822,-0.4621,-1.0208,-0.2742
2426,-0.1417,-0.0127,9.8293,0.0657,-0.3057,-0.106,28.1074,-11.4949,40.5282,-1.2057,-0.3876,1.3159,-0.0646,0.2655,1.3473
2436,0.0002,0.0405,9.7096,-0.4764,-0.7554,0.1228,31.2755,-10.4125,39.1087,0.3011,0.907,1.6635,0.4788,0.0348,0.2973
2448,0.0633,-0.0542,9.7541,0.0913,0.5699,-0.5406,29.407,-8.6906,39.2502,0.0347,-0.4809,0.8737,1.2728,0.1263,-1.4394
2459,-0.0676,-0.0184,9.7263,0.6257,-0.3443,0.2725,30.8768,-10.417,42.1365,0.4067,0.593,-0.962,-1.4419,-0.8948,3.2128
2470,0.0013,-0.032,9.7131,0.0102,0.9649,-0.7019,28.4032,-10.4121,39.3957,1.7708,-0.0667,1.062,1.4515,0.3094,0.0032
2480,0.1139,-0.0932,9.804,-0.516,-0.8794,-0.1848,29.7851,-10.2012,39.8427,0.4437,-0.6665,0.6285,-0.2786,-0.266,-0.6316
2490,-0.0736,0.0771,9.7981,-0.243,0.7405,1.3268,30.3028,-10.1119,40.753,-0.419,0.6464,-1.847,-0.1185,-0.8674,0.0843
2501,0.1471,-0.2358,9.7092,-0.1183,-0.2143,0.1267,30.237,-9.2203,39.1565,0.8161,1.9672,0.6458,0.1411,-0.56,1.7358
2523,-0.1265,-0.0566,9.852,0.2652,-0.1769,-0.0547,27.8394,-10.4661,40.0595,2.2607,0.8047,-1.3481,0.468,0.8016,-0.4138
2537,-0.1069,-0.1174,9.8959,-0.1301,-0.2131,-0.1617,29.3111,-8.1291,39.8429,0.0156,-0.0814,-0.0493,0.7885,-1.2074,0.7813
2547,-0.0237,0.1543,9.8468,-0.6495,-1.0325,0.0807,30.5804,-9.6229,40.1684,-0.0858,0.3149,-1.4585,2.1172,0.799,0.0664
2558,-0.0534,-0.0109,9.8062,0.2149,-0.1306,0.291,30.6775,-10.9735,41.6013,0.507,-0.3995,-0.5882,-2.7223,-0.4471,-0.9508
2570,0.0434,0.0139,9.755,-0.1782,-0.6947,0.8224,31.3365,-10.6873,40.4772,-0.7869,1.1086,-0.8324,-0.0487,0.5112,-1.7489
2580,0.0281,-0.0414,9.9238,-0.3175,-0.2706,0.1484,31.2552,-8.8787,41.3466,0.7568,0.5953,-0.3577,0.5508,0.2164,0.7361
2590,-0.0018,-0.0379,9.785,0.1724,-0.4789,0.7204,30.9883,-9.9123,40.2412,-0.7559,-0.1132,-0.2991,0.4467,-0.3104,-0.2535
2601,-0.2433,0.0645,9.8615,0.3886,-0.694,-0.7924,28.941,-9.8474,39.8773,0.6185,-0.1597,0.8135,0.2252,0.9798,-0.9489
2611,-0.0236,-0.1685,9.7783,-0.4208,0.6044,0.6063,29.4798,-10.7302,40.8071,-0.839,1.4377,-0.3094,-1.1616,1.3481,0.5726
2622,0.0343,-0.1196,9.8741,-0.7084,-0.0417,-0.5739,32.2016,-11.0493,41.8437,0.693,-0.6906,-1.1376,0.0909,3.5551,-0.5139
2636,0.0622,-0.0137,9.8121,0.5023,-0.2407,0.7396,30.5922,-8.6541,38.6459,1.3456,-0.4538,-0.6243,1.0286,0.1505,-1.5109
2647,-0.0403,-0.0641,9.8003,-0.6527,-0.0905,0.162,30.4625,-9.6885,42.1802,-0.5669,-0.1967,-1.9064,2.4021,2.2487,0.4094
2657,0.0484,0.1106,9.8101,-0.6344,0.0113,-0.4168,30.1102,-9.0671,39.165,0.5005,2.6312,0.1982,-0.092,0.7442,1.2868
2668,0.0129,-0.0945,9.8259,-0.2218,0.9369,0.7473,30.7546,-10.8145,41.0659,0.9663,-0.8252,-0.1092,0.8503,0.3712,1.0255
2679,0.1506,-0.1022,9.7552,-0.1756,0.2064,0.7312,30.362,-10.6827,39.9798,0.6848,-0.6103,0.9563,-0.3111,0.5889,-2.0309
2690,-0.019,0.1681,9.8543,0.1521,0.8701,0.5204,31.4327,-11.0892,41.8824,-0.3658,0.581,0.9323,0.4547,-0.6761,0.8652
2700,0.3644,-0.1069,9.8651,0.4251,-0.3181,-0.0155,29.2087,-10.7183,40.7901,-0.108,0.3398,-0.5346,0.5485,-1.1503,0.1688
2710,-0.0677,0.0378,9.809,-0.1502,-0.4725,0.405,28.3593,-11.0874,38.3337,-0.9086,-0.7296,2.0203,1.4184,0.0563,-0.4581
2721,0.015,0.0198,9.8383,-0.4308,0.3941,-0.6487,29.2317,-8.3292,40.8796,-0.4399,1.9934,-1.9855,-1.5484,2.2826,1.7111
2731,-0.0017,0.0006,9.7847,0.2605,-0.0828,-1.0741,28.6336,-11.2748,40.82,0.2685,-0.1346,1.3018,0.7202,1.8108,-1.6351
2741,-0.0751,0.0354,9.7688,0.3029,0.281,-0.2342,30.8219,-9.5234,41.0046,-0.008,-0.3786,1.5935,-0.867,-0.391,-0.7022
2758,0.0731,0.2313,9.8211,0.4509,0.0008,-0.6569,29.4118,-9.3353,41.0507,-0.7424,-2.3396,-1.6055,-0.3253,-1.6922,0.2509
2768,-0.0139,-0.0312,9.843,0.3187,0.6027,0.4908,31.0496,-10.1473,40.8518,-0.7255,0.0951,0.8455,0.9147,-0.5565,-0.731
2780,-0.0466,0.1856,9.8561,-0.2397,-0.0294,-0.1374,28.2617,-10.1157,40.3052,-1.3728,-0.0326,-0.505,-1.1738,-0.4635,1.8433
2792,-0.0717,0.0244,9.7667,0.1698,-0.8045,-0.419,30.6591,-9.2962,40.9142,-0.5714,-1.6051,-0.772,1.901,-1.3377,0.3066
2802,-0.0766,0.0004,9.7647,0.1425,0.781,0.0351,29.3241,-9.2825,39.3088,0.6645,-0.9952,-1.5437,-0.6399,1.3378,-0.3218
2814,-0.0912,0.0898,9.7516,-0.6663,0.3947,0.6014,28.4579,-8.4374,39.8174,0.7178,-1.1528,1.0536,-0.4853,-0.0292,-0.6674
2825,-0.0905,0.0636,9.7998,0.1349,0.6416,0.5044,28.8751,-10.5722,38.6602,-0.1611,-1.1888,-0.8834,-0.1304,0.4249,-0.7058
2835,-0.0277,-0.0064,9.8786,-1.1053,-0.0238,0.5051,30.5482,-10.4383,40.7876,1.3528,0.062,-0.2289,-0.2528,2.4311,0.6778
2845,-0.0384,-0.0062,9.7813,-0.465,-0.7294,0.2694,29.8135,-8.7245,39.9684,0.0705,-1.4352,0.4081,0.3596,0.7535,-1.1064
2856,-0.0015,0.0418,9.7653,0.0023,0.7868,-0.5363,31.0411,-11.5333,40.5607,0.4037,-2.2291,-0.8829,-0.477,0.8513,2.6209
2876,0.1295,-0.1883,9.7822,0.0019,-0.2775,-0.0764,30.0997,-10.7707,38.9364,-1.5278,1.7486,3.3853,1.3551,-0.6025,-0.4769
2889,0.0051,-0.0617,9.7704,-0.5451,0.1236,-0.2449,30.1236,-9.4906,39.4115,-0.5155,-0.197,-1.1665,0.6628,0.3139,0.6191
2899,0.0884,0.1392,9.8465,-0.0951,0.3346,0.0928,30.2,-9.0534,41.1168,-1.5742,0.9244,-1.3145,-0.6941,0.5918,1.4831
2911,0.0588,0.1448,9.7718,-0.0885,-0.3903,-0.0027,29.8316,-10.662,40.5147,0.4568,0.1104,-0.1662,-0.4152,0.8968,1.3126
2921,-0.0852,0.2089,9.7591,-0.544,-0.0071,-1.0368,31.2465,-10.6737,40.3094,-0.845,1.688,-1.9272,-0.2524,1.0092,-1.1087
2932,-0.082,0.1195,9.7277,-0.1897,-0.2937,-0.5547,30.4932,-9.5634,42.197,0.0849,-2.7377,1.0596,1.2123,2.1622,-0.6856
2942,0.0832,0.1241,9.8055,-0.1806,-0.4183,-1.1682,29.0537,-9.8028,42.5464,0.3308,-1.0802,-1.1813,1.3148,-0.7379,-0.4774
2952,0.0411,0.0187,9.7718,-0.8722,0.5182,0.4077,28.3443,-9.9228,39.9683,-1.0626,-0.4281,-1.2076,0.4209,1.1854,0.9151
2963,-0.0383,-0.0012,9.8898,-0.0543,0.2745,-0.091,30.2646,-8.739,40.724,-0.4119,0.7381,1.2851,2.8824,-0.5597,1.0803
2973,-0.0552,0.0797,9.8694,0.8082,0.0805,-0.3845,31.8101,-9.9732,41.1294,-0.391,2.9693,-0.8216,1.4704,1.0714,-0.079
2984,-0.0051,-0.0412,9.8738,1.3574,-1.4504,0.6746,28.5262,-10.868,39.4097,0.0755,-3.8064,0.3025,-0.67,1.5387,-1.51
2997,-0.0114,-0.0105,9.7683,0.1902,0.1299,0.2578,29.9948,-9.0197,39.5361,-1.1005,0.0282,-0.1464,1.2008,2.185,-0.8102
3008,0.1832,-0.058,9.7541,-0.0486,0.0958,-0.3223,29.9082,-9.2635,40.7037,-1.2172,-1.3429,0.5053,-2.0317,-1.0894,-1.0906
3020,0.0252,0.0082,9.654,0.5909,-0.5553,-0.5749,30.2637,-10.1899,38.1694,-0.4428,2.9108,-1.5217,1.9755,0.1379,1.3951
3030,0.0067,-0.002,9.7195,0.4262,0.3053,0.4297,30.0382,-11.3953,41.5772,-1.0692,0.3391,1.6035,0.9963,1.488,-1.505
3041,-0.1607,-0.1549,9.7587,-0.0703,0.5047,0.2619,31.7006,-9.2407,40.9231,0.3318,0.159,0.4728,2.1812,-0.2955,1.2931
3051,-0.0529,-0.131,9.7007,-0.3465,-0.4226,0.4498,30.9127,-10.2759,40.6514,-0.8586,-0.7273,-1.6127,-1.0866,-1.7567,2.402
3065,0.0216,-0.1585,9.8163,-0.2808,-0.2006,0.6381,30.4473,-7.9193,38.9452,-0.7994,-0.9292,0.1464,0.9195,-0.4143,0.915
3076,0.2573,0.0424,9.8158,-0.0944,-0.7772,-0.0211,30.6511,-10.4085,39.8741,-0.1678,-1.0415,-0.7831,0.4819,1.2981,-0.1975
3086,-0.1875,0.1986,9.7687,2.0768,0.0966,-0.2232,30.7665,-11.1805,39.7385,1.4456,-0.3989,1.8131,0.9766,0.5648,0.0485
3098,-0.0091,-0.0753,9.8366,-0.2692,-0.3005,-0.1229,31.844,-10.0488,40.6701,1.1178,-1.5684,-0.7654,0.3917,-0.7752,0.0214
3108,0.0115,0.0106,9.7997,-1.3123,-0.3054,0.0951,29.2961,-9.0906,39.5092,1.3084,0.212,-0.4884,0.4871,-0.8369,-0.2181
3119,-0.0323,0.016,9.7833,0.0983,-0.5531,0.0126,29.9874,-9.3972,43.0236,-0.1937,1.2363,-0.2022,0.5738,1.0456,-0.7867
3129,0.2044,0.0435,9.687,-0.0403,0.4393,0.2667,29.5521,-11.0658,39.7868,-1.1398,-0.4734,1.1709,-1.1699,-0.4502,-1.9509
3140,-0.0608,0.0201,9.7562,0.0338,-0.5383,-0.1514,30.4617,-8.3789,38.9219,0.8826,-0.4224,0.0427,-0.2818,0.4337,-1.8271
3150,0.0026,0.0105,9.8598,0.2169,0.8021,-0.7523,28.42,-9.8649,40.1796,0.5788,0.2905,1.0792,-2.0128,1.814,0.8595
3161,0.0631,-0.0995,9.7648,-0.8636,0.4641,-0.3101,31.5722,-9.304,39.3345,-1.5458,-0.9113,0.6506,0.767,-0.1287,0.2162
3171,0.253,0.0042,9.8234,0.6322,-0.2272,0.2884,29.4939,-11.7712,40.5635,-1.5437,-0.1604,-0.8209,-0.9041,0.9212,1.0508
3183,0.1988,-0.0382,9.8684,0.0383,-0.1563,-0.494,30.8211,-10.2487,41.4609,-0.7666,1.9877,-1.4146,0.2898,0.7479,1.0287
3198,-0.0028,-0.1243,9.7566,0.2074,-0.5641,-0.2077,31.2481,-11.1219,41.1516,-0.6825,-0.8595,-0.6919,1.6703,-2.1096,0.3339
3209,0.0236,-0.005,9.8412,0.0017,-0.4493,-0.5108,30.8224,-11.2559,39.0823,-0.3845,0.6026,-0.6956,0.0476,-0.2993,1.7753
3221,-0.0352,-0.0645,9.7771,0.0196,-0.1172,1.0354,29.645,-9.3203,40.5667,1.7009,-1.0267,1.9168,-0.1444,-0.4485,0.6977
3231,0.0021,-0.0461,9.8457,0.2301,-0.505,-0.4562,30.3631,-9.8081,40.8163,0.1808,1.5005,-0.5032,0.3305,-1.0289,0.1145
3242,-0.0066,-0.021,9.7297,-0.1596,-0.4193,0.5829,30.1714,-10.4299,39.7224,0.3551,-0.7581,-0.7016,0.453,0.0259,0.2733
3252,-0.1223,0.0407,9.791,0.206,0.664,0.1273,30.5854,-9.1139,40.3934,0.3651,0.924,0.7762,0.364,0.4865,-1.0353
3263,0.0815,-0.189,9.7696,0.2751,-0.2841,-0.2433,29.6314,-8.3315,41.2754,-1.9671,-0.8724,-0.5922,0.8118,1.5876,1.6715
3273,0.1436,0.1043,9.7781,0.8257,-0.8129,-0.2176,31.3956,-9.3039,39.8336,-0.4983,0.6671,-0.168,0.874,-0.1213,-1.2266
3284,0.015,-0.1438,9.7447,-0.0964,-0.5594,-0.0691,28.453,-9.4184,41.2385,1.129,0.9357,0.9072,-0.488,-0.2613,1.3687
3303,0.0379,0.0868,9.8744,-0.1389,-0.349,0.3248,29.0815,-7.9466,41.4585,-0.2914,0.8107,-2.2332,0.3138,0.341,-0.421
3313,-0.0669,-0.0834,9.768,-0.2742,0.0752,0.0733,30.5357,-10.0912,40.9404,-0.2355,-0.7688,1.2181,-1.1792,-1.8199,1.4915
3328,-0.0331,-0.0406,9.8609,-0.0254,0.6343,0.4976,27.8408,-9.6869,39.3469,-0.3165,-0.5974,0.3564,-0.0565,-0.1021,-0.1828
3339,-0.0751,0.2371,9.7245,0.1945,0.3054,-0.4779,31.6424,-9.6661,39.7498,-0.0756,-0.2638,-0.0967,-1.0138,-0.049,0.1034
3351,-0.0324,0.1228,9.8702,0.1544,-0.5249,-0.5669,30.8146,-10.1153,39.1943,1.2775,-0.0738,2.4948,-0.266,-2.0504,-0.5439
3363,0.0643,0.0608,9.8563,-0.5058,-0.2456,0.1007,30.495,-9.4071,42.13,0.3773,-1.0139,-0.082,0.2735,-1.9116,-1.876
3374,-0.0179,-0.0344,9.8283,-0.5026,0.179,-0.331,30.7793,-11.5189,40.2466,-0.3671,-0.1834,-0.8641,1.2281,1.1925,-0.245
3384,-0.1228,0.0456,9.7916,0.3764,0.9025,-0.5887,29.4926,-10.7967,40.1515,0.6819,1.0882,0.3711,0.2285,1.2762,0.9647
3395,0.2077,-0.1496,9.7916,-0.2594,-0.0278,-0.0443,30.0154,-10.6637,38.5119,-0.6203,1.3978,-2.5116,-1.201,-0.8058,-2.3759
3405,-0.0154,0.0156,9.7942,0.9979,1.1087,0.1897,29.8102,-10.9004,40.7448,1.6981,-1.1947,-0.1814,0.2181,-0.1394,1.6629
3420,0.1992,0.0586,9.9058,-0.5087,0.5133,0.8156,30.0206,-10.1354,38.7598,1.0778,-0.6089,-0.0588,-2.303,-0.7701,0.2906
3432,0.1575,-0.1011,9.7382,0.2641,0.3074,0.4671,28.7842,-9.2789,41.4459,-1.3538,0.438,0.2845,0.3713,-0.01,-0.675
3445,-0.2247,-0.0846,9.7712,-0.4669,0.0323,-0.7197,29.6004,-8.8424,39.7424,-0.5136,-1.0208,1.0146,0.7023,0.0204,-0.0755
3456,-0.0108,-0.0014,9.8385,0.1332,-0.2595,-0.5789,31.6197,-9.064,38.8267,-0.6212,1.3126,-0.3948,-1.4425,-0.8135,0.157
3467,0.0572,0.1396,9.7547,0.1179,-0.2957,-0.1381,30.3022,-10.2718,39.0865,1.6799,-0.5547,0.0856,0.3638,0.3673,-0.0871
3477,0.1106,-0.2435,9.8269,0.1413,-0.1648,-0.669,28.9783,-9.3423,41.095,0.4123,-0.8246,0.4075,0.8445,0.6542,-0.3468
3488,-0.0881,-0.0277,9.8513,-0.5789,-0.14,-0.6643,29.2923,-9.8487,40.221,-1.3385,-0.0221,0.8639,0.9261,-2.1754,0.1287
3498,-0.0784,0.101,9.8135,-0.0131,-0.5134,0.3562,29.9622,-9.9536,40.2747,0.2361,-0.0408,0.8644,1.647,0.4734,-1.8882
3509,-0.0718,-0.1794,9.6979,0.0678,-0.391,-0.407,30.9508,-9.7333,40.362,-2.613,1.0528,0.7877,0.4853,-0.9729,-0.9372
3519,-0.1383,0.0329,9.7931,-0.384,0.1891,-0.9873,32.788,-9.973,39.3752,0.529,-0.3042,-2.8984,1.0462,2.8542,0.6199
3536,-0.0221,0.0172,9.8365,-0.3058,1.1573,-0.8719,30.338,-9.3445,39.9758,0.4145,-2.2078,-1.1154,0.2662,-0.0491,-0.2215
3547,0.0158,-0.0219,9.9013,-0.0151,-0.3454,-1.0673,29.0435,-7.8645,41.7171,-0.5123,2.1531,0.0866,0.4357,-0.2071,0.5635
3558,0.1395,-0.0978,9.8567,1.1258,1.0554,-0.3955,29.3499,-7.2251,41.1948,-0.1149,-0.9456,0.5832,-0.5585,-0.282,0.154
3569,0.2422,0.0955,9.7682,0.3711,-0.3879,0.3922,31.1862,-10.8226,40.6641,-0.2035,-1.6073,0.0463,-0.5005,-1.1562,-0.4703
3580,0.0444,0.1307,9.8681,0.9543,-0.4907,-0.7799,30.4016,-8.5535,39.9046,-1.0211,0.032,-0.808,-2.7691,1.2012,1.6355
3591,0.1014,0.0295,9.8507,-0.0087,0.3867,-0.6259,30.3872,-10.3712,38.0379,-0.8236,0.4506,-0.5734,-1.5399,-0.1188,-1.794
3602,-0.0116,0.023,9.8094,-0.2387,-0.3152,-0.1906,31.5427,-9.9778,38.5531,-1.0441,1.333,-0.7435,-0.1252,0.629,0.4838
3612,-0.022,-0.0231,9.9048,0.8919,-0.0438,-0.2681,31.3574,-10.5125,39.9326,0.0512,-0.0578,-0.878,-0.8332,-1.4578,-0.9587
3623,0.0203,-0.0274,9.8142,0.7127,0.3289,-0.1142,31.7928,-10.1728,40.4299,1.3201,1.9623,-1.0753,-0.0392,1.0965,0.2609
3633,0.0657,-0.0098,9.7741,0.0543,0.1113,0.3123,27.6264,-10.2829,40.5153,-0.336,0.4875,0.6929,-0.2205,-0.6504,-0.172
3651,0.0766,-0.0518,9.8212,-0.4102,-0.6914,-0.2538,30.475,-11.7232,39.2188,0.4798,-0.7817,1.1601,-0.2654,-0.2265,0.4401
3662,-0.0693,0.0092,9.9097,-0.6406,-0.7325,0.2355,31.459,-7.7173,38.8178,-0.1679,1.354,-0.5289,0.3278,-0.3129,-0.0938
3676,-0.0097,0.0906,9.8197,-0.5219,0.6014,-0.7741,31.2918,-10.0022,37.6997,-0.2837,0.0964,0.1136,1.5938,-3.3742,-0.619
3689,-0.0939,0.0435,9.7353,0.1863,0.5219,0.3589,30.3539,-8.2774,40.0836,1.8613,-0.2827,-1.8009,0.827,0.2144,-0.62
3699,0.0634,0.0869,9.8456,0.102,1.0617,1.0339,29.3236,-10.4425,40.7195,-1.3363,-1.9893,-0.8228,-1.7965,-0.156,0.6862
3710,0.0958,-0.0563,9.7816,0.411,-0.1092,-0.6846,30.3437,-9.845,40.5466,-0.3027,-0.6012,0.8826,-0.2076,-0.1243,0.1749
3720,0.0717,0.1577,9.8437,-0.3505,-0.2405,-0.1393,29.083,-11.1392,39.9582,2.4678,1.0408,-0.8525,-2.529,-0.9757,-0.9802
3731,-0.053,-0.2297,9.6909,0.4666,1.1394,0.5175,30.5901,-10.3135,39.2218,0.045,0.072,0.7782,-0.0759,0.9008,-1.3135
3741,0.0298,0.0563,9.8545,-0.6469,0.3812,1.1224,29.3827,-8.7518,39.8548,-1.3146,-0.9838,-1.0353,-0.0534,-0.7547,-0.5959
3751,-0.0467,0.1509,9.831,-0.3403,-1.3119,0.3355,28.6332,-8.6344,38.7678,-0.0156,0.2552,-0.1369,0.3955,0.0233,-1.5064
3761,0.0209,0.1318,9.885,0.31,-0.4994,-0.0842,29.4925,-10.8548,40.1362,1.2553,0.0228,1.9304,-1.8705,-0.5443,0.4269
3778,0.0027,0.027,9.8582,0.0692,-0.169,0.0588,31.3523,-9.7258,39.6951,0.3596,0.0233,-0.7587,0.9331,-0.0302,-0.5739
3789,-0.0923,0.1317,9.8443,-0.0591,-0.525,0.0486,30.7206,-10.6035,37.7791,-0.0307,1.1075,-0.2562,0.643,-1.603,-0.5881
3802,0.0954,-0.0051,9.8145,0.5734,0.7954,-0.2114,30.5113,-8.8498,39.8145,-0.7567,-0.6819,0.309,-1.253,-1.2735,-1.1096
3813,-0.013,0.1249,9.8497,-1.4353,-0.0238,-0.1992,29.9313,-11.1433,39.0142,0.3422,-0.1393,2.3918,0.7937,0.9205,-0.2975
3824,0.0004,-0.0757,9.7301,0.3287,-0.1128,1.1169,28.917,-8.624,39.6706,0.3361,2.0678,0.412,1.4577,-2.1579,0.0091
3834,-0.0553,-0.1113,9.8227,0.1621,0.6267,0.4374,30.9211,-10.5593,39.8616,0.3097,-0.4772,-0.1989,-0.6814,-0.9724,1.6173
3844,-0.1361,0.0829,9.8307,0.4145,-0.7741,-0.3622,28.0628,-10.3033,38.5118,-1.0515,0.2875,-1.3011,-1.0321,-2.1599,-0.3706
3855,0.0897,-0.168,9.7392,-0.3582,-0.8815,-0.7226,30.5691,-9.6589,40.3552,-1.61,-1.403,-1.5496,-1.3402,0.742,-0.0207
3865,0.0834,-0.0997,9.8378,0.1196,0.3018,-0.8576,29.3453,-11.0321,40.25,0.117,1.2473,-0.119,-1.3992,0.3325,-1.6949
3875,-0.0512,0.1409,9.8042,-0.0603,0.7006,0.3724,29.2528,-9.8466,41.3786,0.0806,0.9807,-0.2711,-1.4197,0.5342,2.0116
3886,0.037,-0.0013,9.7382,0.1493,-0.0831,0.0694,29.5939,-10.4499,40.6267,-0.5172,-2.2139,1.0115,1.5629,0.783,-0.993
3902,0.077,0.0734,9.7707,-1.0831,-0.5389,-0.1347,30.0409,-10.8919,40.0044,1.3485,1.2841,0.2814,0.2921,0.5537,0.5265
3912,0.0171,0.138,9.8421,0.6095,0.4236,0.0809,30.4831,-10.8111,38.5732,0.9579,-1.5831,-0.4437,1.8204,-0.0091,-0.3377
3924,-0.1453,-0.0315,9.7253,0.9931,0.1028,0.3048,31.7563,-9.3866,39.2829,0.5001,-1.256,-0.3939,0.9996,0.7961,0.1818
3936,0.0208,-0.0744,9.7718,0.0993,0.4176,0.0015,29.9759,-9.0935,39.6591,0.0605,1.0241,0.7582,0.7665,-0.2569,0.0098
3948,0.0154,-0.1078,9.8192,-0.0084,0.4816,0.4103,31.0581,-8.5837,39.165,-0.5311,-0.8075,1.6437,-0.8146,-1.2098,-0.555
3958,0.0452,-0.003,9.7368,-0.1573,-0.0517,-0.2127,29.1915,-9.0101,41.3116,0.879,0.1468,-0.3446,-0.529,0.293,-0.3549
3968,-0.0108,0.1303,9.7837,0.8366,-0.5678,0.6808,30.8991,-8.1944,40.0139,0.8036,-0.4506,-0.0814,-0.2967,0.2807,-1.4645
3979,-0.1772,-0.1137,9.8052,-0.9975,0.497,-0.1559,30.4876,-8.0592,38.517,-0.4562,-0.4118,-1.5952,-0.7283,-0.2121,0.7101
3989,0.0228,-0.1313,9.8146,0.8285,-0.1142,0.3525,28.0647,-8.8084,39.065,-0.053,-0.5624,0.3598,0.8595,0.9951,0.1655
3999,-0.1457,-0.1071,9.7565,-0.0094,-0.0768,-0.8041,31.4219,-7.9986,39.1819,-0.9157,-1.1601,-0.4617,0.5168,0.4086,-0.1364
4009,-0.0278,0.0105,9.7741,-0.5226,0.3864,-0.2939,29.0812,-10.0143,41.9065,0.5486,-0.8776,0.7606,0.1552,0.5219,1.5614
4027,-0.1209,-0.0549,9.797,0.5125,0.018,0.0048,31.0524,-10.6272,39.0214,-0.5109,1.3979,-1.7356,-0.6176,-1.1636,0.8793
4037,0.0974,-0.0101,9.87,-0.1505,-0.3112,0.1312,31.1324,-9.6293,40.6693,-0.7282,-0.6434,0.7079,-0.165,-0.3385,0.3892
4050,0.0899,-0.1687,9.7812,0.1399,-0.4504,-0.61,28.9325,-9.7425,39.434,0.5228,0.8912,0.5205,0.629,0.4609,-0.377
4062,0.0919,0.1005,9.7142,-0.8717,-0.0336,-0.0975,30.7043,-8.6325,40.9717,0.8693,-0.3886,-1.1593,-0.0507,0.8082,1.331
4073,0.3056,0.0923,9.7345,-0.0653,-0.8396,-0.3648,29.1721,-9.4643,39.2589,-0.1368,-0.4294,1.8738,-0.4466,0.1506,0.6354
4084,0.0535,-0.0762,9.8849,0.0384,0.794,-0.0663,30.2761,-9.0055,40.0584,0.4275,-1.1118,-0.4115,-1.0835,0.9446,1.2287
4094,0.0239,0.0003,9.7906,-1.0111,-0.7308,0.2742,32.2958,-9.847,40.8969,-0.3167,0.457,-0.1227,-0.963,-0.809,0.1437
4105,-0.0398,-0.0244,9.8581,-0.7694,0.0333,0.6181,31.1923,-9.83,39.2215,0.2492,-1.4795,0.5656,-0.1914,-0.4592,-0.8802
4116,0.039,0.0413,9.8687,-0.8796,0.2586,0.0497,29.7333,-9.4876,40.6956,-0.205,2.261,1.3792,-0.4202,0.0253,-0.1408
4126,0.0979,0.0213,9.8456,0.1084,-0.301,1.1003,29.4829,-9.6687,40.2878,0.7726,-0.4563,-0.574,1.2495,0.2053,0.6139
4139,-0.052,-0.0102,9.8174,-0.2182,-0.4955,0.6112,30.3017,-11.9482,40.1886,1.2331,-0.5231,0.0529,1.9606,0.5207,1.0109
4149,0.1368,0.0883,9.737,-0.908,-0.1995,-0.1871,28.3457,-9.6675,40.5137,-1.0854,1.5634,-0.6339,-0.7693,0.4392,0.5714
4161,0.0421,0.0294,9.758,0.3394,-0.3461,0.4291,30.8956,-9.7614,40.0609,-0.1075,0.8673,0.1425,-0.7668,0.2452,-0.9726
4173,0.0448,0.0961,9.8751,-0.6493,0.3194,0.8926,29.7902,-11.1999,40.9393,-0.5678,-1.6723,0.0815,0.3717,0.6852,0.2588
4184,0.135,0.0285,9.7493,0.6097,0.3671,0.6142,30.9083,-8.4593,41.3048,-0.2509,0.8919,-1.1165,-1.3844,0.3919,0.5454
4194,0.0272,0.1085,9.8737,-0.0533,0.3416,0.361,31.1721,-9.0008,40.2048,-0.8721,0.1583,-0.6573,-0.5821,-0.3546,0.6566
4204,-0.0799,-0.0695,9.8366,-0.7447,-0.2698,0.0616,30.3898,-10.4776,40.056,-1.6104,0.1346,2.8783,-0.3017,1.0938,1.0698
4215,0.0701,0.1423,9.8067,-0.0846,-0.2218,-0.3502,29.851,-8.9531,39.3469,1.6175,0.4218,-1.1415,1.8886,-0.0658,-2.3338
4225,0.005,0.0013,9.8351,0.0995,-0.087,-0.7402,30.2018,-9.1975,40.5046,-0.9925,0.6687,-0.3747,-0.5385,-1.3984,-0.8833
4235,0.0596,-0.1002,9.848,0.7584,-0.6078,-0.2772,29.1697,-10.083,37.9356,-0.3892,0.7752,0.7077,2.3905,-0.3721,-0.1825
4249,0.0642,0.0556,9.6887,-1.0011,0.2063,-0.0874,29.5226,-9.986,42.477,0.3128,0.0993,0.9808,0.4691,0.9194,0.3035
4260,-0.0795,-0.0281,9.6792,-0.4136,-0.1231,0.4147,31.7098,-9.7785,40.2693,1.111,-0.5262,-0.5543,-0.0783,0.5863,-0.8119
4273,-0.0119,0.0173,9.8573,-0.285,0.7453,-0.642,29.3873,-10.4273,40.367,0.2417,0.0134,-0.4282,-0.9434,-1.5859,0.3269
4285,-0.0127,-0.033,9.8488,-0.5712,-0.0475,-0.3377,29.4977,-10.7832,39.1495,-0.0496,-1.2131,1.2583,2.4945,0.1713,-0.6675
4295,-0.062,0.0217,9.9033,0.3117,0.0696,-0.2822,29.6974,-12.1693,40.0229,-0.4845,-0.3855,0.6882,-0.7193,1.5082,0.1652
4305,-0.007,-0.0239,9.7994,-0.2869,-0.342,-0.5468,30.779,-9.7612,38.4668,0.2162,-1.6895,-0.29,-0.9837,-0.3329,1.8848
4315,0.0938,-0.2308,9.8529,-0.5121,-0.1794,0.3198,31.3495,-11.7148,38.381,-1.3694,-0.3623,-0.8505,-0.8644,1.4895,-0.8741
4326,-0.1122,-0.0566,9.791,-0.4505,-0.211,0.0202,29.8886,-11.2606,40.3597,-1.3798,-0.8841,0.0167,-0.5091,1.7963,-0.7382
4336,-0.0337,-0.1844,9.76,-0.1351,0.2273,-0.4051,30.0374,-10.5079,40.0925,-0.1657,-2.329,0.9737,-0.1227,-1.5563,-0.1248
4346,0.0854,-0.0739,9.8324,-0.4881,-0.3619,-0.0791,29.5969,-10.0592,39.9445,-0.1545,-0.6947,-2.0354,3.3324,-0.6232,0.4817
4357,-0.0185,-0.109,9.8152,-0.1369,0.3601,-0.8106,29.495,-11.0519,40.3757,-0.3387,-0.2916,-0.0273,0.7842,0.8984,-1.7247
4369,-0.0785,0.0128,9.7914,0.4388,0.3007,-0.3935,30.5973,-11.9178,39.3062,-1.004,-1.4146,0.7784,-0.1082,-0.8477,0.7528
4381,-0.0498,0.1806,9.831,-0.3761,0.2722,0.2668,30.4572,-9.2042,40.0692,-0.0456,0.6118,-0.1782,-0.4455,-0.0857,-0.9346
4391,-0.0827,0.1423,9.8355,-0.2331,0.0715,-0.2731,29.4453,-9.9425,40.3589,-0.5482,-0.2469,0.0784,-2.7494,0.2213,0.6796
4401,-0.1083,0.0765,9.7835,-0.0202,-0.3291,0.9638,31.4791,-8.5831,39.6055,-1.3152,-0.3235,-2.0673,-1.6281,-0.3811,-0.2807
4412,-0.0879,-0.0512,9.7617,-0.0102,1.0271,0.31,29.6219,-10.9142,38.8804,-0.1148,-0.8527,-0.8954,2.1669,1.3722,-0.5543
4422,-0.0696,-0.177,9.8693,0.4205,0.4668,0.5966,30.8625,-9.3002,40.1397,-0.1195,0.4695,0.9775,0.3699,-0.927,-0.3788
4433,0.0412,0.0851,9.7827,-0.4746,0.7916,0.0785,30.6268,-10.7565,40.0059,-0.3163,-0.6482,-0.0457,0.3384,-0.5285,-0.367
4444,-0.0165,-0.0804,9.8664,0.0517,0.755,0.8558,29.127,-9.424,39.7533,-1.3387,-0.3882,0.0714,-0.508,0.4247,-1.5024
4455,-0.0216,0.0727,9.8573,-0.0516,0.1913,-0.2089,28.7346,-10.0749,40.2014,-0.2164,-0.766,-1.5205,-0.3332,0.5001,0.9232
4465,-0.0596,0.0133,9.7625,-0.7335,-0.1684,0.5063,29.6601,-9.7504,38.7456,-0.3518,1.2819,2.061,-0.4985,-1.2869,-0.1399
4475,-0.0582,-0.0922,9.8335,-0.4462,-0.7499,0.1036,29.67,-10.07,42.8576,0.1407,0.7277,-0.1521,2.4519,0.5778,-0.4129
4494,0.0463,-0.0926,9.8017,0.0672,0.3809,0.2539,28.815,-8.7877,40.8005,-2.2794,-0.4265,0.8202,1.2261,-0.0283,1.5169
4504,-0.0327,-0.2092,9.845,0.2904,-0.1318,0.8068,28.4087,-10.2183,39.5828,-0.2599,-1.0829,0.0545,1.4001,0.6908,0.3906
4516,0.1818,-0.0193,9.8118,0.4072,-0.0848,-0.1102,30.6295,-9.6102,39.2419,-0.6063,0.3415,0.8545,-0.9256,0.081,-0.7934
4528,-0.0932,0.1076,9.7245,0.5438,-0.009,-0.2218,28.6814,-10.6799,38.8685,-1.0616,-0.524,1.0866,-0.3725,0.4714,0.8915
4539,0.0695,0.0875,9.7692,-0.8525,-0.1219,0.7605,30.5153,-9.5452,38.6267,-1.0272,0.1148,-1.5615,-0.0887,-0.5005,1.1143
4550,0.0664,-0.0095,9.791,-0.7605,-0.3762,0.3573,29.2049,-10.4324,39.0031,-0.8509,-0.8536,-2.2796,1.1278,-0.9714,0.8741
4560,0.0877,0.0457,9.7448,0.515,1.1774,-0.1285,30.1312,-10.1724,41.0816,-1.009,-1.477,1.0032,-1.1755,-1.1451,-1.637
4570,0.1316,-0.0445,9.782,-0.3748,-0.5306,-0.9038,29.3118,-9.3368,39.9097,-0.4175,-2.2749,-1.4487,-1.6353,0.3604,-0.005
4581,0.0446,-0.0048,9.8052,-0.3485,0.2034,-0.8492,31.2678,-11.0902,38.5812,0.7122,0.8464,0.1235,-0.0472,2.5035,-1.6081
4591,-0.041,-0.05,9.7407,-0.5559,0.2767,-0.305,30.0896,-10.0992,39.8946,-0.658,-2.1303,-1.4235,-2.1486,0.3848,-0.2161
4614,0.1416,0.0479,9.7779,-0.6138,0.5151,-0.0751,27.2701,-12.5014,39.5142,-1.0764,-0.0844,0.267,-0.5307,-0.4626,0.168
4624,-0.0651,-0.0961,9.7497,0.0066,-0.0535,-0.4202,27.7208,-8.2062,41.21,-1.2558,2.1041,0.886,0.3069,-0.7336,0.7007
4637,0.0335,0.075,9.8426,-0.5218,-0.3195,-0.3821,30.8835,-7.4863,39.6637,-0.6061,-0.7504,1.0679,1.2474,0.3188,1.1545
4649,-0.0939,-0.1273,9.7937,-0.2265,0.3464,-0.64,29.7532,-10.7696,39.5778,0.6765,-1.6244,0.8508,-0.7003,0.9928,-1.8162
4660,0.1461,-0.0031,9.7541,-0.1078,0.1892,0.2215,30.1099,-9.5828,39.8838,0.9053,-1.0386,1.462,-0.4732,1.5057,-0.9681
4671,-0.0452,-0.0584,9.8225,-0.2096,-0.476,-0.1106,28.996,-9.3086,40.7089,1.9654,-0.4072,0.3951,-2.584,0.0226,0.2659
4681,0.0551,-0.0053,9.7939,0.4655,0.0166,0.3518,30.407,-9.8553,39.3216,0.185,0.0706,1.2065,1.7225,0.0761,-0.1699
4692,-0.1289,-0.0864,9.7575,-0.4962,-0.1302,0.5501,30.7626,-8.4316,40.1608,-0.7441,1.3393,0.2763,-1.8644,-0.5513,-0.0638
4702,0.1096,-0.0332,9.7993,0.0781,0.2758,0.4845,30.3154,-7.643,39.0056,-1.3877,-1.2299,0.8564,-0.2282,0.3391,0.6901
4712,-0.0875,0.0203,9.8002,0.079,-0.1845,-0.658,29.0565,-9.1286,40.5764,0.0182,-0.1496,-0.1136,0.9893,-0.0032,0.6962
4723,-0.1009,-0.0668,9.7789,0.211,0.5604,-0.7172,29.5297,-10.6955,40.6828,1.474,-0.2607,0.6367,-0.4876,0.6094,0.5611
4733,-0.0738,0.1215,9.8145,0.6424,-0.3389,0.0941,30.6742,-9.9582,39.9104,-1.1147,-0.8292,-0.5513,-0.6852,1.2892,-0.0178
4743,0.0671,-0.034,9.8081,-0.2501,0.1351,-0.1694,29.5664,-10.7318,41.7117,-0.9863,1.6998,0.296,0.2332,-1.2317,-0.7238
4754,0.0495,-0.0516,9.784,-0.302,0.0613,0.5817,31.3593,-9.3635,42.1773,1.5397,1.319,-0.2038,0.9212,0.5255,-0.9968
4764,0.0363,-0.032,9.8767,-0.3971,0.6641,0.8621,29.7424,-11.3531,41.434,0.0126,-0.1165,-0.6035,-0.7936,-0.8012,-1.1478
4775,-0.095,-0.0274,9.7918,0.1245,0.4286,-0.2509,31.0859,-8.4382,39.6531,-0.6441,0.56,0.0563,1.0682,-0.1989,1.3219
4785,0.03,0.0694,9.7505,0.4835,0.8468,-0.9263,28.8076,-8.8756,40.7011,0.2776,-1.8834,-0.8856,-0.5835,0.7732,1.4208
4795,-0.0191,-0.0098,9.8206,0.2676,0.4699,0.4244,29.3049,-8.8112,39.7156,-1.8726,-0.2319,1.4791,-0.2221,0.4325,-0.7261
4806,-0.1205,-0.0078,9.7803,-0.6319,-0.5988,0.0478,31.5294,-11.6573,37.7505,0.3076,-0.7786,-1.4118,1.6805,-1.7273,-1.5134
4816,0.1892,-0.0557,9.6959,-0.1523,-0.0125,-0.7012,31.3845,-10.1687,40.4897,-0.2416,0.1069,1.2164,-0.9457,-0.1873,0.332
4826,-0.0729,-0.222,9.78,0.8509,-0.2301,0.085,30.553,-11.8093,40.21,0.4599,0.7266,1.2519,-1.2756,1.0735,-1.1249
4837,-0.1066,-0.1327,9.887,0.0881,0.0283,1.1925,30.1085,-10.4348,41.3294,1.2988,0.7473,-0.4051,0.5002,-0.6523,0.759
4847,0.0274,0.0383,9.7995,0.4664,-0.2341,0.9764,30.4435,-8.7515,37.9962,-0.5553,-0.8352,-1.9347,0.9835,-1.3171,1.1204
4857,-0.0266,0.027,9.8089,0.2451,0.7384,0.6954,29.8139,-10.5142,38.9174,-0.5302,-0.3216,-0.39,-2.5477,1.9743,-0.0366
4872,-0.0877,-0.113,9.8017,-0.5634,-0.0317,-0.636,30.1711,-11.542,41.2523,0.5191,-0.8839,0.392,1.0618,0.2922,-0.9877
4884,-0.1924,-0.2352,9.734,-1.2019,-0.6917,1.2436,31.7699,-10.3496,40.8837,-0.1508,-1.4611,-0.6625,-0.6633,-0.5528,1.1358
4895,0.1324,0.1699,9.8695,0.4152,0.041,0.0638,29.6908,-8.7328,38.38,1.886,2.0141,0.2091,-0.2387,0.4147,0.1049
4908,0.0273,0.0208,9.8174,0.0338,0.3248,0.0231,29.4176,-10.5237,40.0616,0.5408,0.6084,1.235,0.5559,2.1397,-0.7937
4919,-0.0213,-0.1038,9.8334,-0.3251,0.825,0.1061,29.0981,-9.6993,40.3351,0.0193,-0.1511,0.1624,-1.5363,0.386,-1.4199
4930,0.0518,-0.0795,9.8534,-0.2729,0.1337,-0.4632,30.5809,-9.5593,38.6131,0.0319,0.2461,0.5883,-2.0059,1.7092,1.4976
4940,-0.0876,-0.0664,9.8752,-0.5093,0.1333,0.4247,30.2824,-11.4089,40.5133,0.7662,-1.301,-0.5805,-0.4715,-1.7566,-1.51
4951,0.0529,-0.1278,9.8151,0.1783,0.4403,-0.2392,31.575,-9.0066,40.8504,0.8565,-2.1494,1.9525,0.2087,1.2837,-0.2628
4961,-0.035,0.0209,9.8599,-0.052,-0.2549,-0.0829,29.4476,-10.4669,39.5651,0.8922,0.7123,-1.7234,-1.7858,-0.8368,-0.1769
4971,0.1835,0.0984,9.7175,-0.5527,0.4133,-0.0301,27.0263,-10.653,39.3445,-0.4089,-2.2252,0.4923,0.3095,0.2548,-0.519
4982,-0.0416,-0.1273,9.9007,-0.3263,-0.6045,0.6605,31.1737,-10.3645,42.0937,0.3604,1.3764,1.1175,-0.0614,-0.6993,-0.4084
4992,-0.0425,-0.0197,9.8072,-0.2615,0.1752,-0.3919,29.7786,-7.8842,40.2687,0.5952,0.1069,-1.0197,1.5962,-0.2831,-0.5159
5002,-0.0763,0.1436,9.7595,0.0957,-0.5354,0.0544,31.107,-8.3313,39.7511,1.3173,-1.7612,-0.1364,1.4532,-0.2307,-1.4872
5027,0.0849,0.0675,9.7992,-0.0458,-0.5997,0.2541,29.1857,-10.1346,39.591,-0.148,-0.881,0.4232,-0.427,-1.4864,0.4363
5041,0.0174,-0.0189,9.7607,0.5481,-0.5199,1.2123,29.7762,-10.4576,40.9335,-1.4021,-1.1493,-1.3976,0.0371,0.7325,1.0106
5053,0.0698,0.0328,9.8433,-0.3871,-0.2597,-0.7262,31.061,-9.8518,40.2176,1.158,-0.4655,1.6992,-1.2547,0.5133,-1.1504
5065,-0.0746,0.1639,9.6696,0.0354,-0.7238,-0.4043,30.4902,-11.374,38.9968,-0.7639,-0.6643,-0.7396,1.0666,-1.5773,-0.2118
5075,-0.0748,-0.1422,9.8868,0.0073,0.2453,1.014,29.3349,-10.4279,39.7557,0.8953,0.7557,-0.3958,1.5252,0.6779,0.1638
5086,0.0117,-0.1139,9.7208,0.1532,-0.0244,0.5808,30.347,-9.7503,39.4388,0.1859,1.9422,-0.557,-1.395,-2.4663,-0.1039
5096,-0.0942,0.1156,9.7209,0.1959,-0.345,0.3503,28.4433,-10.7006,38.4081,-0.4491,-0.3117,-0.8646,2.9823,0.8195,-2.1694
5106,0.0522,-0.0389,9.8742,0.3694,0.6513,0.3458,29.383,-11.9564,39.5649,0.5381,0.2632,-0.7815,0.4213,-2.0085,0.228
5117,0.0338,-0.0248,9.8237,0.1337,0.224,-0.8553,30.6465,-11.1233,40.5506,-0.0807,1.548,0.2504,1.1644,-1.603,0.2662
5127,0.0595,0.0108,9.8672,-0.7566,-0.1083,-0.1327,31.0401,-9.801,39.4683,0.2633,-0.3082,-1.8579,0.2626,1.0686,-0.0087
5138,0.146,-0.0169,9.6852,0.1271,-0.6002,-0.0755,29.7941,-10.6495,40.5871,-0.5833,-0.5686,-0.9556,0.2737,-0.2602,-1.3826
5148,0.0277,0.079,9.8321,0.0077,-0.0817,-0.0346,28.8988,-9.4457,39.9852,-0.6419,0.4021,2.0084,-0.7876,2.0708,0.3602
5165,0.0632,-0.0084,9.716,0.3436,-0.3212,-0.2066,29.7771,-8.6521,42.062,0.3087,1.4263,0.2338,0.0874,1.0508,0.867
5178,0.0547,0.1335,9.8025,-1.024,0.1213,0.6703,29.5685,-9.2376,39.5156,-2.0558,1.6982,0.0884,0.9262,-0.7837,0.308
5189,0.0184,0.1317,9.8636,0.3668,0.8161,0.4264,28.8884,-10.1481,39.2879,-0.8189,-0.3013,0.1398,-0.9528,-1.9517,-1.358
5200,-0.032,-0.1009,9.7801,0.6184,0.0621,-0.3118,31.1038,-9.8184,40.7068,-0.1745,0.3192,0.0504,-2.1363,-1.5097,1.2003
5211,0.0246,0.0316,9.8529,0.0964,-0.1572,0.4805,28.8464,-8.9811,39.9809,-0.9334,0.6294,2.2595,1.1397,-0.7487,0.5729
5222,0.0004,0.1714,9.8527,0.0303,0.3073,-0.3485,29.2859,-11.3393,40.953,-0.9258,-1.1098,-0.9993,-1.5155,-0.5615,-0.7881
5233,0.026,-0.0653,9.8483,-0.1328,0.48,0.0617,31.3106,-8.5817,40.2943,-0.7122,0.5213,1.0457,0.6665,0.4207,-1.0831
5243,-0.0464,0.0328,9.7904,-0.005,0.2529,-0.444,30.4896,-10.1643,40.7985,-1.0279,0.0503,-0.4355,-1.0841,0.8719,-1.6601
5254,0.0154,-0.1419,9.8183,0.194,0.0673,-0.6468,30.1112,-9.3826,40.0425,-0.3477,-0.0032,2.0195,-1.0786,-0.2301,-0.9979
5264,-0.0186,-0.0294,9.7746,-0.5395,-0.1137,-0.0666,29.918,-8.7308,41.4115,-1.5279,0.0281,1.0072,-0.2134,1.1146,-1.136
5274,0.2197,-0.0936,9.8153,0.1814,0.0849,-0.0978,27.7692,-11.7466,39.1903,2.4365,1.0329,1.8921,0.2913,-0.2078,0.7135
5285,-0.0114,-0.1404,9.7748,-0.6907,0.7243,0.0526,28.8171,-9.1654,40.4374,0.2628,-1.8589,-1.3576,0.9347,1.2744,0.2447
5295,-0.0115,0.0352,9.8215,-0.1604,-0.4512,-0.0225,31.2097,-9.3714,38.6425,1.1245,1.0667,0.4378,0.9045,-0.1056,-0.4253
5306,-0.094,-0.0631,9.7319,-0.0569,0.0579,-0.1199,29.363,-9.8285,39.7854,1.0821,-0.4469,-0.1327,-1.0226,-1.8454,-0.033
5316,0.0614,0.0327,9.8173,-0.1852,-0.2899,0.4282,28.7263,-7.3755,40.4008,1.2087,0.3697,-0.4724,0.9687,0.7773,0.606
5327,0.0198,-0.1872,9.7738,0.2222,-0.3161,-0.2436,29.2096,-11.2759,40.0551,-0.6118,1.1426,-0.511,0.6219,1.0412,-1.0274
5337,0.1003,0.0022,9.7505,0.4348,0.0926,-0.5602,30.955,-11.2163,38.9871,0.1571,-0.5695,-0.8653,-1.1603,0.6083,-0.6904
5348,0.026,-0.2396,9.8894,0.107,0.6421,-0.0888,30.9441,-9.4629,40.5744,-0.8059,0.8435,-0.4942,1.1564,-3.2075,-1.9598
5358,-0.1943,0.1133,9.8258,0.5788,-0.6589,-0.5664,28.0514,-10.5522,38.8706,1.5013,-1.2384,0.167,0.6562,-0.573,-1.262
5368,-0.0784,-0.1464,9.7656,0.5563,-0.1617,-0.3225,30.2039,-10.2509,39.5975,-0.1936,1.2062,-1.4888,0.8157,-1.0481,-2.1801
5378,-0.05,-0.0356,9.7191,-0.3747,0.0231,-0.3909,28.7934,-9.9048,39.0857,-0.6465,-0.9295,-0.3717,-1.2937,1.2696,-0.5022
5396,-0.0853,0.1747,9.8011,0.0734,-0.6631,-0.1994,30.8109,-8.6625,40.2909,-1.6227,1.2411,0.7645,0.6667,0.4598,-0.6149
5410,0.0027,-0.1367,9.7306,0.3836,0.3804,-0.2347,27.9221,-8.4949,39.9537,-0.2655,-1.2038,0.7504,0.3551,2.0183,0.4934
5421,0.1416,0.0185,9.825,-0.3866,0.2411,0.3671,31.6514,-10.0158,42.0849,0.3503,1.0605,0.2412,1.007,1.3157,1.5845
5433,0.0317,-0.0971,9.833,-0.056,0.0796,0.359,28.9993,-8.7745,40.8623,-1.5031,-0.414,-0.5193,0.4132,0.9379,1.4874
5445,-0.1522,0.1072,9.7903,-0.0014,-0.9173,-1.524,30.5241,-9.7686,41.4295,-0.7116,-0.1909,-0.0156,0.1334,1.3598,-0.6706
5458,0.084,-0.1744,9.8204,-0.4375,0.0622,0.5866,27.6785,-9.646,40.7926,-0.6647,0.7626,-0.3252,-0.1285,-0.0371,-0.0978
5469,-0.1708,-0.0244,9.8444,-0.7109,0.5761,-0.5674,30.8669,-9.5316,40.6012,1.1307,-0.8251,-1.2634,-2.0671,-0.598,1.584
5479,-0.0285,0.0324,9.796,-0.0513,-0.3165,-0.5669,30.6262,-10.0029,40.1854,0.2817,0.575,-0.7949,-0.5498,-0.2743,0.6263
5490,0.0978,-0.1375,9.7708,0.5546,0.0226,-0.1325,29.633,-10.7352,37.9212,0.3302,0.0366,0.6446,-0.1628,1.0215,-0.5128
5514,0.1706,-0.0913,9.8152,-0.0959,-0.2768,0.0498,30.16,-8.8811,40.388,0.766,0.8377,0.3752,-0.0076,-2.247,-1.4867
5525,0.0693,0.002,9.781,0.2799,0.3813,-0.6496,29.2808,-10.7972,37.942,-1.4816,-1.4379,-2.2325,1.0862,0.7443,-0.144
5536,0.0881,-0.1221,9.7784,-0.5177,-0.1922,0.4763,29.8988,-9.5223,38.8678,-2.1241,-0.9451,-1.2145,0.7903,0.9931,-0.8476
5547,0.0637,-0.0401,9.8406,0.3896,0.0993,0.1417,30.8784,-8.9734,41.1788,1.3517,-0.3388,1.6168,1.5169,-0.2603,-0.1131
5558,-0.1109,0.03,9.7348,-0.0789,0.048,-0.2261,30.9898,-11.5332,39.7392,1.5085,0.7181,-1.2367,1.8943,-0.9658,0.1618
5570,-0.002,-0.0109,9.9269,-0.2767,-0.2204,-0.0848,29.6297,-9.5577,39.5225,0.2795,-1.1837,0.9728,0.4692,-0.1924,0.2761
5581,0.0551,0.1111,9.7626,-0.0487,0.228,-1.255,30.6193,-9.5217,39.2809,0.6744,0.0219,1.1459,1.5837,-1.5426,-0.3029
5591,0.0366,0.1324,9.8228,0.0835,0.0608,-0.1983,28.8645,-9.1137,41.0769,-0.1689,-0.1921,-0.0655,-0.2734,-0.0727,-0.5463
5602,-0.0838,0.0783,9.8404,0.1917,-0.2006,0.0825,30.1108,-10.6936,39.5123,0.1625,0.3065,-1.2752,-0.2932,0.8251,-0.0786
5612,-0.0897,-0.1005,9.8179,-0.3463,0.9664,0.222,29.3383,-10.8265,41.7176,0.2384,-0.5835,-1.1177,-0.0254,0.8137,0.0336
5629,-0.0529,-0.0524,9.7297,0.6158,1.0321,-0.0428,30.8873,-11.2151,40.3156,0.8472,-0.337,-1.1179,2.185,-0.6176,0.1596
5641,-0.0213,-0.0888,9.7187,0.7689,-0.2429,-0.4892,28.7224,-10.4198,40.7395,-0.0855,0.1162,-2.8682,-1.0131,-0.4242,-0.9558
5651,0.1092,-0.0177,9.781,-0.4843,0.1292,-0.746,30.751,-9.551,39.2513,-0.7139,0.2962,0.3036,-0.3413,-0.2371,-2.3399
5662,-0.0403,0.0522,9.7676,0.2343,-0.2809,0.0881,30.6527,-7.7101,39.9356,-0.8364,0.6474,-0.9472,-1.5346,1.1698,0.84
5673,-0.0955,0.0655,9.7277,0.2896,-0.2362,0.3223,31.2736,-8.8078,40.2195,-1.6727,0.0679,-1.7525,0.6679,0.5266,0.1051
5683,0.0664,-0.0471,9.7646,-0.1247,-0.1208,0.6425,29.3936,-10.624,38.292,-1.6731,0.7924,0.152,-0.4255,-1.4043,-2.3924
5693,-0.023,0.05,9.7573,0.3589,0.2481,0.1054,29.046,-9.3427,39.5133,-1.8043,0.6672,0.5102,0.4497,1.4088,-1.6608
5704,0.1001,-0.1336,9.8067,-0.2443,0.605,-0.122,30.1778,-8.9347,38.5061,1.3661,-0.4354,-0.1729,-0.2058,0.8705,-0.7741
5714,0.0654,-0.046,9.7444,0.5577,1.4651,-0.0846,26.6354,-9.929,38.5346,0.2014,0.7182,0.5459,-1.1175,0.1503,0.7895
5725,-0.017,-0.1787,9.8496,-1.0694,-0.6037,0.6363,29.4958,-10.5174,40.2776,2.6398,-0.1272,0.0408,2.6672,0.1359,-0.5314
5735,0.1413,0.062,9.8546,-0.0864,-0.1123,0.486,31.6833,-9.7747,42.6766,1.8747,-1.7535,-0.0593,-1.8291,-0.3866,-1.8348
5753,-0.0309,-0.133,9.7783,1.0356,-0.4812,0.2172,29.861,-10.6943,40.1843,-0.3962,-2.8798,0.1302,-0.7493,0.3109,-2.4722
5764,-0.0015,-0.1152,9.8009,-0.0209,-0.6865,0.0229,27.8993,-8.7901,39.8496,0.8746,2.632,-0.6184,0.1319,0.7977,0.6756
5774,-0.0181,0.0162,9.8292,0.2209,0.4251,0.7242,30.7123,-10.7246,40.4646,0.8918,-0.8396,-0.8406,0.4376,-0.986,0.2616
5788,0.1146,-0.0301,9.7789,-0.3559,0.0281,0.4001,28.9797,-11.2913,41.149,-1.1911,0.6271,1.6225,-1.1946,1.433,1.2513
5801,0.1434,-0.0915,9.7722,-0.4571,0.6282,-0.3956,29.6847,-9.7207,39.7773,-1.148,2.2352,-0.4886,1.1814,-1.1938,0.4024
5812,0.0407,0.0814,9.7623,-0.5556,0.1143,-0.7861,31.207,-9.1041,40.1719,0.5456,-0.9435,1.414,0.1454,0.7797,1.0399
5822,0.0837,0.1648,9.7802,0.0627,0.7599,0.0028,30.3452,-11.0509,40.3723,-0.1675,-0.7315,0.172,-0.648,0.2207,0.854
5833,0.0003,-0.0001,9.8951,-0.2782,-0.3677,0.5976,29.968,-11.9483,40.9276,1.487,-0.9691,-1.1108,-1.4737,-0.4739,-0.4418
5843,0.1537,-0.0349,9.8167,0.4436,-0.1638,0.3154,30.8016,-11.2161,40.4472,0.8425,-1.1961,-0.7167,-0.1209,-0.3923,1.0834
5853,-0.1106,0.0248,9.9021,0.0074,-0.2252,0.2232,30.7209,-10.1659,40.042,-0.3158,0.8104,0.1843,-0.4659,-0.2491,-0.2267
5864,-0.0448,0.007,9.7327,1.2797,-0.1253,-0.1422,27.4976,-11.3126,39.4596,-0.2587,1.5756,0.1452,1.0951,2.3842,0.0761
5874,0.0728,0.0456,9.7677,0.6975,0.9295,-0.386,30.5626,-10.5753,38.8842,0.426,1.7134,-0.4822,0.5842,-1.3811,-1.8043
5886,-0.0019,0.0021,9.8108,0.2135,-0.4264,-0.9736,29.3095,-8.6288,39.0963,0.4125,-0.1613,0.8305,-0.647,-0.6701,-0.806
5897,0.0163,-0.0629,9.963,0.7831,0.4775,-0.6692,31.2541,-9.9181,39.7927,0.2875,2.1827,-0.5953,0.2937,0.9716,-0.3336
5907,-0.0459,0.1054,9.8417,-0.0638,0.6727,0.0824,32.2947,-9.9148,40.3059,1.1164,-0.7079,0.2087,-0.6398,0.054,0.9853
5918,0.0519,0.1938,9.8171,-0.1068,0.2247,-0.3136,28.8508,-9.4556,40.2149,0.9235,-1.3313,0.4362,0.4496,-0.6046,0.7108
5929,-0.1081,-0.1299,9.8055,-0.5033,0.1589,0.7867,28.6801,-11.1878,38.9208,0.4519,1.2574,0.3095,0.3168,-0.771,0.6952
5939,0.1535,-0.0031,9.8202,0.0099,0.3479,0.2779,30.4576,-9.4021,39.6313,1.9928,0.2166,-0.2599,1.6684,0.6956,0.4708
5950,0.0348,-0.147,9.8239,-0.0555,0.8907,-0.0389,30.9635,-9.7188,40.2706,-1.02,0.5604,-1.7639,1.3348,0.2213,0.6672
5960,0.0695,0.1029,9.8102,0.1652,0.0385,0.0538,28.9056,-10.3753,40.3692,-0.633,-0.1756,1.3054,-0.3091,0.4603,-0.0665
5971,-0.0957,-0.0365,9.7716,0.0996,-0.1901,-0.4823,31.4303,-9.3724,41.2486,-0.6367,-0.6976,-0.2987,1.1937,-0.2047,0.1003
5981,0.0133,-0.147,9.8901,0.8389,-0.3919,0.4418,29.2153,-9.8967,39.0303,1.5346,0.2552,-0.2879,1.1484,0.3789,0.2636
6000,-0.0546,0.0553,9.8418,-0.8675,-0.1497,-0.7865,29.3204,-8.0517,38.586,0.529,0.3473,-0.0496,-1.7139,-0.481,0.5974
6010,0.1105,0.0743,9.7911,0.18,0.6026,0.0926,28.5558,-8.6651,39.8124,-0.396,-0.7199,0.2877,-0.5991,-0.5556,1.1914
6022,0.0483,0.0286,9.8076,0.0248,-0.2057,0.6053,31.6583,-10.8421,40.6251,-0.2279,0.2074,1.5331,-0.8612,1.6391,-0.0747
6036,0.0762,0.0174,9.8093,0.3335,-0.1214,0.6816,29.1757,-9.8771,40.0929,0.5339,-0.8804,0.9237,-0.1794,-0.645,-0.2228
6048,0.0043,-0.1072,9.7374,-0.3971,0.1784,-0.0356,29.7389,-9.7673,42.5028,-0.4761,-2.6825,-0.2338,-0.2213,2.2321,-0.3583
6060,-0.073,-0.1286,9.7618,0.6044,0.2497,-0.0583,30.0264,-7.3104,41.4976,0.662,3.8572,-0.4418,-0.9786,-0.6204,1.3667
6070,-0.0946,0.014,9.8273,0.6808,-0.0063,-0.8502,32.135,-9.2695,38.5667,-0.0998,-0.7343,-0.1359,-0.4992,-2.0089,-0.6541
6081,-0.0064,0.1049,9.7688,-0.3618,0.1573,-0.1457,30.6748,-9.7349,40.026,-0.0324,-0.1404,-0.2362,0.9507,0.1671,1.144
6092,0.0484,-0.1392,9.8163,1.146,0.1294,-0.4499,29.9553,-9.4243,38.5707,1.3142,0.5867,2.3237,-0.4633,-1.1151,0.6725
6102,-0.0472,0.024,9.8079,0.974,0.1794,-0.0558,28.8905,-11.5214,37.9291,1.5646,0.5107,-0.895,0.404,-2.0211,1.1388
6115,-0.0973,0.1312,9.7726,0.0613,0.5478,-0.3329,28.5196,-10.3454,38.5921,0.0406,-0.3013,1.4395,-0.3651,1.4624,1.395
6127,-0.0628,-0.0301,9.8374,-0.1788,-0.8111,-0.0072,29.725,-9.8513,38.9771,-1.4545,-0.2659,-0.7921,-0.288,-1.7321,0.6879
6138,-0.0078,0.1661,9.7757,-0.2802,0.2367,0.1924,30.9589,-10.0059,38.2033,-1.0505,0.5582,-0.6874,0.224,-0.6421,-0.2484
6149,-0.0257,-0.1025,9.7973,-0.3275,0.098,-0.3033,29.0604,-10.4669,39.5309,0.4754,0.139,-0.2952,1.968,-0.5231,-0.8314
6161,0.0788,-0.107,9.8254,1.0135,-0.3921,-0.9249,29.2178,-9.8991,38.1341,-1.0504,-0.5843,-0.6455,0.0294,0.3638,0.3788
6171,0.133,-0.0258,9.8969,-0.4019,-0.89,-0.0699,28.6113,-11.2944,41.1921,-1.0999,0.0388,1.6874,-0.013,0.7938,0.131
6182,-0.1025,-0.0051,9.8505,-0.3556,-0.4611,0.1685,30.4134,-11.1317,39.1636,0.3713,-0.6362,0.7274,-0.022,-0.4554,-0.7024
6192,0.2829,-0.1871,9.8299,0.2278,-0.5295,-0.8777,28.3098,-9.8602,40.2834,0.9483,-1.1021,-0.2397,0.1433,-1.2601,1.2666
6203,-0.0809,0.1123,9.8318,0.7196,0.1991,-0.7485,27.9913,-10.9771,39.806,-0.709,0.6439,0.04,-1.3938,0.5653,-0.8336
6213,-0.1062,0.235,9.844,-0.488,-0.1575,0.2919,29.0975,-9.4908,40.2997,-0.8391,0.8855,0.0197,1.0819,-0.7301,0.8437
6231,0.0339,0.1311,9.7485,0.425,0.2993,0.2273,29.1352,-11.4449,40.567,0.7313,0.4086,0.7423,-0.3259,2.666,0.372
6244,-0.0313,0.2007,9.7741,-1.001,-0.1051,-0.4982,30.4351,-10.6279,40.0053,-2.6813,-0.4867,0.7878,0.5351,-2.4612,0.2742
6256,0.1955,-0.0428,9.7678,0.1405,-0.0998,-0.1186,29.0543,-10.3973,39.4809,-0.6335,2.369,1.6609,1.1564,0.1017,0.1717
6269,-0.0059,0.047,9.7768,0.6267,-0.6913,-0.5975,30.5089,-9.956,39.1545,-0.3254,0.1639,-0.4368,-0.6339,0.9677,-0.23
6280,0.031,-0.1035,9.8397,-0.4899,1.0202,-0.4974,29.7315,-10.134,40.3102,-0.0469,0.3449,-1.6202,-0.0854,-2.082,-1.1286
6290,0.1416,-0.0116,9.8165,0.8994,-0.5004,0.1015,30.5491,-8.5507,41.2382,1.3217,0.0129,1.1167,-1.384,0.2772,0.6202
6301,-0.2436,-0.1187,9.7848,0.1773,0.7693,0.686,29.6822,-11.1364,40.2914,-1.0698,-0.8944,-1.162,0.2057,-0.1859,-1.045
6312,-0.0882,-0.2072,9.8231,0.7704,-0.6589,0.0633,28.3515,-12.2984,39.1251,-0.8071,-0.1335,0.2393,0.9522,1.6863,0.0431
6322,0.0267,0.0441,9.7805,0.2787,-0.5657,-0.9721,28.5679,-11.1543,43.1039,0.9721,-0.1258,-1.9303,-1.0152,-1.8498,-1.4787
6333,-0.0737,0.0619,9.7921,-0.1456,0.0444,0.3508,31.187,-10.1548,39.8284,0.3128,-1.7993,0.8159,-0.0292,-1.377,-0.0364
6346,0.1662,0.0262,9.8419,-0.2031,0.4136,-1.3758,29.5981,-10.6872,38.4965,-0.8463,-0.9354,1.9788,0.2091,-0.0096,0.3698
6361,0.1363,-0.0193,9.8319,0.4649,0.6563,-0.6076,30.7433,-9.1896,40.776,-1.1126,0.7363,-1.911,1.9426,1.0029,0.1442
6371,-0.0891,-0.0553,9.8623,0.0217,-0.525,-0.4609,30.2755,-10.4156,39.5782,1.0027,1.3638,0.6508,0.0197,0.8525,0.9383
6384,0.0316,-0.1229,9.786,-0.1545,0.6932,-0.705,29.5291,-9.8368,40.8801,-0.5822,1.1794,-0.2495,-0.1085,-1.4226,-0.6194
6395,-0.1444,-0.1213,9.8185,0.2336,0.8882,-0.1896,31.8753,-11.7407,39.4739,-0.0904,-1.3796,0.5127,0.5812,-0.3531,-0.8261
6405,-0.0985,0.1906,9.799,0.1503,-0.5971,0.0663,29.7675,-9.5996,40.1394,0.5804,-1.7196,-0.1409,0.516,-0.0495,1.6206
6415,0.0584,0.0743,9.7446,-0.7247,-0.0373,-0.2532,29.9536,-9.6088,39.3919,0.7471,0.3663,0.2922,1.3274,0.7066,0.2075
6426,-0.1353,-0.0608,9.8082,-0.7881,0.4411,0.168,30.7491,-9.345,39.4289,-1.3304,-1.2309,1.3634,1.2461,-0.598,-0.386
6436,-0.0653,0.1655,9.7464,-0.9631,-0.1582,-0.0876,29.3247,-9.1052,41.6739,-0.0438,-1.1228,-0.8694,-1.7356,-0.1017,0.149
6446,0.1109,0.1498,9.8277,0.2324,-0.3597,-0.5828,31.8286,-11.3306,38.7843,0.4015,0.9987,1.8209,-0.0055,0.5035,1.948
6457,-0.2014,-0.0118,9.8648,-0.0108,-0.1832,-0.0114,32.0515,-10.7085,40.5937,-0.9012,0.5441,-0.0697,-1.2017,0.7903,0.505
6470,-0.0371,0.1263,9.8644,0.5722,-0.0958,0.1237,29.0237,-7.8733,41.1393,-0.3705,0.1731,-0.2679,-0.7758,3.1255,0.2059
6481,-0.1117,0.0235,9.7542,0.2608,-0.4456,-1.0122,30.2244,-10.0496,39.3806,-1.8717,-0.0458,1.9081,-0.0932,1.1895,0.283
6492,0.0739,-0.1879,9.7332,-0.2984,0.8454,0.4782,27.8585,-9.397,40.6238,-1.3832,-1.279,-0.2917,1.441,-0.2698,1.4435
6502,-0.1346,0.1291,9.8119,-0.1335,-0.2012,0.5874,28.131,-9.2009,37.8423,0.3665,-0.1634,0.7445,-0.6285,-1.392,0.2965
6514,-0.0719,0.216,9.8237,0.2309,-0.258,0.0531,30.7673,-9.5926,40.8011,0.0194,0.4617,-1.3506,1.6151,1.1227,-0.0177
6525,-0.1012,-0.0875,9.7439,-0.2216,0.1653,0.2057,30.4658,-11.4044,41.7047,0.7966,-0.2643,2.106,-0.649,-0.7366,0.3188
6535,-0.0644,0.0672,9.879,0.5595,-0.4998,0.7838,29.9388,-10.9117,39.9572,1.8448,-1.0139,1.7711,0.6614,-0.3668,0.1096
6546,-0.0399,-0.0089,9.7719,0.3511,-0.1488,-0.2985,31.6507,-8.5335,40.6406,0.0423,-0.0725,0.7441,0.8049,-0.1195,-0.197
6556,-0.0104,0.0018,9.8172,-0.1116,0.672,0.4164,29.0155,-10.7175,39.6087,0.9583,0.0672,-0.2696,1.6005,-1.3427,-0.8721
6567,-0.0006,0.0949,9.8414,0.3252,-0.2861,0.6148,29.9188,-8.9987,40.1306,0.2284,-1.5063,-0.39,0.4564,-0.5078,0.1423
6578,0.1035,0.1353,9.7337,0.4525,0.0892,0.5758,29.3823,-10.808,40.1827,0.8169,-1.3942,0.0646,-0.0112,-1.0992,-1.3747
6591,0.0289,0.0921,9.7424,0.1156,-0.1709,0.0423,28.848,-10.6371,38.9628,0.3013,1.2897,0.5243,1.7472,2.1991,-0.4054
6601,-0.0068,-0.2797,9.8939,-0.2709,-0.1599,-0.1756,28.8277,-8.6602,40.0447,2.5361,1.2659,0.737,-0.158,2.6816,0.1607
6611,0.019,0.0146,9.735,-0.0712,-0.9936,-0.0657,30.074,-8.9609,40.496,-0.8102,0.6684,-1.1613,0.7085,0.6169,-0.6096
6625,0.027,-0.1462,9.7823,0.2338,0.513,0.7881,29.7063,-9.1697,39.684,0.1722,0.5582,0.1188,0.0461,-0.5494,0.6552
6636,0.027,-0.0117,9.7763,-0.1302,-0.7048,0.3121,30.4234,-9.2509,38.4597,-0.3393,0.6798,-0.7601,-0.2297,1.2182,-0.7222
6646,0.0249,0.096,9.7207,0.0195,0.1482,-0.2876,30.1335,-8.7607,38.1812,1.0002,-2.0384,0.345,0.574,0.2798,-0.9984
6657,-0.0053,0.0415,9.7764,0.5349,1.0856,-0.7333,28.8724,-9.8162,40.1703,-1.4043,0.2747,-0.0781,2.7298,0.5134,-0.8866
6667,-0.0592,-0.0475,9.7282,-0.5785,0.6281,-0.9366,31.1528,-8.2038,39.5002,-1.0829,0.0634,-2.0549,-0.4686,0.7123,0.3845
6678,-0.021,-0.0861,9.8177,0.3315,-1.3175,-0.4905,27.9752,-8.0167,39.3363,0.9166,-1.1319,0.5074,0.5581,-1.3215,-1.4324
6688,0.0807,0.1691,9.837,0.2018,0.8042,0.2093,30.684,-9.8897,39.7314,0.8245,0.2609,-0.1097,1.7287,-1.4499,0.1266
6699,0.1193,0.0039,9.7942,0.0279,-0.5937,-0.5982,29.0524,-9.3022,40.736,0.3259,0.1514,-0.4705,-0.0528,2.5893,0.7411
6710,-0.1249,-0.043,9.8198,0.4906,0.0576,0.1736,30.2855,-9.7497,42.1283,1.1929,0.4571,-0.1475,-0.5274,-0.2662,0.4884
6720,0.0808,-0.0453,9.8007,0.2381,0.3105,0.1632,28.6011,-11.3149,40.2452,-1.505,1.5386,0.4082,-0.4392,0.4314,-0.6379
6731,-0.1132,0.1155,9.7997,-0.0827,0.0273,0.5844,31.1002,-9.9385,39.0099,0.7683,0.4189,0.1697,-0.2391,0.6705,1.0338
6743,-0.0018,0.0493,9.8495,0.2453,0.1213,-0.0854,29.6172,-9.4134,41.4437,-0.5965,1.8746,1.6986,-1.6893,0.3891,-1.5528
6753,0.0697,-0.0229,9.89,0.2625,0.0638,0.5873,29.7888,-9.5823,39.9717,-0.7181,1.1554,-0.1133,-0.8011,1.1167,-0.0996
6764,0.0743,0.0015,9.7204,0.6138,0.2555,-0.2491,29.6322,-8.8357,41.0031,-0.1976,0.1074,-0.3999,-0.5162,0.0602,-0.2954
6774,-0.0584,-0.1852,9.8354,0.3941,-0.051,0.5086,29.5764,-9.3041,40.375,-0.7675,1.6015,-0.5362,0.5854,-1.472,1.8822
6785,-0.2171,0.0745,9.8117,-0.0189,-0.2812,-0.6213,31.1958,-10.6338,39.9034,0.877,0.4289,-1.9024,0.1189,0.529,0.574
6795,0.0683,-0.1009,9.7562,0.216,-0.0542,-0.3692,30.5069,-11.0744,40.5976,0.7728,-0.1021,-1.145,1.2783,1.602,-0.1096
6805,-0.0609,0.0115,9.6485,0.1731,-0.0218,-0.1434,30.2058,-10.5135,42.3871,1.6181,-0.3501,-0.0955,-0.4237,1.0044,0.4146
6815,-0.1115,-0.0221,9.7576,-0.7279,1.0915,-0.5296,30.4653,-10.2831,40.1195,-1.0087,0.3102,-0.6714,-0.618,0.3825,2.1366
6834,-0.0625,-0.1039,9.8107,0.0917,-0.1067,-0.445,30.2242,-10.4022,39.0766,-1.7944,0.211,0.2496,0.549,0.9517,-0.5379
6845,0.0161,0.0395,9.8381,-0.145,0.2846,0.5109,31.0002,-11.4186,41.1335,1.2834,1.6442,1.5357,2.1269,1.9924,0.1594
6856,0.1493,0.1453,9.8486,-0.3095,0.412,-0.8347,30.9296,-10.2418,40.2815,-0.6818,1.9051,0.3175,0.5083,0.8033,-0.8732
6866,-0.0114,0.157,9.782,0.4429,0.7257,-0.4423,28.5534,-11.0238,41.2558,1.7082,-1.2064,-1.4489,0.5961,1.2214,0.5428
6876,0.0588,-0.1412,9.7632,-0.0191,0.3485,0.7919,30.6975,-9.6935,40.8051,-1.4532,-1.3758,-0.6374,0.1408,1.0685,0.1116
6887,0.0806,0.068,9.7337,0.5411,-0.5151,-0.4035,29.1416,-9.7883,40.1047,-0.3523,-0.8886,0.1249,-0.0705,-0.2477,0.6319
6897,-0.0783,0.065,9.8241,0.7464,-0.2576,-0.608,29.2317,-9.8796,41.5244,-0.755,-1.5472,-0.5044,-0.0098,-0.3316,1.8301
6907,-0.087,-0.0469,9.8087,0.0734,-0.663,0.492,31.3609,-10.7542,40.1812,0.7231,-0.6279,-1.8543,-0.6649,-2.1334,-0.7817
6917,-0.1626,-0.0275,9.8555,0.0576,0.119,0.3925,30.734,-8.8324,38.6965,-1.2095,2.052,0.1373,-0.5478,-1.8782,-1.116
6927,0.0645,-0.079,9.778,-0.9611,0.1776,-0.8499,29.3049,-10.3939,40.8551,0.2136,-2.4081,-0.9955,-0.0752,0.5736,-0.9054
6937,-0.1679,-0.0594,9.8009,0.1013,0.1616,0.7776,27.4795,-10.1495,39.326,0.8751,-0.9109,0.38,0.7307,-0.5083,-0.8702
6948,-0.0985,0.11,9.8794,-0.2943,0.1003,-0.29,29.2899,-10.4171,42.2732,0.4253,-0.9822,1.4183,1.3416,1.2147,-1.0351
6961,-0.106,-0.0122,9.8409,-0.2436,-0.4698,0.9468,30.7346,-11.3595,41.4602,-1.3845,0.5712,-0.4621,-0.6429,-0.151,-1.8022
6971,0.0489,-0.144,9.7227,-1.0071,-0.0589,0.5303,31.6046,-10.1954,40.4054,0.0763,2.3905,0.7018,-0.4349,0.8668,1.412
6982,-0.1004,0.094,9.8098,0.4991,0.692,-0.2567,31.9012,-8.9081,40.7116,-0.8816,-0.5256,1.0224,-1.6818,1.9873,-0.6315
6994,-0.105,-0.0295,9.8193,0.0381,-0.3785,-0.1565,30.6205,-8.9916,40.4785,-0.9384,-0.162,-0.2943,0.2813,-1.0343,-1.4781
7005,-0.0626,0.1408,9.8277,0.9018,0.4292,0.2804,28.9634,-11.2728,38.8769,-2.7917,1.0487,0.199,0.3136,1.3931,-0.5122
7016,-0.0036,0.0817,9.7291,-0.2977,0.165,-0.9765,29.9411,-11.2904,39.6965,0.846,-0.1173,0.7256,0.1572,1.301,1.9423
7026,0.053,-0.0137,9.7347,-0.1359,0.7511,0.4314,32.1535,-10.5078,41.0007,-1.0252,-0.5799,-0.8707,-0.7171,-1.2314,-1.7308
7037,0.1033,0.1152,9.8431,-0.38,0.5521,0.2252,31.0179,-9.3278,37.9295,0.2491,-0.5036,0.5749,1.2786,-0.4027,0.9834
7047,-0.0401,0.1318,9.784,0.158,0.292,0.3527,30.7113,-10.6291,40.2146,0.8337,-1.8279,0.4343,-0.6479,-0.3227,0.4732
7058,-0.1028,-0.0339,9.793,0.0919,0.5798,-0.6322,30.1882,-10.7214,39.8941,2.3922,1.9848,0.9237,-1.4492,0.7182,-0.4142
7068,-0.1342,-0.0245,9.8035,-0.121,-0.1548,-0.7595,29.9092,-10.7707,39.934,-1.375,1.606,-0.9255,-0.4299,-0.9178,0.6884
7079,0.0629,0.1896,9.7617,-0.3101,-1.1727,0.1754,29.0105,-8.5648,38.5149,-0.6248,-0.5773,-0.4125,-2.2463,-1.2097,0.2101
7089,-0.0252,0.0557,9.7998,0.422,-0.3804,-0.3412,29.9921,-10.8781,41.2836,-0.7345,-1.5286,-0.0592,0.5712,1.1152,0.6439
7100,0.0258,-0.1326,9.7986,-0.4027,1.3014,-0.0796,30.3118,-8.7707,40.3511,-0.9207,-1.4076,-1.0053,-0.8279,0.472,-0.3518
7110,0.0803,-0.0258,9.8736,0.558,-0.1946,0.712,28.9417,-8.9996,39.7995,1.1596,-0.6947,-1.7204,-0.8553,-0.3865,1.0608
7120,-0.1221,-0.1711,9.8032,-0.5309,-0.6659,-0.0668,30.7152,-10.1279,40.8376,-0.3254,-0.1622,-0.1455,1.7183,-1.1024,-1.4078
7131,0.0312,0.2194,9.7868,-0.846,-0.5095,0.6598,29.997,-9.3609,38.6999,-0.8202,-0.4539,-0.6505,1.1463,0.0836,0.3767
7141,-0.0877,-0.0032,9.7938,0.4653,0.0683,0.2332,31.2937,-10.1389,39.7121,0.2182,-0.3979,-0.6198,1.7663,-0.0291,-1.036
7151,0.047,-0.0165,9.8214,0.2828,-0.333,0.7277,29.3579,-8.4929,38.1792,0.3795,1.8699,0.6821,-0.8132,-0.9369,-1.0373
7162,-0.0533,-0.0014,9.9088,-0.0744,0.3163,0.0901,29.5415,-10.4581,40.7997,-0.0151,0.0731,-1.1754,0.2627,-1.399,0.2013
7172,0.0895,-0.092,9.8688,-0.4071,0.2922,-1.0049,31.6351,-10.1181,39.2406,0.1814,-0.89,0.9377,-0.0533,1.1082,0.0566
7183,-0.2039,-0.1667,9.7746,-0.4151,-0.2409,0.1634,29.6354,-9.1617,41.0444,-0.4641,-1.0572,-0.5171,-0.9804,1.0116,2.3015
7197,-0.0687,0.0827,9.8006,0.9306,-0.0408,-0.2719,28.8916,-9.061,39.0509,1.1638,-1.2954,0.8179,0.0257,0.0396,-1.467
7213,-0.0042,0.027,9.7368,-0.1942,0.4015,0.034,32.7737,-7.958,38.3422,0.6889,-0.7261,0.6441,-1.184,0.7614,0.202
7224,-0.0385,-0.0645,9.7576,-0.6713,0.1523,0.6449,29.7821,-8.8347,41.6732,0.6577,0.8535,0.3357,0.4741,0.5872,-0.8551
7239,0.0874,0.1414,9.8322,0.0918,-0.3142,-0.8134,30.312,-10.4807,39.7066,1.9544,-2.2894,-0.4996,-1.4404,-0.3078,-0.6076
7251,0.0373,-0.0504,9.7467,-0.0719,0.5657,-0.5706,29.273,-9.3234,39.3553,0.3291,2.0633,0.8382,-0.6427,-0.4839,-1.2208
7261,-0.0904,-0.142,9.7592,0.0114,0.6386,-0.337,31.241,-10.5826,39.5326,1.0936,-1.85,0.8493,-0.3069,1.771,0.1507
7273,-0.006,-0.0097,9.8551,0.0792,0.31,-0.724,28.7264,-10.6101,40.0663,-0.109,-0.47,1.781,0.8863,0.4411,-1.4052
7283,-0.0303,-0.087,9.8802,1.3215,-0.0971,0.0356,30.246,-9.6625,40.4394,1.1366,0.0232,1.0956,-0.2113,0.3241,0.0411
7294,0.0364,0.0019,9.874,-0.3285,-0.5356,0.5049,29.8025,-11.7239,39.507,-0.1153,0.1916,0.9001,0.7987,-0.8734,1.4201
7304,-0.0659,-0.268,9.8401,0.4102,0.0344,0.1008,29.1403,-9.1843,40.5793,0.9794,0.3089,0.3205,-0.5568,1.0457,0.1993
7319,0.0393,0.1152,9.8315,0.0231,-0.5134,-0.0139,28.6668,-10.1279,38.7969,-0.2175,-1.2716,-1.5711,0.0585,0.019,2.5105
7329,-0.0211,0.0035,9.7769,0.0191,0.5257,0.776,28.171,-10.9618,39.9417,1.052,0.971,-0.4682,-0.5421,0.0648,0.4078
7340,-0.0218,0.0844,9.7556,-0.6944,0.3475,-0.3275,29.309,-10.4545,39.5365,-0.7106,0.6373,-2.5064,-0.1913,-0.8601,-0.8174
7350,0.0971,0.0551,9.8688,0.1619,-0.0371,-0.0993,30.7591,-9.7686,40.7706,-1.6915,-0.4863,0.8363,1.5104,-1.6617,-0.9246
7362,0.0568,0.005,9.8585,-0.5867,0.3715,0.9373,29.6921,-9.2828,41.8154,1.0089,-0.0237,1.7002,1.5521,-0.3732,1.0871
7372,-0.0293,-0.032,9.7752,-0.3506,-0.3277,-0.2663,29.531,-10.4345,38.7102,1.033,-0.4679,-0.5638,-1.6772,0.0024,-1.8959
7383,0.0667,-0.0185,9.8382,-0.3566,-0.1466,0.1647,30.7287,-8.9398,40.4983,-1.5124,-1.2289,1.4393,0.1314,-0.1443,0.0646
7393,0.1328,0.0105,9.9149,0.0974,0.744,-0.472,30.5635,-10.1295,40.6691,0.3822,-0.0397,0.5976,-0.7972,0.4579,0.6246
7404,-0.0027,0.0099,9.8295,-0.1518,0.4905,0.3119,29.6748,-10.5485,40.4332,-0.8047,-0.4161,2.2739,-1.177,-0.4585,-0.2351
7414,-0.24,-0.2196,9.8335,-0.2062,0.3076,-0.3088,28.8918,-10.0973,40.1833,0.7744,-0.8434,0.337,0.8163,1.0656,2.1581
7425,0.1287,0.0537,9.7191,-0.9533,-0.1394,0.2619,29.9387,-10.2025,39.322,-0.496,-1.3964,0.6759,-0.4192,-0.3899,-0.9844
7442,0.0439,0.0983,9.7907,0.0857,0.0863,0.2405,30.4593,-10.0657,40.6213,-0.7645,-0.4916,-0.8432,0.1241,-0.3183,0.2598
7452,0.0586,0.0609,9.7891,0.0222,-0.5143,-0.4304,29.9834,-9.5376,41.299,-1.9771,-0.8604,0.7137,-0.4017,-0.3841,0.2018
7462,-0.0115,0.1829,9.7992,-0.091,-0.0402,-0.4193,30.0112,-9.9023,40.7063,-0.261,0.813,-0.0898,0.1533,0.2632,1.007
7475,0.225,0.0045,9.8445,-0.0508,-0.6187,0.2163,30.4178,-10.3248,39.9648,0.5577,-0.904,1.557,0.6507,1.5738,-0.609
7487,0.1536,0.0514,9.7365,-0.0939,0.7507,-0.9392,29.9404,-10.4649,40.0592,-0.2223,-0.2889,0.8284,0.2371,0.2285,0.2175
7497,0.0735,0.1045,9.8424,0.0896,0.0761,-0.4743,30.8135,-8.8808,41.3254,-0.8875,-0.828,0.9289,1.0267,1.2537,-0.2755
7507,-0.1598,0.0523,9.8695,0.0893,0.329,-0.2169,29.498,-11.6,42.3887,-0.8362,-0.942,0.2255,0.0246,1.2348,0.6492
7518,0.0454,-0.0297,9.7447,0.2224,0.0114,-0.2649,29.7631,-11.0891,41.1894,0.1762,-0.0984,0.4268,0.7375,1.4846,0.6356
7528,-0.0889,0.0009,9.8391,-0.0541,-0.5435,-0.5349,30.3121,-9.6673,39.0051,0.3318,-1.87,-0.651,-0.025,-1.5858,-0.8349
7539,0.2991,-0.0313,9.8027,0.2774,-0.7271,-0.2796,30.8921,-12.0229,39.515,-1.0873,-0.9352,0.3842,0.0295,0.4595,-0.7255
7555,-0.1356,-0.119,9.801,0.0921,0.6151,0.1362,29.2566,-10.8315,40.2601,0.2613,-0.9297,0.224,2.215,-1.3476,0.098
7566,-0.0167,0.04,9.6822,0.0906,0.6696,0.8733,29.4796,-10.4304,38.5271,1.0159,-1.0067,-0.2096,0.4971,-0.7079,1.7933
7578,-0.0943,-0.1268,9.8609,0.5661,0.3118,0.3676,29.9758,-7.9994,40.0133,-1.0626,-1.953,0.4935,0.3513,1.0779,0.0652
7588,-0.0115,-0.0171,9.752,-0.3522,0.3498,-0.3003,31.8437,-10.0079,40.6777,-0.1008,-0.3966,0.0868,1.2205,0.0525,1.1889
7600,-0.139,-0.0392,9.8289,-0.1947,0.0475,-0.3317,29.9162,-10.1986,40.953,0.7066,0.2722,1.8071,1.2128,-1.0778,0.5464
7610,0.1028,-0.1027,9.7991,0.1163,0.545,1.1727,31.5341,-10.5753,40.5143,-0.495,-1.9025,-0.1685,0.5887,-0.9199,-1.4915
7621,-0.0928,-0.0016,9.8706,-0.5218,0.5146,0.5975,29.7335,-8.9914,40.7966,-0.3745,0.6705,0.1907,0.9695,1.3227,2.096
7632,-0.202,-0.1689,9.803,0.6121,0.0348,0.841,30.0745,-8.8126,39.9184,-0.8016,-0.6051,1.8119,-0.6445,-0.0829,1.2669
7642,0.0371,-0.1278,9.8966,0.1089,0.1891,1.8155,29.4627,-10.0445,39.9458,0.1871,0.1097,0.3224,1.4244,-1.1873,-0.08
7652,-0.018,0.0543,9.7749,-0.1629,-0.133,1.2323,29.9097,-10.3328,38.93,2.703,0.0523,0.2357,0.4722,0.0278,-0.3787
7663,0.0042,0.1394,9.8355,0.0427,-0.1446,0.2093,31.0559,-9.7398,42.1177,0.1301,0.2185,-0.7297,0.7756,0.393,0.6783
7677,0.0645,0.0354,9.8724,0.114,0.7938,0.089,29.0659,-10.0353,39.2952,1.1294,-0.9125,-2.1547,0.857,-0.0384,-0.3736
7688,0.1028,0.0413,9.8447,0.1049,-0.3162,0.1408,29.3847,-10.1699,39.448,-1.3948,1.3047,-0.1012,-0.4066,1.0645,0.4974
7700,0.1569,-0.1376,9.891,-0.0087,-0.0223,-0.126,29.6504,-11.0042,39.5252,0.9029,-1.1751,-0.164,-0.693,-1.2306,0.8887
7712,0.0218,0.0449,9.7751,-0.5255,-0.0709,-0.4791,29.9021,-11.0018,38.892,1.0954,-2.0067,0.2151,-0.4554,-0.768,-0.8304
7722,0.0247,0.1289,9.7423,-0.7828,-0.1089,0.1462,29.9907,-11.3197,40.5639,-0.4065,1.8204,-0.9144,-0.581,1.3076,0.316
7733,0.1011,0.0027,9.8132,0.3098,-0.9254,-0.2493,31.27,-9.1575,42.5063,-0.1471,0.6752,0.5339,-0.0004,-0.1175,-0.9825
7744,0.0877,0.0058,9.8686,0.1654,1.3601,-0.0548,31.0133,-10.114,38.8152,0.4333,-0.4464,0.3705,0.4286,0.0227,-0.346
7755,0.0023,0.0668,9.7821,0.1417,-0.2936,-0.8386,31.3893,-9.6148,39.4308,-0.5109,-0.4481,-0.6948,-0.3692,0.4588,1.1336
7765,-0.0203,0.265,9.7798,-0.3494,1.067,0.6517,30.3779,-11.0426,40.2653,0.2471,-0.9483,-0.826,0.5542,-0.0962,0.1644
7776,0.1134,-0.0165,9.8472,0.1805,-0.1973,0.8502,32.2573,-10.4881,42.0552,0.593,0.0987,-0.7361,0.557,-0.8142,-0.1975
7796,-0.0221,0.0775,9.806,-0.194,0.3151,-0.7528,29.1321,-8.445,40.9531,-0.5659,-1.2461,-1.1347,-0.7126,-0.6853,0.4703
7807,-0.047,0.0177,9.7397,0.1748,0.0909,-0.0264,29.1591,-11.413,41.1822,0.1374,0.9705,-1.8924,-0.3281,-0.6744,-0.7524
7818,0.1557,-0.0424,9.7638,0.9175,0.0728,-0.2361,30.0002,-9.0425,38.8624,0.3683,0.9268,0.7062,1.4032,-0.0784,0.3532
7830,-0.0868,0.0713,9.7792,0.3437,-1.1192,-0.4214,31.3947,-10.7381,40.7344,0.0607,-0.0484,-0.1441,1.3785,-1.0307,0.2173
7841,-0.2199,-0.0502,9.8483,-0.6013,0.4114,0.6533,28.1802,-9.7289,39.3484,-1.497,0.6823,-0.5851,0.3178,0.9033,2.0548
7851,-0.0479,0.0094,9.7871,-0.1052,0.1839,-0.1836,28.8488,-8.2767,38.9074,0.0812,-2.1576,-1.8162,-0.252,-0.9722,-1.0574
7863,0.0101,0.1846,9.799,-0.379,-0.1527,-0.3318,28.8017,-9.495,40.0256,0.2227,-0.7354,-0.0288,0.8283,-0.2828,0.8308
7873,0.0539,-0.0962,9.8036,0.2775,-0.5446,0.0039,29.9816,-9.505,38.466,0.2438,0.3712,-0.0048,1.2805,-1.2354,-0.4422
7883,0.0287,0.0995,9.7961,-0.3661,0.1107,-0.1962,29.8541,-10.0011,37.4963,-0.596,-0.3918,1.6801,-0.3399,0.6058,-0.7086
7894,-0.1474,-0.0298,9.7898,0.4937,0.7888,0.1595,30.6432,-11.5143,40.6186,0.0448,-1.0565,-2.0243,-0.1768,0.2582,-0.5756
7905,-0.1775,-0.1096,9.7482,-0.5834,0.7679,-0.03,31.361,-9.3665,40.5348,0.2879,1.05,-1.4811,0.9961,1.7883,-0.1243
7920,0.0959,-0.0255,9.7707,0.5202,-0.1999,0.0403,31.5272,-8.3877,39.3576,-0.4945,-0.5092,0.9826,-0.4573,-0.2065,-0.2575
7930,-0.0284,0.0942,9.825,-0.047,-0.8581,0.1465,31.1167,-8.5188,39.2022,-1.1639,0.9459,0.3526,0.2681,-0.8487,2.2484
7940,0.2734,0.0796,9.8742,-0.6953,-0.2931,0.6041,28.9215,-9.9182,39.5593,1.0791,-0.2217,0.1392,-0.0201,-0.6845,0.3417
7951,-0.1215,-0.1494,9.7973,0.3032,-0.746,0.1761,31.3712,-8.1763,38.7766,0.9735,-1.7366,-0.5576,1.017,0.3159,1.2387
7962,0.1166,-0.0224,9.7949,0.7322,-0.5146,0.0868,30.9225,-9.2385,40.5474,-0.8498,-0.7501,0.5557,-0.6391,-0.0229,-0.1511
7973,-0.0262,0.0298,9.8064,0.2859,0.2988,-0.9243,29.7433,-9.1397,41.2796,-2.1588,-0.7727,0.2656,2.0512,0.0694,1.5171
7986,0.1601,-0.0512,9.8103,0.1456,-0.4331,-0.1971,28.2624,-10.1796,39.6779,-0.4869,0.8172,-0.4738,0.8518,-1.4172,-2.0921
7997,0.1326,0.106,9.7935,0.5169,-0.5468,0.114,28.8137,-8.3633,38.5901,0.0309,0.7108,0.206,-1.5379,-0.7542,-0.9868
8007,-0.1911,-0.0821,9.7354,0.0391,-0.2029,-0.122,31.9396,-12.3387,38.7622,-0.4034,0.222,-0.5965,-1.2653,-0.3313,-1.2817
8017,-0.1523,0.0207,9.7836,-0.0018,-0.285,0.2587,27.8981,-10.7483,41.5629,-1.2745,-0.9831,-1.8812,-0.9842,-0.5121,-0.9572
8028,-0.0684,-0.0892,9.7727,0.2952,-0.6364,-0.4731,28.8633,-10.674,41.0162,-0.6526,0.0196,-1.1395,0.3557,-1.0597,0.2951
8045,0.0504,0.1088,9.8653,0.0522,-1.1292,0.4192,31.4353,-11.0602,38.9415,-0.4582,0.7413,1.9177,1.831,0.31,-0.3626
8055,0.2942,-0.018,9.7883,0.2624,-0.4876,0.6179,30.9212,-9.4126,40.7475,2.5989,-0.4,-0.0432,0.5297,0.1246,0.3164
8067,0.0636,-0.0551,9.8192,0.4425,0.3646,-0.0678,30.026,-9.6481,40.7275,-0.5667,-0.715,-0.4116,-1.0775,-0.3429,-0.9859
8078,0.1127,0.1626,9.8087,-0.4446,-0.0739,1.0304,29.7597,-10.8509,40.9109,-1.7366,-0.0839,0.3773,-0.4575,0.7308,1.2795
8088,-0.0433,0.141,9.8161,0.5867,-0.4044,0.3224,29.0344,-9.1375,38.9869,0.8965,-0.9815,-0.214,0.2067,1.1149,-0.9848
8099,0.0209,-0.0528,9.8049,-0.2573,0.0287,-0.153,30.0157,-11.4207,40.5822,-1.97,1.3421,0.8018,0.989,-0.4988,-1.3856
8111,-0.1549,0.0405,9.8183,-1.5554,0.1918,-1.2261,30.3099,-10.9373,40.6111,1.6666,-0.7491,0.6603,-0.9567,-0.5988,0.1033
8121,0.0745,0.1272,9.7491,-0.1461,-0.6196,-0.2001,30.2817,-9.6554,40.222,-0.6294,2.1591,0.356,-0.1115,-0.0949,-1.374
8131,0.0712,-0.0659,9.6978,0.6197,0.1811,0.0484,29.2054,-10.1205,40.7368,-0.3608,0.1759,1.6692,-0.4644,1.3297,-0.8006
8142,0.0794,-0.0192,9.7539,0.0594,-0.4387,-0.2541,30.4673,-11.8124,40.595,0.0315,0.8991,-0.4693,1.0051,-0.7199,0.6146
8152,0.0181,0.005,9.8001,0.1645,-0.4113,-0.5011,28.9901,-8.9564,41.6224,-0.9839,-1.5472,0.7804,-1.0135,1.1003,0.0453
8164,-0.1165,-0.0345,9.8372,0.7044,-0.3509,-0.7969,27.7207,-12.5974,40.4954,1.7316,-0.0993,-0.7724,-0.7007,-1.3696,0.7158
8175,-0.0837,-0.0421,9.8017,0.6209,-0.1058,-0.6629,31.9906,-9.4891,40.0442,-0.8064,0.5887,1.1907,1.0238,-0.097,-0.0586
8187,0.0131,-0.0436,9.737,-0.2823,-0.168,-0.1269,30.7109,-8.5131,39.6904,-1.3076,-0.6088,-0.1813,1.5491,2.732,-1.5653
8199,-0.0601,0.178,9.8138,-0.9413,0.1908,-0.8505,29.7433,-11.3489,38.8695,-0.038,0.8186,0.5879,0.9058,-1.7652,0.7488
8212,0.0032,-0.0055,9.8499,-0.5343,-0.0835,-0.4675,29.0222,-10.3089,41.6394,-0.1769,-1.4572,0.1243,-0.0313,-0.1744,0.7182
8222,0.0538,-0.1421,9.8278,0.036,-0.0116,-1.0865,30.56,-11.1899,38.5071,-0.3489,0.3587,-0.808,-0.9125,-0.1565,-0.8662
8234,0.0337,-0.0747,9.783,-0.4767,0.0142,-0.4176,30.9255,-10.3128,39.4885,1.9604,-0.2069,-0.8979,0.5184,-2.2287,0.7573
8245,0.0945,-0.1244,9.8341,-0.3133,0.3641,0.9389,31.4731,-10.7968,40.5031,-2.4058,-0.7769,0.9422,3.5134,-0.6472,-1.7153
8255,0.0039,0.0001,9.7407,0.3122,0.3408,-0.4376,29.7384,-9.3298,41.3312,-0.7103,0.1885,0.5267,1.0102,-0.388,-0.6005
8266,-0.1288,0.0556,9.7859,-0.6987,0.3557,-0.2827,29.6734,-9.7547,40.5439,-0.2308,-1.5281,-1.1859,0.3966,-0.2271,1.3682
8276,-0.0173,-0.0916,9.788,1.1899,0.5283,-0.0641,29.9924,-9.8971,39.3156,2.3984,-0.7369,-1.1064,-0.7028,1.6713,0.4693
8297,-0.0389,0.121,9.8303,0.1551,-0.7906,-0.0214,28.5373,-9.8591,39.3251,0.4121,-2.0975,1.8414,2.2939,0.8744,0.8681
8308,-0.074,-0.0242,9.8182,0.8839,0.0614,0.6097,29.2425,-9.8708,40.3181,-0.1253,0.1925,-0.2336,0.1373,-1.9341,-0.1892
8322,0.2012,-0.0599,9.7487,-0.322,0.3552,-0.3111,30.2806,-10.4018,39.8295,-0.6604,-0.3242,-0.5611,0.0465,-0.0706,1.0174
8333,0.1368,-0.0653,9.7852,-0.4713,-0.0225,-0.3829,30.1131,-8.8902,39.2629,0.582,0.967,1.2687,0.2805,-0.4109,1.0935
8345,0.0411,0.0416,9.8056,-0.1128,0.3234,1.4451,30.2733,-10.1072,39.3465,1.4815,0.7848,0.1935,-1.1641,-1.6957,-1.7093
8356,0.1556,-0.0114,9.7653,-0.1823,0.2841,0.0829,31.1075,-10.1065,41.0092,-0.3367,-1.4927,0.028,-1.0797,-2.4361,-0.6299
8367,0.1765,0.1004,9.693,-0.1539,-0.3977,1.0014,30.7251,-9.5532,40.7683,-0.1178,-0.0702,-0.9649,-1.3342,-0.2081,0.0853
8377,-0.1663,0.0885,9.8279,-0.2765,-0.4702,0.8515,29.2561,-8.1009,38.7826,0.4154,-1.8929,0.9875,-0.5896,-0.0284,-0.1029
8388,0.0363,0.1864,9.8199,0.173,-0.144,0.7737,28.6849,-9.755,39.354,0.8646,-0.4201,-2.1338,-0.7791,1.316,1.2714
8398,-0.0785,0.0051,9.7894,-0.1624,0.5077,-0.6465,31.4594,-8.4774,40.441,0.8408,-1.5344,-0.5841,0.578,-0.6344,1.8166
8409,-0.0812,-0.0286,9.7124,0.2365,-0.1963,-0.474,29.7382,-7.6382,40.5493,-1.981,1.4905,1.221,-1.0463,0.2531,0.1399
8420,0.0289,0.0284,9.7657,-0.1234,-0.4364,0.5061,29.7494,-10.2241,40.1497,0.941,0.5025,-1.5903,1.191,-0.4103,1.68
8430,0.0561,0.0091,9.7914,0.5233,0.2712,-0.2605,30.4216,-9.9768,39.66,-1.3627,-1.1454,-0.0915,-0.3699,-1.9767,-0.6042
8444,-0.0171,-0.0842,9.7734,-0.1513,-0.2581,0.2448,30.6808,-8.0583,40.2188,-1.0253,1.3529,-0.4358,3.1516,0.9984,0.4231
8455,-0.102,0.0714,9.7956,0.1904,-0.7488,0.597,29.6788,-9.053,41.4191,-0.88,-0.3062,0.3182,1.109,-0.8007,-1.7807
8466,-0.0082,0.108,9.7472,0.0623,-0.2688,-0.4868,30.5461,-10.5109,40.6393,1.2436,-1.0792,0.1286,-0.3131,-0.7806,0.0805
8478,-0.2553,-0.0516,9.7752,0.5185,0.4773,-0.3197,32.0188,-9.544,40.9059,-0.3918,-0.0101,1.7268,-0.8335,-0.8185,-0.8404
8488,0.0114,0.0418,9.775,-0.863,0.5057,-0.3194,30.597,-11.6387,39.5894,-0.5929,-0.7855,-0.3495,0.1573,-0.039,-2.3881
8498,-0.0733,-0.0616,9.7458,-0.3348,-0.1989,-0.218,29.703,-10.4836,39.0363,-0.3479,0.8486,2.4147,-1.1415,1.439,-0.6084
8509,-0.0409,0.1674,9.8056,-0.4889,-0.7654,0.4542,29.5073,-8.446,39.4326,1.5955,1.1279,0.971,-0.7323,1.9553,0.3265
8519,-0.0321,-0.1981,9.8589,0.1454,-0.1336,0.5594,28.744,-10.1228,38.3244,0.8916,-1.5779,-2.0086,-1.0192,0.3847,1.5454
8542,-0.0654,-0.1816,9.8487,-0.1297,0.5162,0.9532,31.6556,-8.9649,39.2835,-0.2203,0.8166,0.1995,-1.3314,0.373,0.2813
8580,-0.0134,0.078,9.8116,0.14,-0.3656,-0.5845,28.83,-10.8673,39.8955,-0.055,-0.3541,1.6976,-1.2706,-1.8206,0.9506
8594,0.0668,-0.0618,9.7884,1.3191,0.431,-0.4166,29.9489,-10.5078,40.9448,0.4436,-0.5144,1.2192,-0.5759,-0.6968,1.3264
8606,-0.0494,0.0504,9.866,-0.0812,0.2838,-0.3414,31.5667,-9.2684,39.6489,0.7463,0.6481,-0.3922,-0.6803,0.106,-1.1887
8617,0.0568,-0.1667,9.7863,-0.1991,0.2316,0.1968,30.8245,-11.0763,41.2127,2.1177,0.8543,0.7398,-1.5547,0.488,1.0105
8627,0.1516,-0.1439,9.7356,-0.7174,-0.6165,-0.1018,30.9626,-12.0658,39.8091,-0.7594,-0.0064,-1.8999,2.2918,0.8447,-0.5175
8638,0.0332,-0.0291,9.797,-0.1861,0.2703,0.3702,30.4222,-10.2672,40.272,-0.3509,1.7262,1.5947,-1.2805,-0.3984,-0.0925
8648,-0.032,0.0241,9.7796,-0.2092,0.597,0.1116,28.4933,-10.9385,39.7304,-0.8987,-0.9173,1.3627,0.073,1.2399,-0.1292
8660,-0.0265,-0.0945,9.792,-0.0223,0.8328,-0.7181,29.8332,-12.062,40.4935,-1.2601,-0.7152,1.0768,1.2969,-0.4042,0.8683
8677,-0.1134,-0.0447,9.7113,0.4363,0.1977,0.9925,30.5239,-9.1571,40.3142,-0.3883,-0.3029,-0.1007,0.334,-0.5016,-1.3521
8688,-0.0947,-0.2166,9.8043,-0.0544,-1.2312,-0.3341,30.5338,-9.853,41.4764,1.647,-1.7665,-0.9817,-1.6122,1.4148,0.4908
8699,0.1448,-0.1116,9.8047,0.3681,0.4905,0.4894,30.5935,-7.8762,39.3895,-0.451,0.0682,-0.975,-1.3039,-0.1787,0.8864
8710,0.0148,0.0253,9.7146,0.366,-0.0731,0.5198,29.4724,-10.5838,38.9278,-0.2735,0.8416,-1.7259,-0.2325,-0.1603,-1.4151
8723,-0.1006,-0.0193,9.7459,0.1965,-0.4215,-0.0748,30.1831,-11.1215,41.9383,-0.3456,0.2078,-1.4496,0.2911,-0.6332,1.0879
8734,-0.1969,-0.0767,9.8501,-0.6133,0.5264,-0.0568,30.8211,-10.3326,39.5404,-1.0541,-0.4137,1.4456,1.0246,0.2124,0.5369
8745,0.0515,0.1051,9.8134,0.6235,-0.3811,-0.5501,29.8862,-8.8456,41.565,0.8655,0.871,1.1097,0.3299,0.9782,0.675
8755,-0.0158,0.1005,9.8434,-0.1689,-0.2344,-0.4357,30.0326,-8.8469,38.3903,-0.1671,2.8863,-3.2534,-0.982,0.638,2.7157
8765,0.2461,0.1461,9.7923,-0.9038,-0.627,0.7357,29.3429,-9.4705,41.4068,-0.4948,1.7628,-0.8023,-0.4305,0.8283,2.055
8779,0.0335,-0.2456,9.8088,0.3529,0.3968,0.4085,31.501,-10.3624,38.2302,0.4027,-0.4281,1.3425,-0.0463,-0.9023,-0.0366
8790,0.0715,0.0193,9.7796,0.091,0.4977,0.1683,29.4085,-10.3266,40.1419,0.0756,0.0456,0.1189,1.2861,-3.3584,1.4227
8801,0.1343,-0.0943,9.7421,-0.8263,-0.0945,0.1112,30.561,-9.9469,39.6817,1.7974,-0.3481,0.3342,-2.6743,-0.7609,-0.3762
8812,0.0993,-0.0132,9.7457,-0.1357,0.0371,0.5882,29.2521,-10.7254,41.9609,0.2105,-1.9696,1.0128,-1.8047,-0.9989,-0.8874
8822,0.0511,-0.016,9.8277,0.8236,0.204,0.6338,29.8126,-11.3707,39.0257,1.0831,0.4127,1.0559,1.6371,-0.1133,-0.6109
8833,-0.0609,0.012,9.6973,0.6229,-0.0958,0.5546,30.4603,-9.8403,40.175,0.5318,0.3579,0.8021,-0.3171,-1.3743,0.8213
8843,0.149,0.1641,9.7761,-0.436,1.2488,-0.0342,30.7991,-8.4985,39.8559,-0.6299,-0.6017,0.5197,0.6942,2.5255,-0.2408
8854,-0.2334,0.1625,9.8936,-1.4239,-0.2047,0.3975,28.5441,-11.6915,38.5238,0.507,1.8516,-1.2127,-0.2666,0.5294,-1.3481
8864,0.067,-0.1138,9.8324,-1.0323,0.0506,0.4516,30.5309,-9.4199,39.0063,1.2947,-1.5609,2.4226,0.4026,0.7499,-1.2987
8874,0.1403,-0.1881,9.7875,-0.2117,0.1477,0.9919,27.9558,-9.361,38.4253,-1.605,-1.3381,3.2679,0.1583,0.0156,1.3183
8884,-0.0542,0.0064,9.8025,0.607,0.2926,0.2224,30.9792,-10.0667,38.4924,-0.1642,0.209,0.0229,0.1861,-0.2602,0.867
8903,0.0556,0.1847,9.7939,0.4474,0.4972,-0.0088,30.2533,-8.8225,40.1899,-0.4998,-0.0994,1.8266,-0.8047,1.7668,-0.0479
8913,-0.0341,0.0444,9.821,0.1676,-1.4412,-0.4723,29.4153,-9.6949,39.8726,-1.7,-1.5184,1.1535,0.1577,-0.1396,0.4327
8924,-0.0891,0.0318,9.8362,-0.2264,-0.5059,-0.6303,30.357,-10.1404,38.6792,-0.2134,0.8739,-1.8452,-0.0366,0.126,1.1311
8935,0.0773,-0.0121,9.9077,-0.3333,-0.1086,-0.3379,30.207,-10.3471,40.6168,-0.5509,2.3603,-0.8202,-0.5917,1.1356,-1.033
8945,-0.0375,0.0579,9.8125,0.3032,0.1038,0.0941,28.4733,-8.9679,38.7882,0.2471,0.6367,0.5954,-0.4228,-1.2906,0.915
8955,-0.065,0.0738,9.8007,0.4233,-0.0043,-0.5045,27.714,-8.8219,39.5072,0.1355,0.6456,-0.1278,0.8042,-0.333,-0.9057
8965,-0.1663,-0.1444,9.7572,-0.0877,-0.1314,-0.1112,29.7959,-9.8444,41.6465,2.2686,-0.4246,-0.6531,1.2403,0.2386,0.8073
8976,0.1204,0.0406,9.7893,0.0906,0.6356,0.4448,30.1148,-8.7837,40.5889,-1.073,-0.3031,0.2471,0.4729,-1.3127,-0.881
8986,0.0195,-0.0506,9.7472,-0.0944,0.1704,-0.5144,29.5714,-9.435,38.8111,-1.3809,-0.2388,1.0084,0.4625,0.966,2.3554
8997,-0.0736,0.2415,9.7324,0.401,-0.7162,0.6375,31.117,-10.8715,39.0303,-0.2024,1.4693,-1.8007,-0.5729,-0.0635,0.3334
9007,-0.0163,0.035,9.7992,-0.1172,-0.1854,-1.0773,29.982,-10.2091,40.3346,-1.8663,-1.3532,1.5293,-0.9235,-0.6629,-0.588
9018,-0.1064,0.126,9.7865,0.4849,-0.1762,-0.0766,31.2904,-11.1465,41.0627,0.034,1.2194,1.8841,0.7084,0.3916,0.3673
9031,-0.0097,-0.1136,9.8562,0.4103,0.2105,0.4847,30.1354,-11.2222,38.6902,0.0747,-0.6413,-0.3072,0.019,-0.9994,0.4048
9041,-0.0455,-0.046,9.7925,-0.2904,0.3143,0.6043,29.1925,-9.2178,41.5806,0.2899,0.8421,1.467,1.1704,-1.2705,-0.1114
9055,0.0465,0.1963,9.878,-0.086,0.5306,0.5067,30.6403,-12.1532,39.488,-0.1292,0.3076,0.2076,0.6104,-0.0871,-2.0353
9066,-0.0921,-0.1934,9.6988,0.2829,-0.5955,0.1779,31.57,-11.5881,39.6447,-0.9467,1.5806,-0.4549,0.4796,-0.9975,0.2703
9077,0.1006,0.0551,9.761,-0.3857,-0.6543,0.4665,30.7965,-10.6548,39.8871,0.9385,0.5563,-0.3084,-0.1451,1.1871,0.4356
9089,0.032,-0.0002,9.7069,-0.2102,0.2204,-0.1385,28.5426,-10.6174,41.1261,0.8146,-0.405,0.6347,-0.3764,0.4789,-0.757
9100,0.2339,0.0673,9.7512,0.2836,-0.6568,0.4638,31.3311,-11.0933,41.4192,-0.3516,-1.04,0.9101,-0.1148,-0.1294,-2.0275
9110,-0.1793,-0.0805,9.7573,-0.2686,0.203,0.5998,28.5313,-9.5877,39.3532,1.5387,-0.7789,1.7109,-0.6019,-0.3041,-0.4271
9120,0.1651,-0.0588,9.8773,0.1694,0.0409,0.0659,28.4201,-11.012,37.808,0.5199,-1.7979,-0.7468,-0.7151,-0.5984,-1.4275
9130,-0.0641,0.1032,9.807,0.867,0.0315,-0.8606,29.8642,-10.1869,39.2884,-0.2613,-0.723,-0.9319,0.7278,-0.9676,1.0
9140,-0.0328,0.0065,9.7853,0.0821,0.5368,0.2476,31.1973,-9.8144,41.0979,-0.0746,1.0534,0.0402,1.2384,0.7769,-0.3986
9155,-0.0223,0.0686,9.7914,-0.3033,-0.3688,-0.0784,31.2439,-8.0657,40.7238,0.0586,0.7524,0.36,0.3673,-1.4415,-0.6172
9170,0.0825,0.0599,9.7309,0.1928,0.4233,0.0532,29.9107,-7.7501,41.9013,0.9811,-0.9676,-1.9139,0.6492,-0.0736,0.9463
9182,0.0227,-0.0649,9.825,0.0472,-0.2504,0.3648,31.139,-7.4723,40.6568,1.2653,-1.9539,1.6775,0.2475,0.135,0.1768
9193,-0.078,0.157,9.8093,-0.1682,-0.2771,-0.0308,29.4006,-9.518,38.8175,0.4067,0.4213,-0.8126,0.006,-0.0957,1.9491
9203,0.1072,-0.0553,9.848,0.3306,-0.3352,-0.1518,31.6109,-10.7823,38.9598,0.485,0.574,-0.5997,0.7532,-1.2179,-0.058
9213,0.0483,0.0827,9.7846,-0.0584,-0.1777,-0.739,30.0941,-9.8273,39.3721,-2.5953,-0.1913,-1.1736,-1.567,-0.6529,-0.3796
9224,0.1952,-0.0269,9.8089,0.1017,-0.382,0.3855,28.0997,-9.0934,38.9705,0.3352,0.0724,-1.0079,0.2033,-1.5729,0.2938
9234,-0.0006,-0.1498,9.8477,0.3301,-0.2224,0.1944,29.1196,-9.8087,39.4734,1.4597,-1.1562,-0.5698,1.0336,0.2099,1.4722
9245,0.2125,0.086,9.7238,-0.7817,-0.7162,-0.128,31.1835,-12.3674,39.4885,-0.2092,1.6963,-0.7195,0.0181,0.6326,0.2809
9255,0.0886,-0.0089,9.7636,0.5458,0.2492,-0.0439,30.1762,-10.3232,39.0464,0.7268,-1.1213,0.6667,-1.3588,-0.0807,-2.0367
9266,-0.0749,0.078,9.7884,0.5756,0.9135,-0.1613,30.4775,-10.4632,40.6773,-0.9613,-0.6474,0.3388,0.6216,0.5892,-0.7328
9278,-0.0742,0.0007,9.7696,-0.3086,0.1525,0.6534,29.6744,-10.9548,39.863,-0.8252,-0.3302,-1.3954,0.9868,-0.2789,0.9427
9290,0.0767,-0.0746,9.835,-0.497,0.5463,-0.2764,31.5405,-8.443,40.6729,2.6208,1.6779,-2.0202,1.2126,1.1573,-0.8614
9301,0.0105,-0.0281,9.8267,-0.0976,0.0049,-0.2368,31.2041,-10.1123,39.4936,0.6835,-0.4628,-2.6355,0.2005,-0.9703,-0.218
9313,0.0415,-0.1009,9.7167,0.2788,0.6787,-0.5876,29.1697,-9.6822,38.1281,-1.2678,-0.7995,1.3381,-0.8153,-0.377,-0.7638
9323,0.0506,-0.1631,9.7874,-0.2152,-0.0016,-0.2606,29.7599,-7.7938,40.6331,0.7027,-0.5941,0.0556,1.8432,-1.1654,-0.8565
9334,0.0366,0.1613,9.8141,-0.6205,0.0628,0.7428,31.275,-10.2038,40.1063,-2.7211,-1.2314,0.7263,-0.5875,-0.0007,0.1569
9344,-0.0252,-0.1754,9.8402,-0.7706,1.0713,0.8658,31.1954,-10.6363,41.7092,2.3453,-0.1875,0.4598,2.4701,-0.9039,0.6363
9355,0.0226,0.0823,9.6659,-0.6942,-0.115,-0.6095,28.635,-11.0773,39.7173,1.0344,0.8951,-0.3318,0.2753,1.7774,-0.2318
9365,0.0913,0.0092,9.8352,-0.295,-0.1768,-0.6856,29.9212,-10.179,40.8495,-0.3871,0.1139,-1.0826,-0.1834,-0.4614,1.1061
9375,-0.064,-0.0543,9.7379,-0.9578,-0.9344,-0.3668,29.804,-7.8202,39.0049,-0.0941,1.6891,-1.3313,0.909,0.0708,-0.414
9386,-0.0357,-0.0417,9.715,0.9588,0.053,0.2696,29.5262,-8.2749,39.2081,0.4655,0.1139,-1.7254,1.4275,0.7222,-0.625
9405,-0.024,-0.1124,9.7501,0.2851,0.5705,0.8209,30.6149,-10.4356,39.3285,1.1649,0.3862,0.1115,0.1185,-1.5671,-1.1338
9416,-0.1724,-0.0332,9.8021,-0.0553,-0.3282,0.4156,30.8252,-9.9517,39.9366,0.0471,-0.234,1.1362,-0.2635,0.1791,0.2629
9427,-0.1206,-0.1655,9.7918,-0.0932,-0.402,-0.5224,29.4561,-9.6599,39.0956,-0.8755,-0.2504,0.8167,-0.4127,0.5395,0.0574
9438,-0.0557,0.1039,9.7191,-0.3556,0.9869,0.8606,29.2933,-12.8018,39.6134,0.1317,-0.4974,-1.0624,0.9132,-1.1346,-0.578
9449,0.1007,0.0072,9.9204,-0.4318,-0.4784,0.0477,30.8903,-10.0964,39.707,1.0797,-0.349,-1.3728,-0.3387,0.2885,-1.1751
9459,-0.0099,0.0095,9.8259,0.084,0.5568,-0.6796,29.2736,-7.3236,42.0759,-0.1976,-0.6731,-0.2166,0.2484,1.2392,-0.6747
9470,-0.1566,-0.1011,9.7348,0.6643,0.1281,0.7273,29.7389,-10.4536,39.6179,0.0357,0.7081,-0.1601,-0.7267,0.3239,0.0304
9480,-0.1104,-0.0666,9.8153,1.2646,0.0233,0.3351,30.5409,-10.3645,39.9882,-0.7429,2.4036,1.4986,-0.7123,-1.2549,0.4969
9491,-0.0456,0.005,9.7892,0.3105,0.433,0.2655,29.9848,-8.3644,39.5319,-1.1565,1.1796,-0.3194,1.1118,-0.215,0.9273
9501,0.0892,0.1477,9.841,-0.4838,-0.0495,-0.4738,30.3225,-9.9955,38.6782,-0.6178,0.8989,2.2302,-0.0455,0.5939,-1.0959
9512,-0.077,0.089,9.7647,-0.3549,-0.384,-0.8774,29.4438,-9.6254,38.2169,-0.4907,-1.3925,0.7535,0.7193,0.9166,0.7126
9523,-0.0616,-0.0726,9.8127,0.1632,0.7643,-0.5111,31.3938,-9.9341,39.1265,-1.0482,-2.1708,0.6035,0.2103,-0.1919,0.4349
9534,0.2067,-0.0414,9.7948,-0.0532,0.0004,0.2094,30.8543,-9.4827,40.9771,0.9086,1.5363,-0.185,1.2592,-0.5472,-0.4839
9545,-0.0872,-0.0942,9.8343,0.4091,0.547,-0.4294,28.9316,-10.321,40.1225,-0.0685,-0.0454,-3.455,-0.5269,-0.7811,0.1629
9558,0.0969,0.0756,9.9304,-0.3854,-0.435,0.1002,28.9805,-10.4881,39.957,0.6616,-0.7448,-0.3537,0.0792,0.0522,1.4246
9569,0.1328,-0.0634,9.7393,0.0663,0.4478,0.7232,29.8555,-9.7017,39.5057,-0.9266,-0.2235,2.1339,0.8971,0.2387,-0.2711
9581,0.0162,0.0295,9.7426,0.6457,-0.1512,-0.2726,29.4572,-11.2871,37.9643,1.3164,-1.9621,0.7121,-0.271,-0.2225,-0.7647
9592,0.018,-0.0095,9.7711,-0.695,0.1669,0.2455,30.8573,-9.7924,39.7471,-0.6246,0.3198,-0.2121,1.3324,0.114,-0.1856
9602,-0.0389,0.0548,9.7739,0.1727,-0.1474,-0.2421,30.4776,-8.8887,39.1849,-0.7318,0.1888,2.0568,-1.5092,-0.2363,0.7539
9612,0.1462,-0.035,9.8452,0.0875,-0.0941,0.2148,29.7198,-10.4894,38.6512,1.4827,-0.6581,0.4381,-0.3226,-0.8951,1.2397
9622,0.1609,-0.0019,9.8254,-0.8531,1.1091,0.2277,30.8872,-10.9192,39.5984,-0.3807,-1.5681,-0.7907,-0.6367,1.2313,0.7456
9633,-0.1532,-0.0187,9.7685,0.6056,0.2056,0.093,29.782,-10.3084,39.5496,-0.9337,-0.7476,1.3236,-0.4268,-0.5841,-0.0411
9643,0.0802,0.1255,9.8269,-0.852,0.825,0.2474,30.6052,-9.4594,40.631,1.6982,-1.6294,0.2743,0.8494,0.9668,-0.2571
9655,0.0004,-0.1826,9.7468,-0.2422,-0.0916,0.1532,30.2401,-10.3313,39.6616,-0.2194,-1.7774,-0.1014,-1.5931,-0.6657,0.2688
9666,-0.03,0.2127,9.7876,-0.4485,-0.4574,-0.562,28.5325,-10.6296,40.2087,-1.7336,-0.9213,0.0493,-0.3569,-1.5702,2.202
9676,-0.0798,0.1846,9.7521,-0.3237,0.7312,0.9378,30.6082,-9.9166,38.7363,-0.5684,-0.0792,-0.6223,0.076,2.0464,-0.8906
9686,0.1204,-0.2519,9.8175,-0.4653,0.2471,0.9172,32.4308,-9.4896,40.1038,-0.5983,-0.821,0.2948,-1.0706,2.038,-0.6665
9697,-0.0363,-0.1326,9.7785,-0.0203,-0.0406,1.0393,29.9693,-8.1731,40.737,0.0841,0.7841,-1.1485,1.3805,1.701,-0.8623
9707,0.0148,-0.1369,9.7484,0.1846,-0.1639,-0.4859,30.4034,-9.4503,39.0104,-1.4333,0.6696,-0.8483,-0.687,0.69,-0.1609
9718,-0.0694,0.0543,9.8407,0.3064,-0.0023,-0.1863,30.7011,-9.18,40.5887,-0.2059,-0.7611,0.5559,0.7574,-2.0989,-0.6029
9728,-0.0443,0.1635,9.8519,0.8322,-0.5356,0.4624,30.5316,-10.082,41.8905,-0.1868,-1.5995,2.5099,-1.7215,-0.629,-0.9405
9739,-0.0124,0.0262,9.7514,0.0428,-0.6361,1.0253,30.4041,-10.8312,40.0661,1.1394,-0.1141,0.8708,-1.4774,-1.5467,0.9687
9749,-0.0377,-0.0715,9.819,-0.163,-0.0954,-0.1107,30.8872,-11.12,41.2495,-0.8338,-0.1735,0.1306,1.0128,-0.5289,1.1124
9759,-0.1428,0.0085,9.7672,-0.1575,0.8861,0.3968,29.4013,-10.137,42.0493,0.0973,-0.5797,-1.0677,3.2992,-2.4881,1.1408
9770,-0.0355,0.013,9.6974,-1.2961,0.3608,-0.2418,29.6905,-11.1251,37.5451,0.1794,-0.2778,-1.3725,1.1549,-1.5918,1.8852
9783,-0.0725,0.0643,9.7963,-0.3762,-0.8126,-0.2584,29.4553,-9.4615,39.1744,0.5846,1.3727,0.4103,-0.7097,0.4208,1.1205
9794,0.0665,-0.1059,9.7488,-0.0907,0.4479,0.2264,28.4705,-9.8587,40.6609,-0.7334,-0.6864,-1.1997,-0.9986,0.4207,-1.1128
9809,0.1092,-0.0439,9.7904,-0.0207,0.241,-0.1001,28.3084,-10.0671,38.8015,-0.7486,0.2,-0.8133,-0.9511,1.4257,-0.5769
9821,0.0729,0.0901,9.8886,0.8094,0.6007,-0.0229,30.1534,-9.574,38.5359,0.5014,1.5831,0.0267,0.8313,-1.6373,-0.6503
9834,0.0205,-0.0388,9.7733,-0.1374,0.0577,-0.4373,29.2258,-8.1608,41.1843,-0.0696,0.4855,-1.0506,0.265,-0.6116,1.0849
9847,0.0606,-0.0578,9.7767,-0.7076,-0.5282,0.8455,30.5314,-9.5587,39.5925,-0.4242,-1.2217,-0.7445,0.0554,-0.3998,1.0577
9857,0.0956,-0.017,9.8054,-0.0303,-0.25,-0.2818,30.5012,-9.2422,39.4644,1.1426,0.8211,0.8317,0.5873,0.0306,0.5752
9868,0.1409,0.0706,9.7951,-0.4156,0.0813,0.5324,29.3392,-11.0117,40.3754,-0.0589,0.4026,2.433,-1.9344,-1.0393,0.515
9878,-0.0671,-0.1039,9.8738,-0.4872,-0.3276,-0.388,26.8737,-12.2321,39.5499,0.5938,0.8616,-0.5026,-0.2644,-0.6517,-0.5416
9888,-0.1137,0.1971,9.7833,-0.1333,0.0576,0.1054,30.0375,-13.2904,40.0493,0.3622,0.3916,0.0252,0.5075,0.5809,-0.7722
9899,0.1225,0.1364,9.8224,0.9177,-0.5254,-1.0522,30.1081,-9.9504,40.1215,-1.4693,0.5965,2.3776,1.3004,-0.1902,1.4002
9911,-0.0217,-0.0179,9.8163,-1.0102,0.4294,0.1283,30.179,-11.2106,41.8207,0.3531,-0.6292,-0.9773,0.3005,-1.2969,1.0021
9922,-0.0684,-0.0437,9.8035,0.3268,0.8773,0.308,29.8696,-8.4097,38.4753,-0.6727,0.8366,-0.4361,-1.3134,-0.4396,0.3148
9937,-0.1401,-0.0498,9.7692,-0.7927,-0.2023,-0.0726,28.4799,-11.2992,39.716,-0.7782,-1.7705,-0.5681,0.4939,0.8017,-0.6074
9949,-0.0705,0.0758,9.8851,0.1599,-0.0996,-0.1761,28.9931,-10.1074,38.1536,0.0768,0.5532,-0.1807,-0.0913,3.338,0.9146
9962,-0.0152,0.1599,9.8452,0.2209,0.4987,-0.1708,27.9023,-11.5406,40.2125,0.9035,-3.0873,-0.1817,-0.4013,0.4306,0.3667
9974,-0.0295,0.0061,9.8952,0.8907,-0.0118,-0.5895,30.3467,-10.0283,38.4709,0.2506,2.0682,1.4545,-1.0223,-0.7643,0.742
9985,-0.0104,-0.0389,9.8706,-0.1825,-0.4999,0.3895,29.2638,-10.0073,40.8253,-0.4234,-0.1427,-0.8889,0.6102,1.0046,1.218
9995,-0.0399,0.0488,9.867,0.1663,-0.3696,0.2372,30.8768,-9.0611,39.3195,0.4498,-0.2245,1.57,0.9582,-0.3362,0.0063
10005,0.0166,0.0887,9.7508,-0.7353,-0.2743,1.0653,30.8076,-11.1559,39.9348,-0.6318,-0.585,0.3694,0.321,-1.292,-0.5712
10016,-0.0651,-0.0711,9.8659,0.1345,0.5903,0.1748,29.5307,-11.2062,38.8969,-0.2893,0.9742,0.119,1.062,1.8288,0.0907
10026,-0.19,0.0545,9.7971,0.6764,-0.1179,0.7471,29.1139,-9.3362,41.8937,-0.6129,-0.0437,-0.2513,0.4617,0.1435,1.2157
10037,-0.1725,0.1335,9.8219,0.6785,1.0015,-0.0055,31.1835,-10.1381,39.3356,-0.2397,0.9262,-0.3271,-0.4578,-0.5751,0.4973
10047,-0.0775,-0.1077,9.7247,0.7292,-0.399,-0.2385,29.278,-10.4529,41.4638,-0.2278,0.1613,-0.0634,-0.4557,-3.5648,0.1251
10058,0.0395,-0.1517,9.8097,-0.3545,0.2612,-0.056,29.9039,-8.5022,41.3541,1.2413,-0.9049,-0.5264,0.6659,-0.0268,1.0846
10068,0.1348,-0.147,9.7982,-0.7944,-0.0638,0.3672,30.4912,-10.0997,39.1357,-1.0472,1.5596,-0.6583,0.006,1.2206,-0.5597
10078,0.0498,0.0803,9.7647,0.2486,0.739,-0.1258,30.0312,-10.3188,37.6945,1.9353,1.1089,1.5415,-0.0679,-0.7298,1.0493
10089,0.0467,-0.0317,9.7697,-0.6627,-0.8579,-0.1135,28.3544,-10.1693,40.0612,0.1581,-2.0759,0.6199,0.5549,-0.0426,-1.2299
10099,-0.0451,-0.017,9.8562,-0.1922,-0.654,-0.5709,28.4106,-10.459,39.0072,-0.1289,0.2749,1.4915,-0.487,-0.4865,-0.8895
10110,-0.0198,0.1648,9.8263,0.5908,-0.434,0.3526,29.7656,-10.2031,38.8181,0.1949,-1.6054,1.3324,0.9472,1.2302,0.6704
10126,-0.0005,0.0333,9.8391,-0.1855,-0.8889,1.3024,30.2085,-9.2069,39.6124,0.8662,0.6005,0.5716,0.8225,-1.3876,-0.1434
10137,-0.1572,-0.0048,9.8616,-0.1228,0.4436,1.0476,30.1253,-10.6724,41.2667,-1.4914,0.4665,0.6825,1.748,1.1682,-1.1615
10149,-0.0141,0.0465,9.8542,0.8607,0.0623,0.7337,29.4356,-7.662,38.7245,0.5103,0.8797,-0.4304,1.563,-0.5113,-0.6949
10159,-0.0062,0.0383,9.8821,-1.0102,-0.5092,0.8158,29.4308,-10.1556,40.9993,0.8131,-1.7549,-0.2708,-0.0401,0.4725,-0.7731
10170,-0.1477,0.1749,9.8898,0.2741,-0.3458,0.901,29.1245,-10.6861,42.4585,0.7988,-1.3853,1.11,-0.5302,-1.2904,1.6228
10181,-0.1831,0.1069,9.792,-0.4818,-0.2348,0.6826,30.7805,-7.828,40.3943,0.0378,-0.6488,-1.4796,-0.5149,-0.7973,-1.3528
10192,-0.0679,-0.0037,9.7873,-0.2219,-0.101,-0.1663,29.6909,-9.8687,38.5569,0.3872,-2.1425,-0.4282,-0.8521,0.6711,-2.0673
10202,0.0017,0.0108,9.7947,0.1618,-0.6198,-0.3634,30.1739,-11.0596,40.68,-0.5542,1.6692,0.0803,0.9366,0.3454,-1.3215
10213,-0.0826,0.0751,9.7799,0.2009,-0.1701,1.576,29.0878,-9.4953,40.9437,-1.0372,-0.7425,-0.436,2.725,-0.3229,0.6101
10223,-0.057,0.0304,9.8164,-0.7001,-0.0382,-0.2572,31.2657,-9.6947,40.7149,1.0162,-0.9408,-1.3118,-0.1696,-0.3113,-1.076
10240,0.1688,-0.0377,9.7917,-0.6521,0.6708,-0.5127,31.4671,-8.7022,39.0043,0.8419,-0.0419,-0.7945,-2.4852,-1.0929,1.0833
10253,0.0475,-0.2156,9.8555,-0.5437,-0.3418,0.2424,30.4923,-9.8605,41.8053,-1.13,-0.5662,-0.4185,-0.9938,0.3168,0.7284
10264,0.0609,0.0117,9.8364,-0.0324,-0.0177,1.4589,28.9333,-9.9113,40.2943,-1.1929,-0.2122,-0.3471,0.5976,0.1573,0.0778
10276,-0.1496,0.007,9.7427,0.847,-0.7573,0.2533,30.4395,-7.6506,39.7224,-0.2139,-0.952,0.7626,1.4563,-0.5538,-0.7595
10287,0.1253,0.1031,9.9137,-0.3458,-0.1374,-0.0944,30.164,-11.5086,39.5771,-2.0043,0.7864,0.9602,1.0821,-1.3157,-0.4502
10298,0.2048,-0.1055,9.7875,-0.1787,0.2359,1.1456,30.3357,-9.8158,40.8583,0.0776,-1.0281,-0.1442,1.5683,0.0594,1.6439
10309,-0.0779,0.0389,9.7325,-0.0377,-0.4043,0.2838,28.4226,-11.3323,39.8532,-1.1581,-0.4858,2.122,0.6846,1.4447,0.7021
10319,-0.0065,0.097,9.7335,0.131,-0.263,0.2074,30.416,-10.9001,39.1832,-0.5787,0.151,-0.6631,-0.1561,0.1861,-0.4302
10329,0.0495,0.0827,9.7593,-0.5597,0.5485,-0.1543,28.679,-11.9539,39.5191,0.6426,0.0757,-0.3707,1.4529,0.7895,-2.1971
10339,-0.1929,0.0556,9.7611,0.1874,-0.469,-0.2434,31.2217,-10.56,39.3321,-0.944,-3.279,1.2403,0.0344,1.4189,-0.2678
10360,0.0022,0.0246,9.7214,0.5124,-1.0712,0.8688,28.2423,-10.3614,39.3277,0.7556,2.2522,0.1462,0.3288,0.3792,0.6783
10371,-0.0127,-0.0525,9.7227,0.266,-0.2681,0.5437,31.2237,-8.8379,39.8623,-1.1529,0.7846,-0.1105,-0.1661,-0.5075,-0.7078
10382,-0.1405,-0.0954,9.7367,-0.0902,0.3549,-0.129,30.8415,-10.1464,38.569,-0.1793,-0.1026,-1.0714,0.3334,1.1038,0.1968
10392,-0.0336,-0.034,9.6778,-0.1374,-0.0463,-0.696,30.5758,-10.3265,40.7304,0.73,-0.4081,-0.8951,-1.6896,1.2059,-0.8939
10403,-0.1938,0.0305,9.7634,0.3729,-0.1425,0.2502,28.5509,-10.1862,42.1603,-1.6305,-1.369,-0.4537,0.2953,1.0204,0.6681
10414,0.1402,0.0838,9.785,-0.0361,0.0563,0.33,29.2488,-9.3572,41.1724,-0.3285,-0.4539,0.987,-0.5975,2.1032,0.0119
10426,0.0116,-0.0891,9.7812,-0.0138,-0.4911,0.0601,28.3846,-11.6207,41.3502,-0.1228,1.2838,0.3837,0.9493,0.9577,-0.4665
10436,-0.1538,-0.074,9.8884,0.4013,0.5109,0.2471,30.1928,-10.7804,40.9641,0.9176,-1.8463,-0.1832,-0.0624,-0.0188,1.1973
10447,-0.0022,-0.0578,9.7335,0.5616,0.7974,-0.363,28.2268,-10.5745,40.5763,-0.9159,0.4505,-0.5324,0.3799,-0.124,1.9227
10457,0.0539,-0.0717,9.7529,-0.1557,0.6673,0.6083,29.6115,-10.1085,41.8814,0.601,-0.7401,0.7777,-1.1361,1.9887,0.625
10473,0.147,-0.0331,9.7507,-0.4337,-0.6045,-1.0427,28.9808,-9.7044,39.0868,0.2709,0.5747,0.5686,0.925,-0.1955,1.4308
10486,0.1024,-0.0294,9.7556,0.4168,0.3671,-0.3748,28.8976,-10.6074,40.3896,0.4322,-0.2988,1.6255,-0.297,1.008,0.111
10496,-0.0854,0.0324,9.7752,-0.3572,-0.8228,-0.1583,30.5489,-11.9334,40.6001,-1.0833,-1.3482,-1.9915,-1.0521,-0.2792,-0.6553
10507,-0.114,-0.1846,9.827,0.2221,-1.0732,-0.3085,31.3177,-9.6484,41.2242,1.1178,-0.9602,-0.5202,0.0524,-1.8247,-2.4105
10519,-0.0715,0.1337,9.6882,0.0613,0.2086,0.926,29.9138,-9.0857,41.7365,1.572,-0.5013,-0.044,0.5744,-0.7909,0.3459
10530,-0.1289,-0.0214,9.8238,0.247,1.0272,-0.0431,29.8324,-10.7175,39.6406,-0.3953,-0.3175,-0.0594,0.0788,0.7031,-1.2534
10541,-0.0135,0.0208,9.6822,0.1806,-0.3038,-0.1502,30.2295,-11.1414,40.6238,-1.57,-0.2067,0.0355,-0.9529,-0.7472,-0.8471
10551,0.108,-0.0504,9.7849,-1.1086,0.3356,0.336,30.0578,-10.664,40.1845,-1.0397,0.257,0.5325,-0.5902,-0.3971,0.5139
10561,-0.1723,-0.0588,9.7777,-0.3741,-0.0376,0.7057,30.347,-9.0025,39.3395,0.8784,0.7288,1.7036,-0.1634,-0.0487,-0.5345
10571,-0.1055,0.0235,9.8214,-0.9842,0.2514,0.5218,30.385,-8.9992,39.3152,-0.3408,-0.285,-0.0417,-0.1469,0.3402,1.0967
10581,0.0871,-0.0301,9.7569,-0.5186,0.4014,-0.6178,29.4096,-10.6617,38.9999,0.073,1.0288,1.3206,-1.136,1.0793,0.4784
10594,-0.0726,0.0862,9.7501,0.5201,-0.4784,0.0896,32.2559,-9.4841,39.5542,-1.223,-0.8192,-0.6203,-0.317,-1.1789,-0.6354
10606,-0.0683,0.0869,9.7386,-0.5062,0.1508,0.1705,29.6199,-10.1348,39.587,0.6356,-0.4816,-2.7349,0.2878,0.6939,0.1459
10616,-0.0226,0.0354,9.797,-0.2616,-0.2789,-0.2218,29.3072,-10.8959,40.8105,1.2379,-0.2219,-0.3762,0.2581,-0.9416,0.1229
10629,-0.1843,0.0112,9.7642,-0.108,0.748,0.0615,31.0302,-10.3529,38.8181,-1.1735,1.6491,-1.2291,1.4858,-0.135,-0.7621
10640,0.0521,-0.0498,9.7353,-0.5999,0.4237,-0.1715,29.0174,-10.4928,38.7897,-2.7036,-1.0912,-0.4629,1.2936,0.5545,-0.1866
10651,-0.1828,0.0191,9.794,-0.0366,0.3795,-0.6971,28.6323,-9.8588,41.5497,-0.0369,1.633,-0.6074,-0.1416,-0.8302,-0.249
10663,-0.1513,-0.0919,9.8073,0.6072,-0.4126,-0.4022,30.4783,-10.8901,38.5703,-0.2837,-1.0447,0.8581,0.9842,0.1253,-1.1241
10673,0.0875,0.0658,9.817,-0.1739,0.2208,-0.5362,30.5207,-10.9159,38.4383,0.2426,-0.9593,0.2677,1.6528,1.0597,1.8177
10683,-0.1308,-0.0142,9.8472,-0.6755,-0.1274,0.0807,30.4628,-10.4189,40.7023,-0.2286,-0.9949,-0.1562,-0.7311,-0.2742,-0.7877
10693,0.0442,0.0517,9.7063,-0.38,0.0662,0.8712,30.8279,-11.0731,40.1107,-0.8735,1.6117,0.6658,-0.0669,0.8127,1.2906
10704,-0.1266,0.0586,9.7731,-0.2962,0.1952,1.2441,31.2291,-10.3062,39.4962,2.3933,0.6028,-0.6298,0.4081,-0.248,-0.1441
10719,-0.1152,-0.0506,9.7779,-0.1959,0.4977,-0.2654,28.8704,-11.1256,41.8701,0.0368,-1.6916,-0.533,0.0118,1.3916,0.5078
10731,-0.1958,0.0213,9.7748,0.6415,-0.2998,-0.3309,29.9014,-10.0962,39.9383,-2.3121,-0.3542,-1.0342,-1.7889,0.5564,-0.0267
10741,0.1021,0.0891,9.792,0.6829,0.2086,-0.7054,29.0181,-10.9944,40.8809,-0.5631,-0.9834,0.5308,-1.2426,-0.5105,0.4978
10752,0.0523,-0.1016,9.8087,0.2296,-0.1642,-0.2658,29.2634,-10.4367,39.8386,3.4464,1.8813,-0.0104,0.3123,0.5335,-0.0465
10764,-0.1184,0.1383,9.8084,0.017,-0.2836,0.5509,29.431,-11.3049,40.9026,0.6175,0.1929,-1.1791,1.6977,-1.0477,0.1925
10774,0.252,0.0561,9.8173,0.5955,0.3112,-0.6925,31.7617,-9.9364,42.7555,-0.2878,-2.0118,0.981,-1.2264,0.0601,1.3301
10785,-0.1661,0.1346,9.76,-0.5096,0.645,-0.3831,27.6076,-7.9549,40.8439,1.9557,-0.8954,-1.0941,1.3783,-0.6789,-0.0354
10795,0.128,0.15,9.8159,0.0728,-0.1462,0.6435,29.5591,-9.1171,40.7333,-0.9593,1.6704,-0.7869,0.1296,-0.8941,0.9127
10805,-0.0304,-0.0361,9.8375,0.9375,-0.0562,0.2944,31.8701,-10.7262,39.8975,-1.2677,0.5654,1.0784,0.2522,-0.5801,0.8041
10816,0.1351,-0.028,9.741,0.1442,-0.5006,0.2336,30.2275,-11.5554,39.205,-0.1962,-1.4404,-0.2686,0.6635,1.5773,-0.4546
10826,0.0486,-0.0261,9.8821,0.5012,-0.869,-0.5165,29.2174,-9.6396,38.1642,-0.3883,1.7859,1.0532,0.2374,-1.3461,-2.1069
10846,-0.0221,0.1685,9.7717,0.5424,0.457,0.4994,29.0949,-9.2872,39.5075,0.9779,0.0589,-1.8826,0.0564,-0.6043,0.5385
10857,0.142,0.0193,9.8399,0.0189,0.1628,0.5038,30.2708,-11.8054,39.406,-0.595,0.9966,-2.6892,1.0005,0.1348,0.1193
10868,-0.085,0.0255,9.8336,0.3518,0.3278,-0.3781,30.1609,-8.9805,37.775,-0.1535,-0.2803,-0.9538,0.8007,-0.5295,-0.6481
10878,0.0479,0.0485,9.8288,-0.0711,-0.082,-0.6664,29.5588,-10.1133,38.7791,0.433,0.5342,-0.7529,0.5256,-0.9981,-0.9955
10890,0.0735,-0.0835,9.835,0.7528,-0.1198,-0.4345,29.0235,-9.9213,40.0719,-1.6751,0.5741,1.764,0.5385,-0.9355,-0.658
10901,-0.0447,-0.0667,9.8797,-0.2394,0.1985,-0.1766,30.2792,-9.63,39.8112,0.8353,0.2729,0.2598,0.57,-1.92,0.8155
10912,-0.0808,-0.0068,9.8434,0.2684,0.5165,-0.5824,29.2231,-8.7232,40.6908,1.6861,0.9412,-0.461,-0.6757,0.8637,-0.9719
10922,-0.0093,0.1056,9.8862,-0.2265,-0.5118,0.3349,30.4615,-11.756,40.7826,0.198,1.2067,-0.2887,-1.3005,-0.8745,-2.7656
10933,0.1343,0.1336,9.8528,0.0459,-0.3131,-0.2527,30.0661,-10.7212,39.6563,-0.5585,1.7316,-1.3712,-0.0549,2.1302,-0.5707
10943,-0.1622,-0.0385,9.7766,0.0679,0.2841,-0.1268,29.9832,-10.2053,39.2179,-0.3929,0.0859,0.8939,0.003,-0.5271,-2.126
10962,0.0776,-0.2261,9.7737,-0.8353,-1.1314,-0.3014,29.8702,-10.498,40.5379,-0.5133,0.5787,0.3664,1.396,-0.4693,0.6982
10975,0.1165,0.0288,9.7877,0.5776,-0.2473,0.333,29.9041,-11.136,40.0841,0.7833,-0.4388,0.1886,1.2409,-2.3281,-1.0424
10986,-0.015,0.0873,9.7846,-0.3038,0.275,-0.1588,28.9693,-9.4159,40.8761,0.1328,-0.7164,-0.8993,-1.0182,-1.1626,0.0797
10996,0.1866,0.0639,9.7882,0.375,0.3704,0.4285,31.4815,-9.6679,40.1565,0.488,-1.3355,0.1606,0.5908,0.3487,-1.0776
11009,-0.1402,-0.1805,9.7723,0.3916,0.2383,-0.5146,29.5491,-9.2345,40.7429,-1.013,2.0657,-0.2724,-0.5632,-1.0971,0.028
11024,-0.1624,-0.0654,9.7901,-0.5833,0.9501,0.4247,28.5947,-11.0576,41.8028,1.3119,-0.7524,-1.5754,0.0811,-0.1939,-0.4003
11037,0.0079,-0.0035,9.7833,0.2308,0.4693,-0.344,30.3065,-10.8274,40.3323,1.6004,0.8657,0.0455,-0.1548,-1.4031,0.9303
11047,0.0585,0.1843,9.8575,0.3681,0.0071,-0.7472,28.0908,-10.6186,41.6039,1.5577,-0.56,-0.8053,1.0947,0.2093,-0.8132
11057,0.0835,0.0795,9.7814,0.117,0.0008,0.6201,29.7251,-10.8131,40.8712,-1.4212,-1.4663,0.1375,0.4908,2.1316,0.4977
11067,-0.0997,0.0689,9.8122,-0.077,-0.306,0.7244,30.4658,-11.235,39.7549,-0.4924,0.2544,-0.642,1.8129,-0.423,0.0162
11081,0.0322,0.0007,9.8496,0.2794,-0.7292,-0.2952,29.0111,-9.3213,40.5999,0.1846,-1.1076,1.4515,2.6632,-0.456,-0.1381
11093,-0.2034,0.0275,9.8038,-0.4024,0.8875,0.3379,29.1697,-8.7073,41.0634,0.199,-0.5629,-2.245,-0.3441,-1.3271,-1.4743
11106,0.0423,-0.0149,9.8006,-0.0455,-0.9193,-0.0872,29.8871,-9.3654,39.2151,0.2172,0.2913,2.4378,-0.634,-0.5242,1.5446
11118,-0.0572,-0.0206,9.8426,-0.5887,-0.3766,-0.3444,30.4159,-10.1999,39.3599,1.6047,-1.3147,1.0908,-0.6111,-1.637,1.2084
11130,0.108,-0.1044,9.7866,1.0373,-0.9795,-0.6468,29.9962,-9.5098,40.3832,-1.5642,0.8208,-0.2701,0.5757,1.05,-0.4305
11143,-0.1803,-0.0024,9.7478,0.5351,-0.1069,0.2963,28.5949,-10.5252,41.0264,0.1558,-0.3153,-2.0938,-0.2594,-0.791,-1.1937
11153,0.0667,0.1585,9.8018,-0.4162,0.2414,0.4341,30.2729,-9.8736,39.3582,2.1016,-0.6841,-0.2225,0.4919,0.3006,0.4197
11164,-0.1087,0.0793,9.7847,-0.1595,-0.1269,-0.3198,29.0482,-10.6142,40.5093,0.1926,-2.4511,0.627,-0.7061,-0.2803,-0.3577
11174,0.021,0.094,9.7836,0.2463,-0.2327,0.2323,28.5459,-8.7895,41.2871,0.4268,1.7412,-1.2662,-0.3877,-0.6758,1.0227
11192,-0.0066,0.0196,9.8287,-0.6531,0.5246,0.2141,30.5576,-10.0986,37.6727,0.2193,1.3489,-0.4181,-1.1053,0.3245,-2.0279
11203,0.1891,0.063,9.8313,-0.6813,-0.1552,0.7334,29.2752,-9.4297,41.9195,-0.6336,0.6238,-0.5459,0.3933,0.9517,-1.0726
11213,0.0743,0.1128,9.7894,0.2802,0.3048,0.0187,30.7617,-10.5804,40.8716,-1.0771,0.6684,-1.9956,-0.2406,-0.3007,0.4967
11224,-0.0319,-0.0719,9.8129,-0.2615,0.427,0.2923,29.1183,-10.4456,40.4657,0.7336,-0.1948,-0.6324,-0.7853,-0.839,-0.9746
11236,0.0804,-0.1249,9.7876,-0.5984,-0.3269,-0.4235,29.268,-9.8181,40.9508,0.44,-0.5682,-1.783,1.037,-0.2703,1.1162
11247,0.0321,0.0382,9.7921,0.5303,0.1414,-0.7701,28.8734,-8.1161,39.02,-1.7122,1.2013,0.7565,-0.4132,-2.8349,0.5434
11258,-0.1017,-0.0601,9.8732,-0.1955,0.5208,-0.0297,30.7176,-10.3464,38.8772,0.2576,0.6968,0.5446,-0.0991,0.428,2.4502
11269,-0.0508,-0.0443,9.8181,-0.524,0.2449,0.4914,30.6072,-9.2122,39.4188,-1.6265,-0.205,-1.0731,-0.7309,-0.711,1.1314
11279,0.062,-0.0758,9.8013,0.2091,0.2067,0.3641,29.2185,-11.3484,40.2396,0.4872,-0.2869,-1.7683,-1.2737,0.3004,-0.6647
11289,0.0952,-0.0509,9.7714,-0.1084,0.6404,0.0327,29.4486,-9.5651,41.8058,1.0183,-1.6103,1.2543,-1.016,-1.3002,-0.2896
11305,-0.0783,0.034,9.7829,0.6431,-0.0654,0.2381,31.3571,-9.768,40.5943,-0.0749,1.6938,0.0636,0.6091,0.1743,0.256
11318,-0.064,-0.1535,9.8285,-0.395,-0.2206,-0.032,30.0549,-9.89,39.2529,-0.8038,-0.6059,0.0655,1.135,-0.9666,-0.5963
11329,-0.014,0.0906,9.7627,0.3892,-0.7045,-0.6193,29.2474,-9.4041,39.4899,-0.7396,1.5014,-2.3788,-0.2658,0.4978,1.033
11341,-0.0504,-0.0403,9.8349,0.1114,-0.5829,0.5539,29.5028,-9.5537,38.5375,0.5409,-1.0981,0.5422,-0.8872,0.3664,-0.2322
11353,0.0358,0.1902,9.801,-0.0347,0.8769,0.3635,30.0234,-9.2456,39.8517,0.0613,-0.1453,0.2582,-1.1523,-0.0017,-0.8839
11366,0.1129,-0.0849,9.842,-1.2026,0.1506,0.2314,28.068,-11.0088,40.9902,-0.1873,0.1604,-0.1442,1.2467,-0.1158,-0.9197
11379,-0.0118,0.1144,9.8232,0.2841,-0.585,-0.1623,29.5262,-10.7243,38.0991,-3.0652,0.3312,0.6682,-0.1801,1.6038,0.776
11389,-0.0054,0.0657,9.7075,1.3234,0.2659,-0.1659,29.5887,-9.2949,40.5044,0.0492,0.592,-0.0853,-0.9977,-0.5805,-1.5333
11400,-0.0046,-0.1673,9.78,0.3212,-0.3974,-0.7406,29.6237,-10.8073,41.1775,0.4854,-0.965,0.5342,-0.6478,-0.19,1.0671
11411,-0.0508,-0.0924,9.888,0.1154,0.2189,0.1419,30.0783,-9.7631,40.6423,0.1643,-0.7256,0.2157,-0.8229,-1.7101,0.5785
11422,-0.1078,0.1735,9.7611,0.0526,-0.5761,-0.4921,30.3786,-10.7288,41.3847,-0.5227,-0.4171,-0.4703,-0.3976,0.2896,0.8193
11433,-0.2294,-0.0398,9.6966,0.141,0.0407,0.3658,32.2147,-10.2633,39.5198,1.4857,0.6567,0.4438,-0.2573,-2.4814,0.6077
11443,-0.0773,-0.0332,9.7866,-0.9165,-0.1861,0.7796,30.4719,-11.2899,40.3031,0.7714,0.6624,-1.3997,-0.9705,0.2902,-1.2703
11454,0.1094,-0.0201,9.681,-0.4436,-0.0907,-0.1211,30.5545,-10.5403,39.1491,0.9135,0.7231,1.7754,-0.9505,1.4054,0.9909
11466,0.0403,0.0686,9.8413,-0.44,-0.4061,-0.1817,31.8073,-9.1828,43.0408,1.0894,-0.0934,-1.5394,-1.5131,0.0241,-0.9743
11476,-0.1118,0.0813,9.8143,0.8744,0.099,0.2404,31.4046,-10.3685,40.9496,0.4643,-0.8299,0.3288,0.1096,0.1369,-0.3776
11490,0.0154,-0.0839,9.8021,0.059,-0.0776,0.3548,29.4669,-11.0342,40.7432,0.3426,0.5897,-0.1812,-0.3034,1.4878,1.8255
11500,-0.151,0.0704,9.7145,0.3368,-0.4777,-0.8857,29.5636,-9.4949,38.681,1.0265,0.6493,0.6069,-0.5398,1.27,-1.4399
11510,0.1069,0.1307,9.7956,-0.5077,-0.1669,-0.2946,30.3636,-8.3656,39.077,-0.5945,-3.0045,0.2684,1.0728,0.6033,-1.2672
11520,-0.1056,-0.0635,9.6979,-0.0813,-0.0974,-0.2073,31.8702,-12.155,39.7111,0.6929,0.0966,1.7705,0.8851,-2.35,-0.2737
11530,0.0044,0.0554,9.8147,-0.1732,-0.046,0.0466,29.5007,-9.1233,40.3413,-0.4496,0.0329,-0.2707,-1.0207,1.6068,-2.5892
11542,0.03,0.0432,9.7548,-0.2384,0.2284,-0.4302,29.8526,-8.6817,40.2281,-1.4202,1.057,-0.317,-0.3667,-0.6227,0.4877
11553,-0.0184,-0.089,9.7872,0.9872,0.7945,-0.1995,30.8692,-8.3352,39.863,-0.5617,-0.5968,-2.118,-0.0193,0.6721,-0.094
11563,-0.2179,0.1197,9.773,0.4497,0.702,-0.0015,28.8341,-9.3957,40.2026,-1.0885,1.3224,-1.791,0.1636,0.9245,0.2416
11579,-0.3001,0.0797,9.7948,0.6601,1.2219,-0.3551,31.5811,-8.5619,41.9878,0.9538,0.0228,-1.845,-0.0081,0.7945,0.414
11591,0.092,-0.1633,9.839,0.2339,-0.2715,0.0507,29.4363,-9.1751,37.8011,-0.0151,-0.1437,-0.7234,0.1991,0.4103,-0.9134
11604,-0.0067,-0.0249,9.8432,0.5066,-0.44,-0.6329,28.7437,-9.9746,40.852,-1.1757,1.2413,-1.0837,-0.4777,-1.7807,-0.4898
11618,-0.0415,0.1744,9.9019,0.1803,0.4343,0.5054,30.9246,-9.7915,40.2086,1.0331,-0.1972,-0.2208,-0.6138,0.2633,-1.3566
11628,0.0433,-0.051,9.7625,-0.3378,-0.8625,-0.3477,32.3496,-10.9146,40.5131,0.0553,-0.8561,-0.8414,2.1383,0.2207,-0.9866
11639,0.0314,-0.1181,9.8224,0.4028,0.2962,0.8107,29.8466,-9.099,41.4286,-0.84,-1.5272,-0.7119,-1.7886,-1.8629,1.2179
11650,0.0736,0.0039,9.782,-0.3829,1.1567,-0.3749,29.6702,-9.6908,41.8308,-0.2459,-0.2888,0.4846,-0.2822,-0.2506,0.1219
11660,-0.019,-0.0594,9.6747,-0.33,0.0275,0.4586,30.9586,-10.6751,38.0541,-1.0573,0.0483,-1.2504,-0.5864,-1.2215,2.5756
11670,-0.0639,0.24,9.7777,0.782,-0.6637,0.4345,31.4512,-10.6948,39.2753,0.0669,0.778,-0.6488,-1.6453,0.021,1.9191
11681,0.3171,0.0431,9.7703,-0.3974,-0.5383,-0.1444,29.4474,-10.5452,40.3395,0.9035,0.8469,0.3836,1.6305,-0.0437,-0.1795
11691,0.173,0.0983,9.757,-0.3031,0.3208,0.0747,31.7235,-9.9699,39.231,-1.2743,1.3467,-0.4178,-1.0027,-0.2592,0.8992
11702,0.0361,-0.0647,9.777,0.0975,-0.5172,-0.2945,30.4405,-10.2257,41.18,1.2979,-1.1432,-0.5216,-1.2902,0.4656,0.4608
11715,-0.1591,-0.0089,9.8634,-0.538,-0.2634,-0.8729,29.8643,-8.1622,39.3619,1.3724,0.072,1.6038,-0.8439,0.8144,-2.0029
