t_ms,ax,ay,az,gx,gy,gz,mx,my,mz,roll_gyro,pitch_gyro,yaw_gyro,roll_cf,pitch_cf,yaw_cf,roll_ekf,pitch_ekf,yaw_ekf,roll_madgwick,pitch_madgwick,yaw_madgwick,roll_mahony,pitch_mahony,yaw_mahony
11,-0.029,-0.1617,9.7225,0.4802,0.6446,0.643,30.0648,-7.7739,39.4395,-0.52,-1.2207,-0.4943,-0.3684,-0.4545,-0.823,0.7473,0.0798,1.5666,1.9215,0.8157,0.4879,0.3595,-0.409,0.4519
21,0.0593,-0.0948,9.8369,1.0504,-1.0403,0.2101,29.1021,-10.1155,41.3088,0.6699,-0.7583,-0.7359,0.1985,-0.9126,-0.3286,-0.2345,-0.9429,-0.7237,0.0946,0.4938,0.715,-1.4846,-0.3543,1.5702
32,-0.0497,0.0833,9.6691,-0.0269,-0.1259,-0.2669,29.7167,-10.814,39.6346,-1.0594,0.1184,-1.0503,-0.7501,0.6436,-1.8326,0.1584,0.9159,-0.6567,0.4513,1.1293,-0.5546,0.8761,-1.3299,2.3032
45,-0.0588,0.2822,9.7619,-0.4928,-0.1602,0.1529,29.2378,-8.8115,39.3329,2.2168,-0.0939,-1.0071,-0.3774,2.5957,0.0659,-1.4023,-0.038,0.6925,-0.2285,-1.4668,-0.6751,0.1677,-1.1887,-1.4909
55,-0.037,0.0625,9.7522,0.46,-0.0413,-0.2937,29.5164,-10.9043,40.0518,-0.9339,0.8967,-0.9097,-0.3845,-0.2458,-0.6801,0.7056,-0.0007,-0.6789,0.789,0.234,-1.0083,-0.0991,-1.5187,0.0075
70,0.0325,0.0808,9.8481,-0.4427,-0.1031,0.261,31.1401,-11.2181,39.3964,-1.3141,0.3783,0.8563,-0.3466,2.4482,-0.0158,-0.1508,0.8099,-1.4045,-1.8856,-0.1055,-0.2842,0.2447,-1.0573,0.6566
84,0.0642,0.1533,9.7275,0.5244,-0.1025,-0.6102,29.1294,-9.465,40.7436,-0.0296,0.2592,-0.0945,0.4752,-2.1564,-2.1829,-1.4579,-1.6389,0.9297,0.5824,-0.2907,0.55,1.3063,-0.0927,0.5172
106,-0.1161,0.174,9.7397,0.4297,0.2529,-0.9434,30.8324,-9.5074,39.6303,-1.0127,0.5341,0.222,-1.0921,0.8972,0.3022,-0.7099,0.811,2.1438,-1.19,0.3971,0.0689,1.888,0.0371,-0.3416
155,0.021,0.0478,9.7943,0.0404,-0.2374,0.1207,30.1864,-10.002,40.7151,-0.5418,0.7763,-1.3962,-1.7537,2.9468,0.4121,-2.3192,-1.0563,0.4829,0.2671,1.9451,-1.9085,0.8286,1.254,-0.6287
174,-0.1516,0.1161,9.8359,-0.0397,0.0727,0.222,29.3175,-9.642,40.5281,0.592,0.1827,-0.9297,0.9302,0.0366,-1.1501,1.2481,1.1788,0.7718,0.4189,1.1107,-1.1642,0.682,1.2055,0.1099
196,0.1267,0.1094,9.8566,0.0939,-0.3628,-0.1321,29.462,-8.3329,40.5453,0.8205,-0.5135,1.3007,-2.1536,-0.6318,-1.6067,-0.3175,0.8143,-0.7396,1.1755,0.4963,-0.392,-2.0717,0.2349,1.321
207,0.0813,-0.0106,9.8118,0.0808,-0.3742,0.4352,31.4676,-11.2842,41.3448,1.041,-0.0137,-0.2379,-0.8671,-0.1448,1.2194,-2.0464,-0.1107,-0.1537,1.5268,-0.0563,-0.9775,-1.9556,-2.0149,1.8685
224,-0.0553,0.1492,9.7612,1.0649,-0.3036,-0.6599,28.8968,-10.0458,41.8413,1.763,0.6659,-0.5594,1.4066,1.24,-0.4505,-0.3644,-0.9779,1.8861,1.6353,-1.123,0.0556,-0.958,0.3185,-0.3293
235,0.0411,-0.1328,9.8093,0.5059,0.6129,-0.1432,28.1295,-7.8459,41.1714,0.0011,0.8631,1.524,0.0341,-2.2886,0.2622,-0.0095,-0.3467,1.4744,-0.7087,1.2699,-0.51,1.3555,0.606,1.0456
245,-0.0918,0.0468,9.8027,0.1731,0.1998,0.1466,30.7722,-9.589,40.0296,-0.462,-1.4793,-0.0348,0.6908,0.2698,1.6604,0.2306,1.454,-1.0274,-0.7926,1.2026,0.5029,1.104,0.996,-0.6048
258,0.0373,0.174,9.8136,0.5013,-0.7283,0.715,29.1881,-11.3615,39.1152,0.5848,0.9097,-1.5177,0.8224,-1.7186,-1.1442,0.4647,2.0201,1.1837,0.3869,-0.0537,-0.9573,1.1367,-1.1915,-0.9649
270,0.0109,-0.0242,9.817,-0.8812,0.7968,0.7072,30.4797,-10.7798,40.8067,0.9886,0.6002,0.6602,0.8056,1.9826,-2.2001,-0.0089,1.3186,-1.6329,0.3532,0.7685,-0.2414,0.5101,0.6611,0.1941
280,-0.0748,-0.0912,9.7667,0.5992,-0.4459,0.042,30.701,-9.4785,40.1562,1.8913,-0.776,1.1813,0.1987,0.8604,-0.7849,-0.4557,-1.6644,0.5329,0.8707,-1.2264,-0.4674,-0.3086,-0.2363,-2.8391
296,0.0482,-0.0846,9.7673,-0.7597,0.3037,0.6762,30.4549,-10.0044,41.727,-1.2994,0.2524,-1.1763,-0.7717,0.2181,0.0006,-1.4311,1.6494,-0.4105,1.585,1.2057,-0.3794,0.1236,-1.3553,-1.1428
308,0.0496,0.0104,9.8644,-0.2644,-0.2298,0.2007,30.4133,-10.2073,40.2508,-0.9111,0.2846,-0.915,-0.539,0.7181,0.0731,1.1019,-0.1525,-0.6117,0.22,-0.1353,0.0373,0.0762,0.7152,-1.4075
319,0.1901,-0.0097,9.8411,0.3955,-0.3541,-0.618,29.0739,-10.0385,38.5695,1.1738,0.4616,1.495,0.8836,0.6613,0.1256,-0.0693,0.1112,-0.4564,0.7098,-0.0121,-0.8957,-1.309,-0.9686,-0.0895
329,-0.0471,-0.2055,9.8691,-0.3249,-0.4412,0.2167,29.4522,-9.6123,40.7147,-0.7227,1.0875,0.5909,1.2635,-0.4226,0.289,-1.6272,-0.1556,0.1963,0.5679,-0.6413,-1.525,-0.019,0.7966,1.317
340,-0.1526,-0.0042,9.794,1.0335,0.6692,-0.6024,30.7767,-10.625,40.5802,-0.6893,0.4943,-0.7036,-0.6267,0.1508,-1.8151,-2.0085,-1.5201,0.1864,-0.7219,0.9007,-0.0937,0.7525,0.5624,0.613
350,-0.0336,0.0077,9.8816,0.2308,-0.0101,0.081,30.2856,-8.9678,41.7226,-0.1302,0.537,-0.4937,0.8758,-0.1826,-0.2574,-0.0443,-0.3539,-1.3481,1.8221,-0.2428,0.5814,0.6319,-0.7554,-0.6694
360,-0.057,-0.0886,9.7674,0.2599,1.4289,0.3539,31.4515,-9.4758,39.7209,0.255,-1.8723,0.9003,-0.7203,0.5824,1.3065,2.1381,-0.3901,-0.8144,0.5924,-0.657,0.9275,0.0137,-0.2685,-1.6227
371,-0.0447,-0.0323,9.7614,0.0888,-0.1674,0.0124,29.4658,-8.0613,39.4422,1.9527,0.7019,-1.31,-0.2986,0.1508,-0.0944,2.345,-0.8192,-0.3209,0.6785,-0.087,-1.0692,-0.1491,-0.6876,0.1093
381,0.038,-0.0732,9.835,-0.2585,-0.6059,-0.3003,28.1649,-9.8604,41.2235,-0.6493,1.0654,-1.5931,-0.9842,1.2821,0.8867,-0.9054,0.6551,-1.892,0.0544,1.5551,-0.3398,1.822,0.6932,-0.4425
392,0.1216,0.0952,9.7762,0.1869,0.0899,-0.4142,30.4472,-9.9129,41.4358,-0.1266,-0.8995,1.432,-0.9176,-1.3283,-1.7678,-0.1749,-0.5853,0.9275,-2.1753,0.5313,-0.1042,0.152,-0.5458,1.0177
402,0.1307,-0.0496,9.8394,-0.2349,0.4372,-1.252,30.7021,-9.1076,40.1003,-0.3927,0.7847,0.1335,0.1924,0.1169,0.325,-0.1505,-0.64,-1.0054,-1.0472,-1.5165,0.6901,-1.2462,-0.3563,0.7139
413,0.0333,-0.0098,9.8428,0.001,0.3992,0.1052,30.2037,-8.9888,40.226,-1.5588,-0.3853,2.1083,1.5274,-0.9193,-0.5323,-1.999,1.6978,0.4871,0.3871,-1.4031,0.6361,1.1077,-0.6097,-0.0104
423,0.106,0.0212,9.8047,0.246,-0.3342,-0.0041,27.9283,-9.2888,42.1836,0.6772,1.3384,-0.6867,1.1675,0.4178,-0.1773,1.0299,-0.3995,-0.3116,1.2683,-0.4636,0.3282,1.0003,0.1189,0.313
434,-0.0974,0.0213,9.8287,0.2722,-0.2671,0.0611,28.9167,-8.9566,39.5478,-0.3746,1.0989,-1.0297,-0.1783,-1.2333,-1.6297,-1.3656,0.6694,-0.4167,0.5802,0.0291,1.2137,-1.0524,0.1821,0.0891
444,-0.0065,0.0715,9.8046,-1.0325,0.2661,-0.1303,30.4623,-9.4498,39.6804,-0.037,-0.2991,0.3638,-1.5744,0.1702,0.5009,-0.073,0.2114,0.1799,0.7576,0.6703,0.6973,1.8182,0.518,0.0479
455,0.1971,0.0719,9.8917,-0.078,0.4078,0.0431,27.5136,-10.2719,39.7269,-0.348,1.492,1.1145,1.6617,-0.3668,1.129,0.7806,-0.1404,1.0287,0.0123,-1.4319,1.1809,0.0625,0.4098,0.6203
465,-0.0528,-0.0218,9.8256,-0.3378,-0.7258,-0.6255,29.4435,-11.1294,39.5586,-0.2623,-0.2522,0.387,0.6582,-1.1953,-0.7287,-0.6868,-0.0141,2.0509,0.2369,-0.4911,-1.4169,0.1738,0.2589,0.119
476,-0.0559,0.0939,9.7652,0.3541,0.0995,-0.5604,28.7385,-9.1014,40.9599,-0.1372,0.634,0.0309,0.8918,-0.9413,0.7903,0.9249,-0.2622,-0.3434,-0.7832,-0.856,-1.29,-0.8736,-1.0353,-1.7077
486,-0.0261,0.1067,9.8206,0.1465,-0.4133,0.4993,30.6535,-10.266,41.0569,-1.0934,-1.2192,-0.3891,-0.2694,-0.2319,0.6331,-1.1287,1.8878,-0.2465,-0.0573,-1.1393,1.0051,-0.2985,0.1385,-0.846
496,-0.2114,0.0067,9.8388,-0.1461,-0.3035,0.0539,31.9103,-9.1491,39.1335,0.0515,-1.0282,-0.5555,0.175,0.423,0.3304,-1.4134,-0.3995,-2.7145,0.2615,1.3488,1.2511,-0.9259,-0.2444,1.2718
507,0.2185,-0.029,9.7832,0.2429,-0.4038,-0.0607,29.121,-9.8513,39.5271,-0.3038,0.7031,-2.6434,0.3094,-0.0946,2.2148,0.0614,-0.7691,-0.3588,0.1566,0.6334,-0.359,-0.8719,-1.1105,0.7113
517,0.0029,-0.0945,9.8105,0.4407,0.2301,0.2469,29.0205,-11.6786,40.5124,-1.0647,-1.3555,1.3019,0.825,1.2296,0.0666,-0.2294,0.8031,0.4379,-1.2641,0.2686,-0.2783,-0.6755,1.7334,-0.5676
528,0.0486,-0.1215,9.8021,0.4569,0.3783,-0.5017,29.7677,-9.9938,40.3176,0.2826,1.3594,0.5063,0.0673,-0.0019,-0.1812,0.2624,0.7355,-1.1729,0.5228,0.3901,-0.6006,-0.2704,1.8069,-0.5298
538,-0.1123,0.0678,9.7166,0.4859,0.0807,-0.5855,30.0599,-11.2434,41.623,-0.8384,1.0601,-0.4615,-0.7855,0.6255,0.787,-0.078,-0.2898,0.2601,-0.4591,1.4011,-0.6978,-0.8968,1.6749,0.5609
549,0.0305,0.0598,9.7971,1.0039,0.0911,-1.1215,28.7963,-10.488,39.6931,-0.4555,1.259,0.4894,0.2333,-0.2822,0.9582,-1.0233,-0.6671,0.2251,0.8453,-0.2054,1.5133,0.3581,-0.2698,0.3064
559,0.1003,0.0058,9.7645,0.5946,0.3896,-0.02,28.5256,-9.674,40.4917,0.0549,0.6125,-0.5368,-0.043,0.0182,-1.0139,1.412,1.503,-0.4394,1.1154,-1.154,-1.0867,-0.8602,-0.1523,0.2522
570,-0.0107,0.1099,9.7821,0.3572,-0.6628,0.6853,30.5731,-11.2563,39.4061,-1.9001,0.0104,1.2674,1.2407,1.6937,-1.7147,1.5147,0.6717,0.4037,1.3824,1.4788,-0.5192,0.2782,-0.2158,-0.6765
580,0.0498,0.1779,9.7815,0.764,0.6027,0.6094,27.8132,-10.6274,40.2428,-1.5191,-0.146,0.057,0.1206,-0.0665,1.1526,0.9969,-0.1743,-1.0873,1.1139,1.939,0.2545,-1.5157,1.3056,1.1828
591,0.0824,0.0078,9.7961,0.6319,0.4837,0.0526,30.3384,-10.7142,41.097,0.742,0.3895,1.7828,0.6782,0.1197,0.4737,0.9673,0.5624,2.4103,0.3948,0.6784,-0.8415,-0.5796,-0.541,1.3799
601,0.0896,-0.1272,9.8649,0.3706,0.782,-0.604,29.4563,-8.7338,39.9766,-1.3282,-0.8461,1.5519,0.9894,0.3258,-0.9638,0.0588,1.4789,0.1892,1.1318,-0.0748,-0.3988,-0.6848,-1.1994,-0.4536
612,0.0432,0.1044,9.7432,-0.3288,0.6489,0.2643,30.9024,-10.1379,38.0167,0.2004,0.8578,-0.5198,0.3797,-1.1067,-0.6765,-1.5713,0.2351,1.7441,0.1005,-0.449,0.8256,-1.0958,0.2591,1.1461
622,-0.017,0.0577,9.7675,-0.5285,0.5204,-0.6546,29.216,-9.8195,40.3402,-0.6689,0.067,-1.0125,1.3837,-2.3533,0.1036,-0.3428,-1.1105,0.6592,0.8353,-0.2944,0.2611,0.5039,-1.2603,0.4806
632,-0.0471,-0.2024,9.809,-1.464,0.2967,-0.0669,30.4853,-9.9116,39.4044,2.114,0.8088,1.6369,-0.2861,-0.3043,-0.737,-0.2702,-0.2028,1.7487,0.7056,1.1476,-0.1334,-0.6141,-0.8432,-0.8971
643,0.1336,-0.0084,9.7452,0.1933,-0.2045,-0.679,28.7754,-10.1799,39.7403,-0.4627,1.1392,-0.7881,0.853,-0.4037,-0.8095,-1.411,-0.0371,1.252,-0.2347,0.0636,0.9054,-0.314,0.5882,0.7111
653,-0.0415,0.0281,9.878,0.4954,-0.7949,-0.6477,30.0078,-11.7568,39.8403,-0.024,1.4576,0.0439,-0.5681,-0.1432,-1.3865,-0.5981,-0.3891,-1.2628,1.6751,-1.2493,-1.1615,1.3651,0.6452,-0.37
663,0.0284,-0.0777,9.8712,-0.2085,-0.6151,0.5882,31.1,-9.4127,40.1917,1.8782,-0.8492,0.6325,-0.5821,-0.9338,-0.4121,0.2152,0.697,0.6951,0.7823,0.074,-0.0375,0.2805,0.4339,1.3795
674,0.1821,0.1173,9.7941,1.2294,-0.0391,0.1137,30.2207,-10.1753,39.662,-1.7368,-0.445,-0.3264,1.0491,2.3661,-1.6089,-2.2258,1.1143,-0.9633,-0.1081,1.6294,-0.8035,1.632,-1.0732,0.2484
684,-0.0605,-0.1781,9.7848,-0.7227,0.6065,-0.0998,31.1415,-8.2297,38.7995,-0.1026,-1.3907,-0.3604,-0.1169,0.8104,-0.7044,0.4496,1.2321,1.0347,-1.0945,0.7197,0.0487,-0.0734,0.7661,1.5598
694,-0.0008,0.0507,9.7441,0.5813,-0.9204,-0.425,29.6499,-11.1706,40.7806,1.1057,-0.3297,2.9502,0.717,-0.4623,0.6072,0.0742,-0.7065,1.3243,-0.2989,-0.5713,-2.1563,0.4819,-0.3413,-1.2218
705,-0.1249,-0.0662,9.7873,0.2589,0.6932,0.4491,29.8723,-8.4468,41.012,-0.5334,-0.3652,-0.9446,-0.9587,-0.5471,-0.299,0.5353,1.3258,0.7345,-0.4844,-1.0742,0.758,-0.276,1.187,0.1308
715,0.0048,-0.0765,9.7726,0.2091,0.6172,1.0598,30.7424,-9.2879,39.4273,-1.9175,1.984,-0.8035,-0.9459,0.9271,0.6052,0.5741,-0.4312,-0.9116,0.0359,0.9135,-0.5591,1.7926,-1.4483,-0.183
725,-0.101,-0.119,9.8494,0.1964,-0.0219,0.2733,28.7485,-11.2972,40.7234,0.1869,1.7731,-0.4627,0.2385,1.7055,-0.4024,0.8591,2.0508,-0.5493,0.7212,1.1341,-0.8363,0.3353,1.6435,1.3138
746,-0.1068,0.0431,9.8299,0.0913,0.2044,-0.3126,30.5647,-9.5488,41.0858,1.927,1.7464,0.1863,-0.1261,0.1892,0.2734,0.2833,1.1748,0.7001,-1.6658,1.5904,3.1322,-0.4564,0.5568,0.6527
760,0.075,0.1474,9.7997,0.6585,0.1863,-0.2232,29.4556,-10.1148,41.9091,1.0612,0.1646,-0.8538,-0.8285,0.3504,0.7854,-1.1189,1.2374,-1.6325,0.3957,0.177,0.0971,0.2921,0.4533,0.5158
772,0.1547,-0.0439,9.7945,0.6024,0.1452,0.3025,29.6455,-10.6938,38.6819,0.3328,0.7045,-0.7417,0.3014,0.0885,1.9741,-0.8623,-1.4264,0.2378,-0.928,-2.3764,-1.2801,-1.8599,0.725,0.1304
786,0.0076,-0.0808,9.7683,-0.232,0.4696,1.5127,28.5512,-10.8534,38.1433,0.9109,0.3343,-1.1888,-1.4369,-0.9825,-0.2965,-0.3203,-0.8314,-0.8718,-1.5375,-0.3452,-0.2567,-0.7144,1.1001,0.6886
797,0.0612,0.0047,9.8455,0.1491,-0.0063,0.6808,30.7273,-11.1652,41.5943,-0.8904,1.0659,-0.2288,-0.5126,1.4575,2.6982,-0.2356,1.2897,-1.0572,-0.4538,1.4923,0.2277,-1.1814,1.1691,-0.784
808,-0.0924,0.1589,9.842,-0.1501,-0.2776,0.7957,29.7512,-10.1572,40.2559,0.1988,1.4361,2.1674,-0.6011,0.3867,0.7288,-0.6523,-1.3423,-0.4571,1.25,0.602,0.3962,0.7231,-0.1105,-1.2589
819,-0.0771,0.0586,9.8906,-0.291,0.2844,-0.5489,28.9744,-9.7868,38.3897,0.5863,0.166,0.9059,0.5201,1.3458,-0.4251,0.2618,-0.8067,-0.7658,-0.5177,-0.996,-1.4203,-0.526,-0.2258,-1.5936
831,-0.1408,-0.0959,9.8975,-0.1308,-0.0521,0.725,28.8282,-10.0478,39.5542,-1.2822,0.3667,0.4976,2.1515,0.1412,-0.4612,-0.269,1.0862,0.3742,1.4816,0.73,-0.1798,-0.2409,0.3876,0.4434
841,0.0662,0.0157,9.7408,0.5523,0.2652,-0.3066,29.0549,-10.8694,40.3809,-0.8932,-0.2001,1.2322,0.3527,-1.5201,0.4242,0.9404,-0.2527,0.3407,-0.3698,1.7824,-0.7212,-0.675,1.4753,-0.0617
851,0.0469,-0.0313,9.817,-0.6342,-0.29,-0.2597,30.4656,-10.6735,40.1419,1.3414,-0.0121,-1.9361,0.6107,-0.1803,-0.831,0.4557,0.5577,0.3092,1.9835,0.0283,-1.0807,0.209,1.696,-0.9693
865,0.0635,-0.0013,9.9273,-0.2199,-0.223,-0.6785,31.5257,-10.672,41.5512,-1.7529,-0.4608,0.3919,-1.2884,-1.373,0.9085,-0.6681,-0.2019,0.3075,-0.9184,-0.9587,-0.6818,-0.7535,0.5214,1.3188
876,-0.1026,-0.0392,9.889,0.5885,-0.4526,-0.4928,30.3203,-7.8981,38.0457,0.1138,-1.7345,-0.4504,-0.3047,-0.9825,-1.2442,1.1478,1.2554,-1.4659,0.7123,-0.9421,2.0234,2.5845,-0.7752,0.8709
888,-0.0871,-0.0435,9.8554,-0.7186,-0.3032,-0.8792,28.2036,-9.5664,41.4342,1.4989,0.3241,0.3931,0.4263,-1.6772,1.0105,-2.0212,0.9864,-0.214,1.4752,0.3365,-0.3602,-1.7589,0.6198,-0.0528
901,0.1947,-0.0376,9.8282,0.1975,0.0015,-0.0393,31.4005,-9.0213,40.836,-0.1394,0.8657,-0.5802,1.2568,0.3643,2.0614,0.1301,2.1851,-0.8388,1.8027,2.0453,-0.1023,1.2873,0.315,0.7127
911,0.0625,0.0564,9.8638,1.1827,0.7539,0.4421,29.2968,-9.9795,40.8311,-0.2479,-0.1488,0.5603,-0.7273,-1.7549,-0.297,0.619,-0.7344,1.3623,-0.0207,0.511,-1.534,-1.045,1.0768,-0.016
923,-0.1508,-0.0247,9.8378,0.4566,0.0808,0.486,29.0968,-9.3056,37.3693,0.3861,-0.0495,-2.5198,0.5628,-0.68,1.6841,-1.1153,-1.9164,1.1966,0.2447,-0.6675,0.5937,-0.0138,-0.9324,-1.3812
934,-0.102,-0.0989,9.6648,0.2881,0.3113,0.2017,30.4106,-9.2768,40.2203,-0.3874,1.3966,1.1714,-1.311,-0.9942,-0.3376,0.0671,-0.0289,1.3274,-1.1773,-1.1959,0.5939,0.3481,1.0337,-0.3743
944,0.0873,0.206,9.6783,0.5553,1.1954,0.1708,27.5285,-8.5731,39.106,-0.119,0.7261,-0.5362,-0.1576,0.091,-0.945,-0.0364,-0.0148,0.4033,-0.2497,-1.5664,0.6128,1.185,-0.1224,-0.0946
955,0.067,-0.0287,9.7623,-0.04,-0.3221,-0.1873,30.7449,-10.7917,38.1301,0.229,-0.5778,-1.1161,0.8203,-0.1193,-0.5509,1.5187,1.2605,-0.0948,2.1129,0.5288,0.6781,-0.5334,-0.5159,1.0584
972,-0.1312,0.0553,9.7746,0.8352,0.1879,-0.771,29.4704,-10.7579,39.1794,1.0167,-0.8426,0.134,-1.2672,-0.3823,-1.345,-0.1785,-0.1476,-0.3556,-0.7402,1.4855,0.9095,0.1705,0.5902,-0.1588
983,0.1545,-0.045,9.7866,0.4408,0.1948,-0.0131,30.034,-8.0635,38.5823,-0.4741,-0.7531,0.5763,0.4538,-0.5744,0.7314,0.2831,-0.1912,-0.4174,1.7241,-0.7325,0.3747,0.8956,0.4034,0.4616
994,-0.1082,-0.035,9.7472,-0.0714,0.9775,0.5999,31.5867,-10.575,40.2638,-0.0106,-1.569,1.3281,1.4326,-0.3118,0.7207,-0.1979,-0.403,-0.5302,0.8455,-0.4082,-1.1936,1.013,1.2472,-1.3753
1005,-0.0128,0.1507,9.8634,0.0517,-0.4074,0.2313,29.525,-10.2458,39.5255,0.9745,-1.4018,0.0314,-1.2766,-0.1731,0.0209,2.3635,2.3173,1.0761,-2.103,-1.0568,0.8538,-0.2827,-0.0694,0.7524
1016,-0.1834,0.0373,9.7984,-0.2443,-0.0943,0.1877,30.9167,-8.8611,41.1402,-0.8299,0.1573,-0.2438,-1.2494,0.638,-1.049,0.0765,-1.5947,-1.1402,0.7106,-1.9064,-1.0047,-0.894,1.0466,-0.5928
1026,-0.0311,0.0534,9.77,-0.5129,-0.1284,-0.4334,29.8849,-10.02,38.2471,-0.7658,0.2338,0.8128,-0.2667,1.8805,-1.2161,0.0048,0.3951,-0.4231,1.1345,0.577,-0.4741,-1.309,-0.1848,-0.3296
1038,0.0632,0.0374,9.7753,-0.2701,0.2272,-0.4544,29.0973,-9.5567,39.7314,0.0301,-1.275,0.2379,-0.5806,0.0571,0.1772,0.5965,0.7706,0.7252,1.4769,1.122,1.1864,1.4832,-1.3672,0.3776
1048,0.0385,-0.0907,9.7635,-0.1173,-0.1388,0.4013,30.9477,-10.3495,40.6056,-2.0869,-0.4033,-1.4866,-1.0688,1.4369,0.4462,0.2694,0.8774,0.3929,1.0434,-0.2677,0.9201,0.9245,0.7742,0.531
1058,0.0868,-0.0924,9.7277,-0.4384,0.4846,0.6446,31.2849,-8.7928,38.5944,-0.0228,-2.2383,0.1931,-0.5945,-0.399,1.371,-1.3436,-0.9892,-1.2997,1.4422,-1.4927,-0.3189,-0.3781,0.0577,-0.2748
1068,-0.0102,0.0044,9.8065,-0.3787,-0.1298,0.1437,30.4205,-9.291,40.8241,0.2282,0.3796,-0.7438,-0.1032,0.5599,-1.0788,2.1026,1.2504,-1.4708,0.9706,1.2157,0.1118,1.0343,-0.3096,-0.2866
1082,-0.0089,0.0511,9.8531,0.277,-0.0779,0.1948,29.5099,-10.3181,42.5676,0.2381,1.447,1.7531,-0.6945,-1.6299,-0.1536,-0.435,-0.3356,1.2137,0.1734,-0.8809,-1.824,0.4504,-0.4697,0.3969
1097,0.0978,0.0535,9.873,0.2448,-0.2783,-0.5772,30.4195,-10.7222,40.7467,-0.6414,0.4164,0.1682,0.804,-1.0661,-0.8191,0.3066,-0.2016,0.6596,-0.345,0.8453,1.7173,0.5695,-0.6906,-1.0575
1107,-0.0176,0.0505,9.7325,-0.485,0.3001,-0.5372,28.9638,-9.3335,39.211,-1.5803,0.0712,-1.4404,1.063,-1.8564,0.2693,-0.7972,-0.1799,1.3932,-1.2361,-0.4641,-2.0614,-0.228,-0.7022,0.7597
1121,0.1374,0.0224,9.8529,-0.6815,-0.9379,-0.26,28.8843,-9.9528,39.4837,-0.7444,0.3079,0.7094,-0.9494,1.2246,0.2387,2.4621,-0.0673,1.3688,-2.5347,0.9606,-0.3346,0.2015,2.679,0.6177
1131,0.0733,-0.1497,9.7308,0.268,-1.1135,-0.8635,30.6813,-9.3495,40.6529,-1.3556,1.8142,0.8701,-1.236,-0.8505,0.9142,1.2914,0.7061,0.9497,0.4824,-0.164,1.2439,0.0586,-1.1519,1.034
1142,0.0918,0.054,9.809,0.0906,0.1122,-0.1444,28.4687,-9.6171,40.4336,-0.5178,1.0193,0.8405,-0.7758,-1.9933,0.3538,0.4657,-0.1075,0.5001,-0.9349,-0.3513,0.6932,0.0405,1.1494,-1.7968
1154,-0.0617,-0.0897,9.7581,0.8459,0.1234,0.0159,31.5612,-9.918,41.6566,1.0672,0.739,-0.686,-1.4117,0.5773,1.3682,0.0047,0.8135,-0.0186,-0.4247,0.512,-0.1571,0.9005,-1.2251,1.8087
1164,0.0704,0.0139,9.8058,0.7315,-0.1613,-0.0406,30.1294,-12.0093,41.0047,1.2517,0.4924,-0.6932,-0.0159,0.4045,0.0189,-1.3787,0.9265,1.4557,-1.6865,0.3648,0.9559,0.7975,1.8674,0.5373
1175,-0.0283,0.0674,9.7897,-0.0593,0.6253,-0.2611,28.2951,-10.1621,40.6699,-1.3596,1.35,0.0445,1.3846,0.2155,-1.1506,-0.2746,-0.625,0.4819,-0.1243,-0.4057,-0.3907,2.5194,-1.3233,0.5341
1185,-0.041,-0.0577,9.8354,-0.9417,-0.2811,-0.5237,31.1695,-8.8221,39.7735,0.1672,-0.7687,-1.4263,-0.7498,-0.531,-0.6272,1.777,0.946,-1.5962,-1.5135,-0.9933,-0.0919,0.3939,-0.8494,0.8923
1196,0.0076,-0.0442,9.8191,0.0163,-0.0319,-0.2531,28.3657,-10.5285,40.0068,-1.6524,-0.2397,-0.4146,0.2425,-0.4514,-1.551,0.3823,-0.0473,-0.3627,0.2925,0.2071,-0.374,1.0677,-0.2581,0.7887
1214,-0.018,0.0001,9.7832,-0.3271,0.9727,-0.2794,30.169,-9.9519,41.9914,2.2615,0.5883,-0.0962,-0.273,0.1254,0.6656,1.1138,1.3845,2.0368,-1.604,1.0883,-1.9788,-0.3703,0.9408,-0.1915
1224,0.0281,0.1662,9.8657,0.1831,0.4248,0.1201,30.861,-9.8805,39.7729,-0.8776,-0.644,-0.1155,0.9064,1.8991,-0.889,-0.3441,-2.0071,0.3034,0.4287,0.2855,-0.6416,0.5833,0.494,-0.6752
1235,0.1335,0.1144,9.7777,-0.2439,-0.2304,-0.1728,30.794,-10.8593,40.1342,-1.8185,-0.4127,-1.0778,0.0895,0.8101,0.4571,0.2209,-0.3139,1.2849,0.498,0.1389,-1.3181,0.524,0.5811,1.024
1247,0.1572,-0.024,9.7559,0.4162,-0.2738,-0.3072,30.8919,-10.8014,40.3574,0.1094,-0.645,-1.2083,-0.4329,-0.6857,-0.2237,1.2881,-0.8131,0.7777,0.926,-0.2989,0.4696,-0.0721,-0.7483,1.1623
1258,0.0589,0.0081,9.9038,0.5497,0.0306,-0.5785,29.9258,-10.7626,41.1424,1.338,1.1782,-1.4565,0.0406,1.5136,0.4416,0.581,-0.9658,0.021,0.3209,1.0465,0.0544,-1.1122,0.3133,0.1475
1269,0.1482,-0.0881,9.8129,-0.5034,0.1235,-0.4418,31.2702,-10.3472,40.1333,0.5281,-1.1894,-2.0671,0.0696,-1.2721,0.524,-1.4892,-0.3512,-0.1178,-0.2409,-1.8886,-0.3192,0.9156,-0.5611,-0.2533
1279,-0.0358,-0.0651,9.7911,0.08,0.3363,0.518,31.9558,-11.4248,38.9457,-0.4574,0.0366,-0.051,-0.1035,0.5886,-0.709,-1.2856,1.3821,-0.5658,1.2089,-1.2957,-0.0339,-0.2516,0.3259,-0.0899
1289,-0.0618,-0.0778,9.7984,-0.269,0.0449,0.6761,29.7124,-9.0816,41.9704,-1.869,2.0103,-1.2125,0.2696,0.1454,-0.9795,-0.36,-1.8205,-1.3746,1.0647,0.8754,-0.0367,0.4681,0.0744,0.4506
1300,-0.0732,-0.0548,9.8296,0.2316,-0.3567,0.0282,30.4441,-10.5966,39.9054,-0.0372,-0.4126,-0.8564,-0.6429,-0.3596,0.7998,-0.913,0.1563,-1.8843,0.3143,-0.8403,1.0053,0.3638,1.8314,-0.191
1310,0.0842,-0.1684,9.8396,-0.0634,-0.6405,-0.0396,29.5639,-10.934,39.5645,-0.7042,-0.2605,-1.097,-0.8701,-0.4326,-0.4838,-0.8925,0.0001,-0.3343,-0.6256,-1.1088,-0.6888,1.0394,-1.282,1.3461
1320,0.1271,-0.0737,9.7681,0.2103,-0.1295,-0.2282,30.1374,-9.069,40.7941,0.6279,-0.3523,0.7116,0.8516,0.1641,-0.7105,-1.7344,0.2267,1.0698,-1.4666,-0.2695,0.9658,0.3821,-0.6222,1.1307
1337,-0.1032,0.0182,9.8563,0.318,0.243,-0.1686,29.6215,-9.4149,39.7468,-0.1483,0.8072,0.5634,1.1151,-0.2615,1.073,-1.3902,0.9667,0.6189,-0.4075,-0.9897,2.4582,-0.5482,-0.2434,0.1924
1348,0.1279,-0.0094,9.7483,-0.0023,-0.0923,-0.0424,28.2596,-10.2394,39.2183,-1.6329,-0.1696,0.7232,1.3725,0.9481,0.6158,-0.6357,-1.364,0.3522,-0.2203,0.5198,-0.4813,-0.8726,0.299,-0.1189
1358,-0.0828,-0.1026,9.737,1.3555,0.5414,0.04,28.199,-10.2523,40.0673,0.2339,0.6476,1.0081,1.0517,2.3044,1.0501,-0.6964,1.7698,-0.9838,-0.9714,0.584,-0.1893,0.543,0.2609,1.0946
1372,-0.1181,0.0288,9.9177,-0.0073,-0.3536,0.0791,29.6234,-11.1212,40.3119,-1.4607,0.6567,-0.8464,0.4565,-0.3496,-0.0642,-0.5358,-0.0433,-0.9068,0.3117,1.2599,0.5281,1.6302,0.2128,0.4686
1383,0.0156,-0.1518,9.8514,-0.6044,0.3849,-0.0678,29.6723,-10.5821,39.5957,0.0072,-0.8784,-0.0744,-1.1806,0.4936,2.0085,0.8637,0.7289,1.5901,2.138,-0.8302,0.1535,-0.0528,0.2015,-1.0137
1394,-0.0625,-0.0441,9.8122,0.5206,-0.3763,0.6352,30.13,-10.68,41.0238,-0.518,-0.1122,-1.1036,1.0297,-0.6978,-0.0493,-0.7695,-0.36,0.7469,0.2307,0.1863,1.6747,0.022,0.4719,-0.5346
1405,-0.1179,-0.0691,9.7272,-0.4419,-0.4474,0.3236,30.6205,-10.9641,41.3259,-1.759,1.515,-0.4822,0.8199,-2.2409,0.9892,0.3302,-0.2946,0.4205,0.9392,0.1364,0.7673,-2.4032,0.5995,0.8607
1416,0.0509,-0.0399,9.8758,0.7185,-0.371,0.1199,30.4802,-8.2778,40.4817,-0.6122,-1.8137,0.8202,1.103,-0.8581,0.7777,-0.4266,0.0238,0.5211,-0.7637,0.3511,-0.369,0.4372,-1.2302,0.9295
1426,-0.0143,-0.0185,9.8146,-0.2816,-0.3969,0.1989,29.6337,-10.8772,39.5955,-1.0369,-0.1576,0.6062,0.6297,-0.7705,0.4228,-0.4789,1.4384,0.007,-0.2629,0.869,-0.7402,0.2442,-0.8482,1.7899
1437,0.0623,0.1077,9.8639,-0.0752,0.0793,-0.4371,29.6369,-9.8071,39.5154,-0.5273,1.4351,-0.7517,0.2989,-0.5208,0.2784,0.084,-0.5714,-1.3173,-0.5225,0.1768,0.9117,-1.6302,-1.4913,-1.3974
1460,-0.0187,0.1163,9.8509,-0.097,-0.4361,-0.528,31.0762,-11.4076,39.1812,-1.6855,-0.3111,0.1152,0.7954,0.0883,0.0979,0.3952,-0.6215,-0.8685,0.3421,-0.771,1.091,-0.736,-0.7392,1.618
1472,-0.0767,0.0232,9.8097,0.3096,-0.4724,0.6111,30.6992,-9.1158,40.0944,0.8038,-1.5514,1.5604,0.3149,-0.644,1.223,0.2528,-0.9688,-1.0252,1.3317,0.4005,1.8674,-0.7348,1.0716,1.189
1483,-0.0124,-0.0467,9.8689,0.0142,-0.5588,-0.5014,29.1817,-9.8702,39.3943,-0.7947,-1.5435,0.8464,1.0509,-0.5368,1.116,-1.1539,0.9271,0.0648,-0.1952,-1.3889,0.528,-0.2921,-0.2271,0.203
1495,0.1061,-0.0374,9.7285,0.5393,-0.8789,-0.1485,30.3493,-10.1681,41.7393,1.2894,-0.3291,1.0211,0.4162,1.8527,-2.3122,-0.5368,-0.8029,-0.4847,-0.5299,2.0528,-0.1629,1.132,1.9597,0.6194
1507,-0.107,-0.0778,9.8017,0.4893,-0.0511,-0.3086,29.6141,-10.0223,39.1489,0.6975,0.358,0.3917,-1.0441,0.1496,-0.2205,2.3702,-0.821,-1.7748,0.3821,0.7144,0.2612,1.3646,-0.3461,-0.108
1517,0.1209,-0.0219,9.7204,-0.2844,-0.068,-0.085,28.2511,-8.6263,39.7648,0.8275,0.095,0.2162,0.5361,1.0083,-0.1461,0.2365,0.8426,-0.2119,0.2277,-0.4927,-0.5223,0.0344,0.7998,-0.5321
1528,-0.1509,-0.2515,9.7345,0.7117,-0.6792,0.3164,29.7365,-10.9021,38.6772,1.3844,-0.9493,0.0198,1.3739,0.2436,1.9973,0.5135,3.419,-1.716,-0.6205,0.2237,-0.6445,-0.0025,0.6707,0.0744
1538,0.1141,0.1058,9.7338,0.0038,-0.1521,0.0532,29.8187,-9.2608,40.2613,0.1646,1.4483,0.4514,-0.5313,-0.4924,-1.0065,-0.4552,-1.6928,0.6347,1.2401,0.2364,0.8331,-1.3592,-0.3287,0.0333
1548,0.0011,-0.0777,9.9179,0.5613,-0.6031,0.3377,31.2543,-10.7406,38.1999,-0.0505,-1.9146,0.0898,0.4282,-0.1403,0.5781,-1.9236,-1.6637,0.1394,1.9806,0.5122,0.6425,-0.4032,1.8078,0.988
1559,0.0155,-0.1367,9.8933,-0.6014,-0.008,0.0699,32.6813,-9.4214,39.4776,0.7238,0.7409,0.3462,-1.9652,1.2214,1.0319,-0.2436,-3.0032,-1.6352,-0.3114,-0.6802,0.5044,-0.7537,-1.786,-1.391
1570,-0.0416,-0.0915,9.7946,0.1686,0.3685,0.2301,29.8287,-9.352,41.1438,-0.99,1.2018,-0.5383,0.2166,1.5654,1.6504,-0.4066,0.5655,1.388,-0.4766,-1.142,-0.7394,-0.3729,-0.4478,-1.1649
1586,-0.0893,-0.1246,9.8059,-1.0877,-0.0622,0.5354,30.9011,-11.2634,39.1664,0.0839,-1.329,-0.8735,0.9562,-1.3318,-0.2031,0.2004,-2.0046,-1.5471,-0.2437,-0.6315,-0.971,0.2886,0.0929,-0.5089
1597,-0.0745,-0.0197,9.7743,0.3382,-0.268,0.3043,28.9091,-10.1833,39.618,-0.4397,0.5692,-2.0562,0.8965,0.5,1.138,1.6455,0.0753,1.6587,-0.3,-2.1023,-0.9178,0.129,1.8593,0.1549
1608,-0.0203,-0.0635,9.7444,0.5252,1.4179,-0.0114,31.8661,-11.0429,38.5331,0.5776,-0.5712,0.3199,-0.0919,0.3803,0.286,0.0005,0.3213,-1.1514,-0.936,-0.3862,0.0823,-0.2206,0.4118,0.308
1623,-0.0793,-0.0072,9.7305,0.0013,-0.4351,-0.1306,31.2079,-10.7706,39.7107,0.6675,0.174,-0.0756,0.5369,-0.376,-0.1614,0.9961,-0.1789,-0.1633,-0.7241,-1.5363,-1.1877,-0.3377,0.7523,-1.1606
1635,0.2025,-0.1448,9.7431,0.4626,0.5796,0.4239,30.2474,-10.254,40.8382,-0.569,1.572,-0.7339,1.1467,0.7681,-0.0652,0.0902,1.7479,1.2992,1.235,-0.4117,0.7531,1.133,1.3322,0.4058
1645,0.0309,-0.1701,9.8684,0.1118,-0.8918,-0.2805,29.5653,-10.0398,40.0105,0.2359,-0.4373,0.4221,-0.5206,-0.0748,-0.844,1.1296,0.2419,-2.0817,-0.7578,-0.3907,0.6213,0.3988,-0.8729,1.6698
1656,-0.0422,0.0793,9.7843,-0.1329,-0.0625,0.0631,30.7849,-10.7016,38.4905,-0.1423,0.3083,-0.6927,-0.0493,0.3288,-0.6672,1.1824,-0.4941,1.1724,-1.0707,0.2829,-0.4075,-0.3295,-0.7098,1.0317
1666,-0.111,-0.1094,9.788,-0.2046,-0.507,0.0488,28.8616,-10.5434,40.2273,-0.6252,0.0143,-0.0098,-0.8417,-1.4999,0.5508,-0.216,1.9492,0.6411,0.0659,-1.2599,-0.4535,0.1147,-0.2565,0.8564
1676,-0.0785,-0.0169,9.7604,-0.3916,-0.3442,0.3118,29.4044,-10.7445,39.2165,1.0482,-0.3898,-1.3351,-0.2143,-0.6182,-0.4553,-1.2024,-0.6164,-1.6871,1.0237,1.1387,0.578,-0.6434,0.2487,0.1484
1686,0.1739,-0.0991,9.8599,-1.1993,0.335,-0.2512,28.5179,-11.6614,39.182,-1.3395,0.7972,0.8897,0.931,-0.7762,-0.5787,-0.6968,0.2287,-0.2789,-1.2268,-0.1483,-0.2722,1.4999,0.806,-0.7156
1710,0.0341,0.0231,9.8013,-0.1505,0.9076,-0.5062,31.7085,-9.0201,40.4591,-1.7693,-0.031,0.5448,0.9758,1.0483,0.3134,2.0541,0.809,-1.2437,-0.7411,-0.1172,-0.1892,-0.3134,0.7707,-0.7054
1721,-0.0004,0.114,9.7867,0.1876,-0.3295,-0.5065,30.9038,-10.1624,39.398,-0.4781,0.0135,0.7148,-0.3918,0.6341,0.837,-0.8108,0.6187,-0.0128,0.3196,2.0355,0.214,-1.9125,1.1725,-1.097
1732,0.1157,-0.0278,9.8614,1.1629,0.4747,-0.5425,27.669,-8.6844,39.7422,0.0602,0.0907,-0.5959,-2.0518,-0.1741,-0.6742,-0.9775,-0.2341,-0.565,-1.1015,0.1018,1.3058,0.7249,1.7114,-0.3561
1746,0.043,0.1368,9.7964,0.2134,0.007,0.1706,30.7463,-10.4625,39.3472,-0.9407,0.9432,1.0626,1.8296,0.0078,0.9261,0.6829,-0.2575,-1.5089,0.398,-0.1462,-0.7002,0.8752,-0.3713,2.6682
1756,-0.0503,0.0961,9.8404,-1.0962,-0.3143,0.6223,30.1101,-11.6114,38.1694,-0.7048,0.4759,1.1718,-0.2704,-0.2119,-0.9761,-0.0062,-0.3292,1.3849,-0.9764,1.7749,-0.7583,1.0724,0.7856,-0.5964
1767,0.0775,0.0085,9.7844,0.3489,-0.7953,0.5973,30.0244,-10.5042,38.5877,-0.5921,0.8344,0.0279,0.515,1.6515,0.9993,0.7726,-1.5842,2.1881,0.2035,-0.3764,2.1553,-0.1161,0.2511,1.0481
1777,-0.183,-0.2642,9.7703,-0.1463,0.4827,-0.571,29.7694,-9.1953,39.7728,0.1106,0.6784,0.6478,0.2295,-1.5996,-0.9217,-0.4199,-0.1843,1.6951,-1.35,-1.4305,0.9626,-1.3455,0.7473,-0.3252
1788,0.2669,0.0306,9.7758,-0.1267,-0.8769,0.1926,29.7857,-9.9049,39.8528,1.2159,1.6562,1.0984,0.0991,-1.2537,0.4144,0.679,-1.2288,0.2833,2.3639,-0.528,0.6489,0.3801,-1.4039,-0.6561
1799,-0.0056,-0.0542,9.8018,-0.7779,0.2112,-0.3451,30.2684,-11.2219,38.9435,0.9396,-1.3634,1.4605,-0.4407,0.9602,-1.4939,0.8819,-1.172,0.664,0.1122,-1.0018,-0.0802,0.3197,0.7937,-0.7041
1809,-0.1573,0.0708,9.7074,-0.1017,0.563,-0.4331,30.0677,-10.3512,40.3627,-0.6766,-1.642,-0.6467,-0.3974,0.0026,-1.6663,-0.5423,1.7014,1.0992,0.3029,-1.109,-0.6364,0.0969,-0.7454,-0.9341
1827,0.0716,0.0431,9.7776,-0.5635,0.2949,0.1145,30.2962,-11.0894,40.1635,0.0396,-0.4865,-1.7326,-0.2199,-0.0893,0.3183,-0.5262,0.0662,-1.392,0.4128,0.924,-0.6696,-0.0193,-1.2926,-2.2789
1837,-0.0021,0.1744,9.7337,-0.0711,0.3252,-0.0157,31.1369,-11.2742,38.6118,0.2086,1.5572,0.9492,1.1033,0.8634,-1.3778,0.8801,1.8851,-0.3977,-0.1751,1.4545,0.6582,-1.6155,0.8854,0.6771
1849,-0.1983,-0.0042,9.7264,0.1256,-0.0798,-1.0942,29.4243,-10.7688,41.0728,-1.1134,-1.7372,0.4643,-0.7694,-1.3137,-0.6867,-0.449,0.2977,-0.7341,0.4464,-0.9192,0.7384,-1.0199,-0.8832,0.3252
1862,-0.1662,0.0714,9.8739,-0.4762,0.5907,-0.1067,30.3764,-10.6169,40.4579,0.9799,-0.1511,-1.2165,-0.9014,0.6546,-1.3281,-0.2913,-1.0502,1.7928,2.0447,-1.0246,-0.2534,0.5172,0.625,0.9956
1873,0.0965,0.0467,9.8129,1.1719,0.3707,-0.6776,32.138,-8.686,39.5069,1.3018,0.268,-0.6939,0.7784,-0.2678,-0.5014,-0.2961,-0.2033,-0.4667,-0.319,0.7493,-0.1137,0.0486,0.4403,1.23
1884,0.0136,0.1716,9.724,0.4507,0.349,0.2649,30.6636,-9.0536,40.0993,-0.3079,-1.3561,0.3421,0.0395,-0.0847,0.4971,0.8216,-0.8219,0.3641,1.2544,-0.2496,2.0727,-0.0606,-0.0901,1.4636
1894,-0.0768,0.0448,9.826,0.0918,1.1015,0.6546,30.7891,-8.9689,40.3662,1.466,-0.2615,0.7074,-0.2881,0.0103,0.4695,-0.5512,-2.3681,0.8786,1.5643,-0.0598,0.0077,0.239,0.5667,-1.6737
1905,0.0976,-0.0092,9.8563,0.674,0.5818,-0.2576,28.8952,-10.3097,39.7733,2.0763,1.4639,0.8783,-0.6412,0.2759,0.7702,-0.5717,-0.2088,0.3361,0.3191,-0.1521,-0.1287,1.0332,-0.8202,-0.7891
1915,-0.0561,0.1629,9.8116,0.0211,0.2398,-0.2699,28.7043,-9.5146,40.1988,-0.1297,-0.3386,0.869,-1.1357,0.6841,0.0304,-0.9168,0.3707,-0.6132,1.5302,-0.6014,-0.382,-1.538,-1.0172,0.9755
1926,-0.0477,0.0529,9.7987,0.077,0.6473,-0.2918,28.4963,-10.1677,39.3925,-0.4978,-1.8131,2.2428,0.4425,0.0585,-0.4438,-1.1278,0.8112,0.1609,1.238,-1.1373,0.9506,-1.2016,-2.0042,0.451
1944,0.0425,-0.0039,9.812,0.0018,-0.3689,-0.5424,31.1933,-9.2145,39.3835,-0.8105,-0.4852,0.1269,1.35,-1.186,0.8203,-1.4759,-0.0712,-0.1907,0.141,0.4241,0.5374,-0.3772,1.4938,0.657
1958,-0.0183,0.1229,9.8143,-1.0229,1.2407,-0.3084,30.7809,-11.2385,41.5218,1.6918,-1.2142,-1.6695,-1.0945,0.8211,-1.1385,-0.3185,0.7352,-0.0875,-1.4102,-0.0218,0.2078,-0.8595,-0.4493,-0.2205
1968,-0.0975,0.0255,9.8222,-0.3203,-0.1064,-0.6521,29.6067,-10.3113,39.1617,1.6129,1.3011,1.4171,-0.041,0.9166,0.5589,0.4235,-0.8048,-0.9438,-2.4318,0.6043,-0.7017,1.113,-0.1256,0.5289
1982,0.2404,0.0974,9.7307,0.4236,0.8626,-0.2426,30.88,-10.4151,41.0919,0.202,0.4786,0.3212,0.2115,-1.6867,-0.144,0.4282,0.0706,-0.3596,-0.7341,-0.9986,0.3083,-0.6571,-1.506,0.292
1994,0.0755,0.003,9.7913,-0.1153,-0.1341,0.6096,30.9832,-8.3178,40.1973,-0.8517,-0.7492,-1.1109,1.7414,-0.8554,0.9595,-0.361,-0.3239,-0.5859,1.5123,0.7203,-2.1735,-2.8698,-1.5917,-1.5678
2011,-0.0393,0.1141,9.7378,-0.1631,-0.4202,-1.1507,30.1635,-9.4285,39.9522,-0.1006,0.9123,0.5159,0.0744,0.821,0.6333,2.0465,-0.0872,-0.1319,-0.3178,0.781,-0.3645,-0.051,1.5675,-0.3132
2022,0.2751,0.2111,9.8226,-1.0605,-0.3223,-1.0516,29.4519,-7.3891,38.7387,-0.2456,-0.4373,-0.7502,0.8535,1.8443,-0.6665,0.6022,1.5144,0.5024,1.5144,0.4258,0.6568,1.1123,-0.7353,0.0926
2032,0.0746,-0.1159,9.9032,0.0443,-0.3786,0.3532,29.8226,-9.2553,39.9643,1.3885,0.149,0.4708,0.2991,1.2715,-0.2738,0.4591,-0.0632,0.7781,1.1318,-0.3434,0.474,-0.364,0.8403,-0.6927
2042,0.0137,0.0783,9.7567,-0.7928,-0.5254,-0.4033,29.8685,-10.6602,41.6969,0.9204,0.0158,2.58,0.1358,-0.777,1.5195,2.3399,-0.8413,-0.3796,1.0005,0.8805,-1.2537,0.3494,2.6363,0.3762
2053,-0.2349,0.1521,9.7065,0.0778,-0.044,0.1249,29.69,-9.7435,39.7702,-0.2894,0.0654,-0.9997,-0.0816,-0.9836,-0.7463,-1.6452,-0.5846,-0.5526,-0.5568,1.3529,-0.2502,-0.2783,-2.2534,-0.4352
2063,0.1205,0.0794,9.9174,-0.0445,0.2664,-0.6671,31.0015,-10.6672,38.2822,-1.2404,0.6273,-0.7542,0.255,-0.452,0.8228,-0.2504,-2.1621,0.204,1.1639,-0.6192,1.3716,0.3487,1.0033,-0.2447
2082,-0.05,0.162,9.7951,-0.3509,-0.6475,-0.4699,30.1271,-11.209,40.0607,-0.2423,-0.7369,-0.3484,-0.3814,-0.2687,0.3597,-0.0829,-1.5347,0.1578,1.0837,1.059,0.3047,1.1714,0.1929,0.1114
2094,0.1116,-0.1689,9.7007,0.2296,0.0179,-1.2011,30.8395,-9.3244,40.8855,-1.131,-0.4875,0.2476,-1.1405,-0.7829,1.2758,2.52,-1.3165,-1.0638,1.478,-0.3691,0.7321,0.5468,0.8741,-0.233
2108,-0.1059,0.2301,9.8205,-0.2711,0.1869,0.4928,30.8848,-9.9009,40.7009,0.1301,-1.3972,-0.0806,2.0019,-0.1213,-1.1556,2.9182,0.2728,0.5781,-1.228,0.412,0.5339,0.7142,-0.5675,-0.587
2119,-0.0469,0.0473,9.7861,-0.3821,0.0539,0.0751,30.4406,-9.7859,39.3215,-0.5306,1.0733,2.4913,0.1701,0.5079,-1.1331,-0.0492,0.3895,-0.8489,0.3833,0.2758,-0.9862,0.952,1.5694,1.9492
2134,0.1324,0.1389,9.7691,-0.5316,-0.2354,-0.3693,29.7812,-11.1104,42.7105,0.4985,-0.6065,1.6878,-0.2104,0.1891,-0.2512,0.8534,-0.184,-0.916,-0.03,-2.1546,-0.7718,-0.716,0.2677,1.4565
2145,-0.0547,0.0228,9.7264,0.0219,-0.349,0.3099,30.0796,-9.2024,40.5583,0.8966,1.1417,0.4117,0.2138,-0.584,-2.8276,0.0726,1.4766,-0.0066,0.9858,-0.2481,-2.0269,-0.0892,-0.4371,-1.9215
2155,-0.0332,-0.1387,9.7125,0.3649,-0.9374,0.1669,28.7753,-9.9649,40.1929,-0.7191,-0.2994,0.0522,0.5823,-0.76,0.7343,-1.7612,0.2805,-0.2663,0.5032,-2.4843,0.191,-1.0162,0.0273,1.3772
2165,-0.104,0.005,9.8066,-0.2781,-0.6282,0.4442,29.2865,-11.0228,40.5421,1.3206,1.0259,-0.8513,-0.9838,-0.0341,1.2368,-1.4885,-1.2494,1.2408,-0.3219,0.6451,-0.7102,0.3665,0.1487,1.7684
2176,0.1323,-0.111,9.8024,-0.7818,-0.8532,-0.3609,29.2768,-11.0329,38.8826,-0.8715,0.0064,0.6247,-0.824,-1.0965,-0.2836,1.1893,-0.0343,1.7092,-0.2939,1.4073,0.6521,-1.7601,0.126,-1.0077
2186,0.197,-0.1353,9.8651,-0.0221,-0.9374,-0.1597,27.6082,-10.9863,41.4797,-0.2229,0.4872,0.6558,0.4748,0.1325,1.6029,0.5857,-0.5684,-0.9264,-1.3418,-0.4222,0.5351,1.1049,0.2825,1.9287
2200,0.0665,-0.142,9.8249,0.1083,-0.2532,-0.5547,30.3902,-9.8869,38.915,0.2433,-0.543,1.5641,-1.498,-1.2022,0.0052,1.0908,-0.1245,-0.5528,0.773,-0.1264,0.2627,0.4467,0.9293,1.4916
2214,-0.0067,-0.1719,9.8314,-0.2301,-0.3451,-0.3312,29.8167,-8.5388,39.3064,-2.0051,0.4303,0.3186,-0.2442,0.7111,1.2859,0.3254,1.208,0.6704,-0.2323,-0.4264,-0.3792,-0.8742,-0.8059,-0.4704
2225,-0.2197,0.1842,9.8033,-0.264,0.1247,-0.5943,30.7319,-8.8921,40.1757,-1.7117,-0.5871,0.2566,0.676,-0.0902,0.8086,1.3913,-0.711,-1.5195,-0.9797,0.2575,-0.5394,0.1093,1.6467,0.7564
2236,-0.0007,0.0741,9.7377,0.0954,-0.1043,0.3156,31.5415,-9.7101,40.8305,-1.0919,0.668,0.8235,-0.575,-0.1572,-0.9426,-0.3287,0.2901,-0.6099,0.2097,-1.9576,-0.6808,-0.5468,0.7353,-0.3723
2249,0.0842,0.1198,9.7776,-0.0722,-0.0193,0.061,30.3878,-7.873,37.7149,0.4315,-1.1845,0.7853,0.7113,1.3787,0.1233,0.5387,-0.9462,-0.0804,0.9209,1.5521,-0.1936,-1.4058,-0.0545,0.1613
2261,-0.0665,0.1169,9.7603,0.3802,-0.0746,0.2732,29.957,-8.9016,40.7928,-0.5126,1.4902,-1.1147,-1.1869,1.2176,1.0381,0.1497,-0.9863,0.3239,0.3888,-1.9786,0.7875,-0.8738,0.1281,0.5548
2271,0.0377,-0.014,9.7015,0.0057,-0.7063,0.3349,30.1365,-9.1352,40.5358,-0.0581,-0.3177,-0.0105,-0.4282,-0.3007,1.3449,-0.4695,2.5159,-0.4032,-1.1195,-1.0798,-0.8149,0.7313,-0.012,-0.2673
2281,-0.0199,-0.0885,9.8329,0.7437,0.658,-0.7952,30.4688,-9.9707,40.5173,-1.8376,0.253,0.8761,-0.203,0.266,0.0145,-0.584,-0.2239,-1.1481,-0.5658,0.6684,-0.446,0.131,-0.7417,1.2255
2292,0.0475,-0.0683,9.773,0.1083,0.6856,0.5696,30.1907,-9.71,39.0157,-0.1144,-2.3408,-0.8002,-0.3005,0.558,0.2561,-0.1239,-0.0118,-0.078,-0.9979,1.5362,0.4697,-1.3879,-0.8518,0.8747
2302,-0.0283,-0.021,9.7382,0.0814,-0.6489,-1.228,29.6197,-11.0603,39.5612,0.6289,-0.4623,-0.02,-0.2895,0.0941,3.4384,0.6499,-0.2931,-2.0267,-0.7056,0.2156,1.1483,-0.6725,0.5427,-0.9385
2313,0.0162,0.1336,9.7369,-0.2098,0.1451,-0.2879,29.3096,-10.2994,40.4781,-1.5495,1.8249,0.8485,-2.3857,-1.8398,-0.7534,-0.3672,1.0014,1.3822,-0.8211,-0.2849,-0.8288,1.0963,0.488,-0.1436
2329,0.2727,0.0261,9.7283,-0.0394,-0.0206,-0.6648,30.8369,-10.9267,42.5565,0.4837,-0.3356,-0.3363,0.3113,0.6878,0.4122,-0.6867,-0.0559,1.2339,0.6168,1.3464,-0.5491,-0.4776,0.0272,-0.2945
2344,-0.031,0.258,9.7336,-0.2402,1.1552,-0.5608,30.6622,-10.2562,39.41,-2.8172,-1.6297,-0.0445,1.145,-2.4395,-0.774,-1.5172,0.443,0.5047,-1.4953,0.6698,0.9779,-0.8867,-0.7599,1.9151
2354,0.1105,-0.0702,9.8593,-0.429,0.1485,-0.5767,29.7877,-11.0373,38.9748,1.2924,-2.1821,0.1177,0.9658,0.4959,-1.154,-0.6227,1.3878,0.4453,-0.7329,3.1431,-0.8561,-0.8392,-0.9906,0.8328
2368,0.1186,-0.0325,9.8007,-0.1932,-0.9292,-0.3083,30.7243,-12.7478,40.2778,0.0996,-0.6758,-0.6596,0.3359,-0.539,-0.9049,-0.2309,0.5082,-1.1476,0.3412,-0.2122,0.0442,0.3285,-0.1765,0.7055
2378,-0.1195,-0.0579,9.7919,-0.0143,0.5282,0.3598,29.6579,-11.3002,39.383,1.4169,0.4284,0.1284,0.109,0.4254,0.0182,1.0062,0.8012,0.1478,0.717,0.9634,-1.2844,-0.1758,0.6762,-0.3197
2390,0.0547,0.0354,9.8717,0.2117,-0.1035,0.2079,30.3724,-9.3998,39.534,-1.3828,-1.3534,-0.1696,1.5085,-1.0738,1.7299,-1.243,1.4835,1.2624,0.7948,1.3979,0.7421,2.2388,-0.6646,0.8084
2403,-0.0459,-0.11,9.829,0.2349,0.1298,-0.3807,30.3816,-11.3758,41.0445,0.0415,0.0507,-0.0881,-0.5885,-1.8048,1.331,-0.7424,0.4288,-0.2682,0.0891,-1.5452,-1.1314,0.6718,-0.6802,-1.4653
2413,0.0846,0.1184,9.8299,-0.404,0.0388,-1.4533,30.0449,-10.5454,39.9645,0.218,0.5038,-0.845,0.1526,-0.5103,1.5275,-1.955,-0.183,-1.0802,1.1851,0.3886,0.9809,1.0229,-1.1475,-0.3506
2423,0.024,-0.1202,9.8243,0.6893,-0.4039,-0.7996,29.6691,-10.5098,39.5797,0.4566,1.1891,0.409,-0.2472,0.4321,-0.8073,0.4961,0.3974,-0.4395,0.8371,0.1672,0.7189,-0.8063,0.7232,0.8328
2434,-0.0656,-0.0345,9.8045,0.0545,-0.0511,0.3186,29.7899,-11.2926,39.3053,-1.1348,1.056,0.5405,1.2696,-0.1416,-0.8354,1.3656,1.2879,-0.2513,-1.1746,-1.072,0.8363,-0.0081,-0.2278,-1.7716
2454,0.0174,-0.0275,9.8648,-0.0285,0.2592,-0.1408,30.5457,-10.4685,39.399,0.1381,0.144,0.6848,-2.0625,-0.0648,0.6257,1.1311,-1.2033,-0.6001,0.1228,-1.5938,-0.0531,0.6445,-3.1368,-1.886
2465,-0.154,0.0002,9.7468,0.2493,-0.2254,0.4123,30.7198,-11.5984,38.2829,0.2967,0.5225,-0.3216,0.8262,-0.2891,0.8318,-0.7468,0.1097,-0.7698,-0.6869,-1.4337,-0.1247,-0.1815,1.8107,0.3208
2478,-0.0972,0.1178,9.7468,0.6777,0.0461,0.6512,31.4039,-10.8072,39.8901,-0.7403,0.3807,0.1207,1.5032,-1.175,-1.0835,0.6493,1.0048,0.998,-0.3087,-0.5661,-0.7678,-1.1037,-1.0485,0.6419
2489,-0.0482,0.1963,9.7706,0.5153,-0.3642,0.0055,32.2551,-9.7431,38.3232,-0.4129,-0.9548,0.0319,-0.5195,0.2423,-0.9032,0.3552,-2.1712,0.5963,0.4495,0.3867,0.7525,-0.1853,-2.1714,1.7526
2503,-0.0838,0.0507,9.9661,-0.116,0.4956,0.3537,29.7974,-8.7625,40.0759,-0.9575,0.4204,-0.2451,0.8423,1.877,-0.9847,0.6064,-1.1741,-0.1894,0.9418,1.0329,0.0774,-1.2243,-0.9768,0.9438
2514,0.1391,0.1257,9.7894,-0.491,0.7101,0.0442,28.8392,-9.2844,41.97,2.2271,-0.4689,-1.0969,0.3491,-0.9442,-0.9088,-0.9489,0.8515,-1.8216,-0.7087,-2.1888,1.3128,-0.6509,0.3638,0.7133
2525,0.0765,-0.1,9.8164,-0.155,-0.0459,-0.5708,28.9529,-11.4522,40.6533,-0.3998,0.1505,-0.1597,-0.1207,1.1822,2.4282,1.2102,-0.3034,1.1647,0.3164,0.0827,1.704,1.779,0.3331,-0.5613
2535,0.1257,-0.0009,9.8598,0.1242,0.0391,-0.3424,30.4749,-10.5783,39.9697,-1.115,0.9517,-0.2598,-1.8028,0.53,2.7665,0.363,-0.5688,1.1031,-0.1504,2.029,1.2078,-0.2417,-0.0384,0.5201
2546,-0.0601,-0.0825,9.8386,-0.3409,0.3571,0.7825,30.8719,-10.0226,39.2289,0.3308,0.3059,-1.2648,0.1611,0.1866,-0.784,-0.4659,0.1979,1.7254,1.0722,-0.0407,-0.2012,0.8936,0.2631,-0.431
2556,0.1346,0.0559,9.8099,0.9866,-0.0679,-0.8128,29.2418,-7.6719,40.3071,-1.0852,-1.1128,-0.0168,-1.4317,0.2669,-0.7271,-1.9902,-0.9544,1.9601,-0.3849,-1.1654,-1.7835,-0.2813,0.8835,0.1557
2567,0.079,0.0046,9.7784,-0.0147,-0.7447,-0.6238,29.3003,-8.835,39.5523,-0.5748,0.6544,1.0154,0.1283,-1.1508,-0.2623,1.174,-1.3043,0.9297,-0.3994,-0.4007,-2.0952,0.8631,2.814,-1.3127
2579,-0.1644,0.1284,9.7583,-0.5311,0.5753,-0.0955,29.1829,-10.6317,41.0852,0.6858,1.4865,-0.9305,-0.586,0.7746,0.2912,0.7386,-0.5931,0.4475,0.3935,0.8642,0.5972,0.234,0.5509,-0.9658
2592,0.0427,0.02,9.9771,-0.5508,0.1379,0.8222,30.0983,-10.01,38.736,-0.1653,-1.4376,1.3333,-1.6013,-0.6794,0.5142,1.6647,-0.2532,1.5386,-1.2226,1.1105,0.3897,1.6155,-0.68,1.0872
2603,-0.1648,0.0531,9.7667,0.7985,-0.5511,-0.2408,31.5473,-10.7423,41.2699,-0.0293,2.0628,0.2688,1.0691,0.0188,2.9473,-0.3203,0.9514,0.8187,0.6197,1.1894,-0.719,-0.5201,-2.0792,0.6704
2613,-0.2252,0.2385,9.7811,-0.1399,0.3553,0.0196,29.3889,-9.1788,39.5232,-0.4862,-0.1986,1.6932,0.0464,-1.0893,-0.3799,-1.3636,-0.4368,2.2886,-0.7568,-0.2875,0.8196,-0.0904,-0.477,0.3788
2630,-0.03,0.0665,9.8584,0.4823,-0.3995,-0.6201,30.6165,-9.9835,40.3521,0.1939,-1.4393,-1.8536,-0.6975,-1.157,0.1874,-0.0047,-0.5675,0.1485,-0.4388,0.1554,0.0234,-0.4762,-0.0875,2.2161
2642,-0.0396,-0.1834,9.7603,-0.4202,0.1067,0.1459,28.2979,-11.3263,40.5895,1.4341,0.5488,-0.7926,-0.6421,0.341,0.0944,2.4172,0.926,0.2993,-1.2625,-0.1058,0.0703,1.5222,-0.2857,-0.8317
2655,-0.0326,-0.1434,9.8753,-0.6813,-0.0767,-0.8971,31.4104,-9.6284,38.8365,0.2894,0.9197,0.2257,-0.1231,0.4011,1.595,0.4783,-3.0457,1.2598,-1.7156,0.0638,-1.4835,-0.303,-0.3432,1.6996
2665,0.1195,0.0496,9.713,0.2036,0.2872,0.816,30.9376,-10.4679,41.0251,0.2869,0.1216,-1.0865,-0.9801,0.4145,0.667,0.4299,0.1031,0.2788,-1.4344,0.763,0.2362,-2.3634,-0.6689,0.081
2676,-0.1323,-0.1814,9.7362,0.506,-0.2236,-0.3359,29.8918,-8.4187,39.7428,-0.5654,0.0408,0.058,0.4213,-0.5191,-1.0132,1.5831,-0.7234,0.7286,-0.5666,0.3236,0.5038,1.2102,0.417,0.3144
2686,-0.0243,-0.0297,9.7906,-0.143,0.2602,0.2261,31.2433,-10.3657,39.5365,0.7243,-0.1663,-0.2471,2.227,-1.6927,-0.1906,0.66,1.9853,-0.1414,-0.369,-0.4481,2.3139,-0.7152,-1.1967,-0.6528
2704,0.1084,-0.0371,9.8529,0.3646,0.4896,-0.1901,30.7797,-9.7928,39.4349,2.0065,-0.3282,1.8855,-0.1299,-1.1311,-0.0116,2.0391,-0.6282,0.355,-0.484,-0.2041,0.8948,-0.7459,1.3123,1.6975
2719,-0.0061,-0.0173,9.8422,0.3234,-0.2846,-0.5501,29.5412,-9.8836,40.9418,-1.6704,0.348,0.2368,-0.0758,0.1445,1.5709,0.699,1.0659,0.4199,-0.0517,0.5155,-1.1786,0.5517,-0.3797,1.284
2729,0.0908,0.0682,9.8858,0.2444,0.2268,-0.0168,30.4256,-11.3764,40.1465,-2.1545,0.0744,0.7841,-0.9327,-0.7284,0.5005,-1.0572,-0.5547,-1.1602,-0.6694,-0.6082,0.1909,-0.3112,-2.2328,-0.6399
2739,0.1527,0.1484,9.8571,-0.0693,0.4942,0.2464,28.9921,-9.6035,41.1624,0.5431,-0.7468,0.8952,0.4558,-1.8216,-0.0884,-0.7205,-0.262,1.0348,-1.6516,-0.2401,1.7327,-1.2825,-0.005,0.3555
2753,0.0883,-0.0301,9.7613,-0.4895,-0.3671,0.5067,29.3091,-9.4356,40.0964,-0.0161,0.0473,-2.1165,-1.2339,-1.1999,0.682,1.0783,-1.4726,0.2038,0.3187,-0.0116,-0.0038,0.8381,-1.004,-2.0762
2764,-0.1439,-0.1438,9.7741,-0.5482,0.8801,-0.0343,30.5826,-10.204,42.5609,1.7078,0.2394,1.534,0.3561,0.0922,0.1483,-0.0674,1.1118,-0.0888,-1.1538,0.8568,0.6474,0.4435,-0.6474,-0.8005
2775,-0.0945,-0.0133,9.7916,0.1009,0.3902,-0.4994,29.9826,-8.5038,39.503,-1.1535,-0.6605,0.7507,-0.4482,0.1728,0.932,0.4258,-2.5427,-1.3274,-1.0553,0.7509,-0.428,0.404,0.8279,1.0171
2785,-0.1086,-0.0518,9.8588,-0.3949,0.4005,-0.4477,28.4116,-10.2603,40.2891,1.2983,-2.0521,-0.6519,-0.3321,0.5997,-0.1765,-0.555,-0.7992,0.9036,1.1087,1.1947,2.3081,-1.3717,-1.1429,-0.3426
2796,-0.0041,-0.1464,9.7605,-0.2938,0.3993,0.0114,30.7606,-9.7419,39.3609,-1.3437,0.6582,1.621,0.2996,1.5654,0.5368,0.1669,0.7702,0.4602,0.366,0.1513,0.0358,1.6369,0.5485,-0.701
2806,-0.0844,0.0066,9.7562,0.6522,0.896,-0.3065,31.519,-9.9087,39.5822,0.2868,0.3476,0.4896,-0.6979,0.1862,-0.74,-1.6318,0.1065,1.032,1.9601,-2.5378,1.7891,1.3121,0.2459,-0.5054
2827,-0.1095,-0.0259,9.8255,0.7042,0.0188,-0.0166,29.8772,-9.4711,40.1213,-0.2449,1.3508,1.3065,0.7641,0.5285,-1.3933,-1.0436,0.5387,0.4239,-0.1519,-1.6318,-1.843,-1.2679,0.1249,0.7921
2839,-0.136,0.0014,9.785,-0.0544,-0.004,0.5912,29.3285,-9.574,40.4908,-0.6193,-1.0137,-0.3582,0.2879,-0.5747,-1.1859,1.292,0.6063,1.144,0.058,1.0718,0.7267,0.1436,-1.8546,-0.9306
2850,0.136,-0.0514,9.7313,-0.5288,0.003,0.6085,30.067,-8.6714,40.2125,-1.3309,-0.4796,0.3615,1.1661,1.3501,-0.9781,-0.8326,0.7034,1.6773,0.6819,0.7455,1.2851,-0.8558,-0.6473,-0.7884
2860,-0.0033,0.1316,9.7726,-0.2952,0.3251,0.4291,27.7255,-9.1811,41.1244,0.7464,-0.0335,-1.1058,-0.0674,-1.5108,-0.5549,-0.6586,0.4241,-1.6501,1.7673,-1.0656,-1.0837,-0.537,0.1342,-1.5918
2870,0.0233,0.1455,9.9197,0.4001,0.6444,-0.0151,29.4861,-10.6698,40.5513,-0.1116,-1.2673,-0.727,1.74,0.7254,0.1923,1.5039,1.7075,0.5931,-0.8957,-1.0482,0.2403,0.6062,0.406,1.2609
2881,0.1041,0.0252,9.774,0.0571,-0.4277,0.7644,30.6607,-11.4675,38.7894,-2.3964,-0.4442,-0.3443,-0.1253,-0.3413,0.1248,-0.5742,-0.2684,-0.9112,-0.3121,0.4269,0.3552,-2.1578,0.3548,0.2924
2892,-0.019,-0.049,9.7025,0.9713,-0.7941,0.5298,31.4702,-9.9266,41.0995,-0.6602,-2.2791,2.2843,-1.5116,-1.1791,-0.0109,-0.4916,0.4353,-0.6106,0.6653,0.4174,3.0285,-0.5891,0.6933,-1.0079
2903,-0.192,0.1889,9.8523,0.2931,-0.3717,-0.4671,30.4278,-8.6537,40.3644,-0.3271,1.3931,0.6848,-0.4583,0.398,-0.8154,-0.1591,-0.2339,0.1061,1.0167,-0.444,0.6297,0.862,0.2696,-0.5233
2913,0.1875,-0.0071,9.8502,-0.4432,-0.4718,0.0113,31.5452,-9.9092,38.8977,-0.5441,0.8408,-0.4705,0.4565,0.7241,-0.3231,-1.5149,-1.1368,0.3709,0.3678,-1.2897,0.1021,2.3633,0.193,-0.6197
2924,-0.1135,0.048,9.7886,-0.5439,0.0168,0.0107,31.3281,-9.6597,41.4308,-1.4606,0.2019,-1.0025,0.4981,-0.2961,1.1133,0.3829,-0.8815,-0.0408,1.2973,-0.3129,0.8111,1.1955,1.2877,0.8224
2943,0.0103,0.004,9.7392,-0.558,-0.1253,0.1243,29.9015,-10.6217,36.6877,-0.9838,-0.0563,2.6992,0.299,-1.4989,-0.6058,1.6989,1.4199,-0.1163,-0.1186,-0.9575,-0.7269,0.7408,-0.989,0.0492
2954,-0.0905,-0.0847,9.7686,0.4363,-0.2406,0.7685,28.5698,-8.6575,39.2282,-0.2602,0.7499,0.2946,0.7924,0.4378,0.2638,0.3077,-0.7407,-1.6141,-0.7842,0.3733,-0.2544,-0.5538,-0.105,-0.8859
2964,0.2592,0.1011,9.7709,-0.2106,0.0479,0.165,29.3786,-9.4087,39.4724,0.5287,0.399,1.9011,1.1348,-2.5731,1.5755,-0.5338,-0.0871,1.0778,-0.9189,1.3302,2.0367,-0.3219,0.7071,0.4675
2975,0.0687,-0.0901,9.7723,0.1973,-0.4793,0.2863,29.4456,-9.4011,40.0511,-0.1318,1.3147,0.2991,-0.8548,1.0206,-0.1036,-0.1143,0.171,-3.1091,-0.0966,-0.4241,-0.9061,0.9702,0.2839,-1.5145
2985,0.0917,0.0994,9.7665,0.7404,-0.686,-0.7023,29.3507,-9.2877,41.5067,-0.1048,0.3932,0.1392,-0.0613,1.29,1.3448,-0.3915,-0.13,0.0056,0.1755,-1.3871,2.6124,0.6298,0.5612,-0.8583
2995,-0.0467,0.0989,9.7287,-0.202,0.5839,0.2324,29.7953,-10.8088,41.5838,-0.2458,-1.0135,1.2969,1.7383,0.5883,0.1953,0.7404,-1.173,-0.4393,-0.2997,-0.7621,1.4346,-2.0119,-0.19,2.3695
3012,0.1077,-0.041,9.794,-0.4092,-0.6346,0.433,29.1043,-9.5871,38.5255,-0.4558,2.5031,-1.4976,-1.0971,-0.6508,0.382,-0.3614,0.316,0.8834,-1.2018,0.2172,-1.3154,1.1177,-1.1788,-1.3712
3022,-0.1206,0.0554,9.8183,-0.1244,-0.7269,0.5324,30.5146,-9.998,37.5036,0.9626,-1.4215,0.9747,-0.687,-0.3473,-0.5265,-0.3437,-0.9636,0.2412,0.6848,-1.0497,-0.4063,0.2777,1.7258,1.3797
3032,0.1497,-0.26,9.8636,-0.5958,-0.4879,0.1949,29.2048,-11.9232,40.3361,-0.0071,1.1013,-1.3859,0.3695,-0.6484,0.1179,-0.9741,-1.0905,-0.5903,1.6418,-0.6948,-0.2797,-1.2267,-0.0754,-0.7265
3042,-0.0918,-0.0859,9.7707,0.8761,-0.4244,0.298,30.0286,-10.5539,39.6125,0.6164,0.0321,-0.0736,0.9999,0.1145,0.5786,-0.9805,-0.3877,-0.9505,1.1291,1.4623,-2.0352,0.2622,-0.0493,-0.4853
3065,0.107,0.231,9.7994,0.1013,-0.0877,-0.3057,30.6775,-9.8435,40.2888,-1.1725,0.4675,-1.0511,0.6716,1.4769,0.0055,0.5263,-1.0372,-0.0639,0.0194,-1.1564,-0.2985,-0.0348,0.5159,-0.0721
3079,-0.0563,0.0245,9.8882,0.1694,0.3066,0.2859,28.5503,-10.7559,39.7224,0.3383,-0.9957,-0.6037,-0.1939,0.8613,-0.3651,-0.5285,0.9797,-1.2897,-0.9659,-1.8059,-1.747,1.741,-1.039,-0.2674
3090,0.0735,-0.02,9.7813,0.297,-0.4222,0.3404,29.5454,-10.8262,39.0715,-1.3942,0.0894,1.2386,0.5514,0.0857,-0.6234,0.7864,-0.6135,-0.738,0.2713,1.5734,0.0738,1.7789,-2.1691,-1.5575
3104,0.1024,-0.1019,9.8568,1.089,-0.3658,0.6019,30.4586,-9.3612,39.7017,0.64,-0.0947,-0.6141,0.8848,-0.0718,-0.507,-0.6631,-0.3173,-0.4278,-0.5601,-1.2173,0.7745,0.6472,0.2538,-1.8842
3115,-0.0455,-0.1707,9.7667,0.8623,0.806,-0.5012,31.5205,-10.422,40.7705,-0.0964,0.6029,-1.2295,0.6641,0.5822,0.3635,1.0791,-2.9335,-0.162,-0.6677,0.0826,0.8263,0.1331,-0.4197,-1.0735
3126,-0.128,0.1341,9.7301,0.7995,0.3901,0.0868,31.3595,-10.0169,40.5063,-0.3343,1.2267,0.6368,-0.9248,0.8287,2.0086,-0.3012,0.5479,-1.0459,0.3169,-0.1307,-2.0919,-0.641,0.552,-0.0626
3138,-0.0706,0.1122,9.783,0.1053,-0.153,-0.7412,29.7788,-9.7226,40.1649,0.3201,0.5499,-0.2861,-0.2606,0.2087,-0.4725,0.2135,0.0862,0.0008,-0.8058,0.6387,0.627,-0.2655,-0.329,1.304
3148,-0.1384,-0.1246,9.7663,-0.2128,-0.0885,-0.287,30.5773,-9.9599,40.5283,0.333,-0.1159,2.5868,1.5668,-0.5327,-0.1385,-0.5097,-0.7394,-0.2635,1.443,0.3335,-1.352,0.6131,-1.6452,-1.2161
3158,-0.2599,0.0543,9.8146,-0.0155,-0.0785,-0.2784,29.6243,-10.444,40.8767,0.1644,0.1365,-0.3825,1.7754,0.114,0.1245,0.4558,-0.3503,-0.5556,0.7298,-0.3742,0.6571,1.7952,-0.5417,-1.2623
3169,-0.0655,0.0549,9.8184,-0.1665,-0.4978,0.1493,29.5135,-10.9913,38.7231,0.598,-0.5205,-0.687,1.2066,0.1763,1.7517,1.4667,0.5331,1.1402,-0.4753,-1.0032,0.9679,-0.2763,0.3411,-0.9924
3188,-0.0732,-0.1018,9.8107,0.0584,0.1158,0.1781,31.2294,-8.8078,39.5081,-0.5714,0.1524,0.2154,-0.5439,-1.2237,1.0754,-0.4662,-0.3331,-0.091,-0.9195,0.247,-0.2699,-0.7346,-1.0167,-0.3198
3201,0.0077,-0.025,9.8068,0.6632,0.5791,-0.1796,29.7395,-9.3324,39.5096,0.5433,0.6215,-0.9385,1.249,-1.3671,-1.0878,-0.1784,1.5289,2.0296,-2.5246,-0.9166,-1.515,1.3164,-0.9491,-1.0166
3212,-0.282,-0.0117,9.7471,0.7265,-0.2883,-0.0259,30.0136,-10.0446,41.0864,0.5411,0.6088,1.2257,-0.1905,-0.5518,-0.56,1.7281,2.4687,-2.4326,1.5429,-0.3716,0.9111,0.038,0.5991,1.2426
3222,0.0238,-0.0313,9.8877,-0.5436,-0.0678,0.0872,29.1863,-12.5594,39.8898,-0.507,-1.368,0.8791,-0.6573,0.0333,2.2159,0.2118,1.8895,-1.1404,-0.4086,0.5463,0.7738,-0.5532,-1.0701,0.6803
3238,-0.0243,-0.066,9.7811,-0.2842,-0.7446,0.3259,31.4102,-10.9587,39.7681,-0.0328,1.2994,1.8594,1.4979,1.1187,0.2032,-0.0247,-1.1535,0.2891,0.3905,-0.1279,0.1661,1.2677,0.8387,0.674
3249,0.0358,0.0778,9.7922,-0.1414,-0.4246,-0.3236,29.2221,-9.7624,39.9465,-0.1204,-1.0534,-0.3337,-1.1154,0.5043,-0.3925,0.0423,-0.6031,-2.0842,0.9366,0.5469,-0.3874,0.5269,-0.9882,0.8534
3260,0.01,0.2517,9.8764,-0.0332,-0.3748,-0.0716,29.294,-9.1616,38.7237,-1.8758,1.0015,0.2324,-1.7201,0.0184,1.2179,1.09,0.5261,1.0665,-0.0157,0.4856,0.6799,-1.8381,-0.3642,-2.4236
3270,0.0835,-0.1138,9.8064,-0.1954,0.6102,0.1265,30.8035,-9.9739,42.8365,-1.2891,1.8651,0.7036,2.0087,-1.1401,0.5386,-1.6667,-0.2186,0.5865,0.3964,-1.623,1.3419,0.7631,-0.3803,-1.027
3280,-0.0615,-0.0387,9.7642,-0.0232,0.1062,0.5903,29.4073,-10.8602,39.2776,1.4683,-0.7659,-0.5666,-0.0018,0.2218,0.4043,0.4913,-0.3628,-0.8484,-0.547,-1.2027,0.1409,-0.5899,0.5951,2.373
3291,-0.1975,-0.039,9.8676,-0.4312,-0.0624,-0.2891,30.3737,-9.7158,40.6849,1.216,0.2649,1.8683,0.1814,1.6802,1.316,0.8996,-0.488,0.0393,0.1355,0.3243,1.5875,2.2614,-0.3339,-1.1053
3303,-0.0468,0.1409,9.7824,0.158,-0.7343,0.1094,29.8966,-9.8319,38.593,-2.163,1.0669,0.0983,0.674,1.982,-0.9352,-1.3256,-1.6064,0.8924,0.8759,0.5379,-0.6084,-0.5441,-0.3423,2.1081
3314,0.0665,0.0044,9.8508,-0.3516,-0.809,-0.827,28.8427,-9.9365,38.4462,-0.5085,-0.0793,-0.6257,1.3092,-0.271,0.903,0.4251,0.0553,0.0573,2.8027,0.7751,1.6446,2.159,-1.7365,-0.1898
3325,-0.0025,0.0087,9.8025,-0.3514,0.3434,0.3081,30.1065,-10.1704,40.0135,2.1882,-0.6919,0.9349,0.2016,-0.3705,0.7987,0.2037,-0.3547,-1.1345,-0.4449,-0.6768,-0.8389,-0.2525,1.0476,0.0478
3336,0.0514,0.0284,9.7357,-0.181,-0.182,-0.3499,28.3856,-11.3976,39.2448,-0.0822,-0.7556,-0.449,-0.3189,0.9745,0.9287,-0.6635,-0.5448,-1.0761,1.6879,1.2428,-0.1384,-0.7909,-1.4432,-0.3715
3346,-0.205,0.1013,9.8733,-0.3196,-0.1155,-0.098,30.2271,-10.4037,39.0292,-1.0742,-0.0482,0.5201,-1.3265,0.5624,-0.1079,0.4867,0.1709,-0.1985,0.4213,0.0533,-0.2741,0.1223,1.5315,-0.6927
3358,-0.0361,-0.032,9.8173,0.2136,-0.5642,-0.3119,32.1375,-9.7287,40.556,0.0166,-1.7272,-0.9778,-1.3331,1.3898,-1.9134,-0.3904,0.6925,-2.0317,0.3659,0.288,0.1143,-0.0872,1.5159,-0.0892
3373,-0.0919,-0.106,9.8985,0.051,0.7288,1.5538,29.3359,-8.944,38.9804,-1.6747,0.9693,-0.0261,-1.657,-0.4146,0.2958,-0.8242,-0.7532,-0.6116,-1.174,-0.3353,0.3397,-0.3007,0.8646,-0.4103
3384,-0.1581,0.0189,9.7907,0.2022,-0.1891,-0.554,30.6652,-10.1861,40.553,0.1425,-0.463,1.9858,-0.0043,0.1743,0.8299,-1.1212,-1.2388,0.4991,-0.9913,0.5621,1.1932,-0.3183,-0.1943,-0.3322
3394,-0.1292,0.0851,9.7563,1.2123,0.7823,-0.0926,30.9489,-10.1938,40.1242,0.5289,-0.7552,1.1654,-1.0871,-0.1778,-1.3782,0.5572,0.4908,0.4494,0.649,0.6335,-0.8113,1.0477,0.8078,-1.0034
3405,0.0231,0.0867,9.8235,0.532,-0.374,0.6543,30.2211,-10.5548,40.9828,-0.6214,0.1527,-1.3393,0.0442,-0.007,0.7643,1.253,-0.7061,-1.1719,0.0101,2.0304,-2.6716,0.0606,-0.7859,-2.1536
3415,-0.0856,0.1033,9.8256,0.054,0.2902,-0.2788,30.3417,-10.0476,41.7774,-0.4704,-0.1642,-0.4634,-0.0043,2.4264,0.5673,-0.2686,-0.2832,-0.8439,-0.9465,-0.8019,0.2638,-0.5842,1.2345,0.5794
3425,0.1065,-0.0351,9.8648,-0.4181,0.3263,0.2691,28.9416,-9.4015,40.1571,0.0536,0.7232,-0.4127,-1.3187,-2.0252,0.1894,1.825,1.496,1.4936,-1.3627,-1.8319,-0.3003,0.3467,-1.2228,-0.7408
3440,-0.1587,-0.0166,9.8851,0.8329,-0.5485,-0.1984,28.4886,-10.0676,39.9904,-0.8063,0.0318,-1.0259,-0.0948,1.2577,0.6117,-0.7989,2.5953,-0.7354,0.3878,-1.7157,1.0477,-0.3828,-0.6624,0.5774
3452,0.0326,-0.0498,9.7442,0.0822,0.4461,-0.3066,29.1404,-10.5006,39.4485,-1.8125,-0.3285,1.5531,1.4271,2.1438,-0.334,-0.317,1.0246,-0.0508,0.1671,1.462,0.209,0.3865,-0.2548,0.6347
3465,-0.1313,-0.1423,9.8256,0.0259,0.7829,-0.2551,29.1555,-8.7601,41.1744,-0.6838,0.9008,-0.9145,0.8757,0.5925,-0.4067,-0.5468,0.1212,-0.854,-0.612,-1.2819,-0.0969,-0.6418,-0.0565,-1.9058
3476,0.0524,0.0086,9.7895,-0.102,0.0797,-0.4014,31.824,-10.2089,40.8655,1.3251,-0.5182,1.4181,0.3961,0.0016,1.778,0.0288,0.8109,-1.6627,-0.7618,-0.307,1.3014,1.9364,-0.3588,1.3397
3492,-0.1311,-0.1517,9.795,-0.148,0.4328,1.0109,30.5091,-10.1387,38.8686,-1.1385,0.2077,-0.1485,0.3951,0.9432,-1.3906,-0.7608,1.2899,0.4097,1.0443,0.9203,-1.8875,-1.0019,0.7702,0.4577
3502,0.0983,0.018,9.7354,0.2484,-0.3375,-1.15,29.2098,-11.0818,39.5511,-1.2255,2.031,0.0672,-0.4332,-0.9415,-0.8006,1.3838,-0.5132,1.7913,-0.9379,-0.7369,1.5439,-0.4663,0.0223,-1.9554
3513,0.0083,-0.1197,9.6914,-0.3316,1.4675,0.0108,30.3669,-10.2553,38.7382,2.3343,-0.5427,-1.1129,1.7972,-0.8277,0.0131,-0.3012,0.3781,-1.8809,0.8357,-0.2708,-0.8295,-0.7399,-0.9521,-0.0582
3523,-0.037,-0.0575,9.8072,0.7837,0.8787,0.8572,31.4556,-10.345,39.5735,0.5876,-0.1203,-0.2536,-0.0062,0.011,1.3852,-0.2202,-0.8982,-0.0449,0.417,-1.0263,-1.6374,-1.5864,-0.5145,-1.5688
3533,0.112,0.1282,9.8463,-0.7769,-0.3027,0.6839,29.3712,-9.6673,41.4533,-0.881,0.104,-0.8236,-1.5135,-0.4573,-0.4828,1.6078,0.9516,-2.1554,0.3608,-0.5099,0.6448,-0.4683,0.2161,-0.1986
3544,0.0972,0.1545,9.7317,-0.1049,0.2008,1.0555,28.5694,-8.5333,39.9787,-0.4647,-0.5775,1.0524,-0.9347,-1.5261,-0.5482,0.4557,-1.9205,-1.0498,-1.1595,-0.8734,1.375,0.2195,0.1741,1.2804
3564,0.0218,0.1624,9.8375,0.7694,1.0648,0.4083,30.7212,-10.3233,40.4585,-0.8572,0.1756,-1.1071,0.3815,-0.159,1.1615,-0.3845,1.0052,1.3735,-1.0115,0.503,0.3208,-0.0806,1.3038,1.2297
3577,-0.0981,0.0422,9.7914,-0.8549,0.2742,-0.3383,29.3827,-9.8936,40.4402,0.5252,0.2491,-0.7487,-0.1282,-0.6909,0.1525,0.1801,-0.5577,-0.8294,0.9137,0.1346,0.4445,-1.8942,-0.6913,1.1122
3587,-0.0768,0.081,9.8072,-0.318,0.3931,-0.6801,28.1343,-6.9061,40.2542,0.6178,-0.7716,-0.1442,-1.3237,-0.1493,0.3066,-0.5579,-1.0697,-0.3559,0.2576,0.5225,0.8681,-0.0092,0.0453,-1.2571
3598,0.0858,-0.0415,9.7078,0.8571,-0.1905,0.2334,31.2573,-11.0745,41.2252,1.428,-0.455,0.2839,-0.2036,1.4446,1.1501,0.4401,1.0102,0.1888,-0.247,-0.0117,-0.1999,0.0537,1.3181,-1.2202
3614,0.1006,-0.0167,9.7623,0.1722,-0.6301,-0.6626,29.5727,-9.0611,40.8621,-0.2105,-1.169,0.5122,-0.7257,0.0091,-1.3715,1.6209,0.458,-0.2748,-0.1013,-0.2526,1.4985,1.3814,0.244,-2.1196
3626,-0.0484,0.0309,9.8166,0.133,1.1105,-0.2869,30.8157,-8.6381,39.1747,0.2192,-0.9442,-0.2632,0.7632,-1.0873,-1.9633,-0.1906,-0.4991,-0.0244,0.6951,-0.2735,2.0771,0.8147,-1.0393,-0.6093
3636,-0.0577,-0.0577,9.7773,1.0777,0.3174,0.512,28.3682,-11.1439,41.7342,-0.2476,0.5082,-0.0735,-0.2699,0.201,-0.6361,-1.74,0.9424,0.1353,-0.1453,-0.2747,-0.3995,-0.1567,-0.254,1.9856
3647,0.0002,0.0506,9.8953,-0.6705,0.2315,0.2449,29.348,-11.3684,40.2007,-1.4966,0.5134,0.0881,-1.8305,-0.1091,-0.5002,-0.7839,-0.1729,-1.2317,-0.3269,0.5693,-1.1753,-0.3299,-0.2151,-1.5157
3657,0.1992,0.2025,9.7686,0.6527,-0.2286,0.3378,31.0865,-10.1387,39.3672,0.7472,-0.1948,-0.1655,0.0011,0.0305,-0.2164,-0.5621,-1.2783,-0.8587,-0.3233,0.9786,-1.013,1.0162,0.4864,0.4809
3667,-0.0145,-0.0324,9.7832,0.4737,-0.4639,-0.791,30.6151,-11.5828,41.2207,-0.1479,1.5661,0.8644,0.594,-0.3826,-0.0412,0.5933,-0.5996,-0.8685,0.3165,0.4476,-1.4031,-1.4923,0.588,0.8341
3685,0.1078,-0.176,9.8336,0.5383,0.6583,0.1371,29.6385,-10.393,40.5552,-0.5716,-0.6303,0.7065,0.933,-0.4019,-0.4393,-1.0627,0.2102,1.0499,-0.477,-0.5924,-0.0315,-0.6536,1.0772,0.4326
3695,-0.0802,-0.0347,9.7704,0.0896,-0.4196,-0.1085,30.2195,-9.0967,38.3313,0.1924,2.2753,1.3367,-0.4484,0.2232,-0.8968,-1.2829,-0.721,-0.9108,1.4667,1.8692,-0.0295,2.1286,-1.1097,1.3647
3708,0.0349,0.0602,9.7665,-0.2047,-0.6704,-0.1564,29.3083,-8.3017,41.4602,0.4942,-0.3846,-2.0303,0.1267,1.3169,0.1719,-1.4442,0.9311,0.1147,-0.7093,0.5968,-0.2079,-0.5027,1.1963,0.0525
3722,0.0239,0.1297,9.8081,0.401,0.0589,-0.1283,30.7608,-10.5778,40.4102,-0.7193,-0.5068,0.6465,-0.9923,-0.3426,0.812,-0.4555,-0.4226,0.251,0.6873,-0.6997,0.2908,0.7773,-0.4579,0.3975
3739,0.0056,0.0708,9.88,-0.4777,0.4246,-0.2809,30.372,-9.8105,38.948,1.5123,2.313,1.3096,1.1013,1.5518,0.321,0.5577,0.4424,1.3681,-0.7206,-0.5134,-0.1943,0.8882,1.583,-1.2493
3750,0.0687,0.0956,9.7338,0.1527,0.95,1.3211,30.0868,-9.7304,40.1979,0.1158,-0.2025,0.1427,0.033,0.3868,-0.9718,-0.7003,-0.0997,0.005,1.3754,0.0068,0.9502,0.7659,0.7226,0.7304
3761,0.1042,-0.1323,9.8224,0.6098,-0.2683,-0.9607,29.1134,-10.0947,39.976,-1.1164,0.0601,1.0022,-0.3811,-0.4079,1.3983,0.2822,-1.2095,0.4385,-1.738,0.2548,-0.2224,0.4308,-0.8498,-0.1071
3772,-0.0089,0.0452,9.8239,-0.2753,-1.2028,-0.4002,28.3892,-10.5945,39.5962,-0.2362,-0.2726,1.1979,-1.9342,2.0648,-1.425,-0.3545,-1.192,0.4367,0.063,-0.6327,-2.8676,-0.1489,-1.6602,-0.4438
3782,0.0476,0.0143,9.9311,-0.2034,-0.5593,-1.0108,29.5956,-9.2807,39.2892,-0.3161,-0.9488,0.9086,-0.328,-0.5267,0.7579,2.3075,0.768,0.7424,0.153,0.1365,0.5097,-0.7097,-0.0367,-0.3739
3792,0.1253,0.0983,9.8469,-0.5786,-0.8862,-0.2071,29.5736,-9.2867,40.7665,1.3118,-1.1841,0.9735,0.1173,0.4723,-1.0557,-0.6235,0.239,1.0418,0.2532,0.9393,-1.3024,-1.7647,0.4573,1.2354
3803,-0.0109,0.2109,9.7563,0.0891,0.7973,-0.1514,29.8321,-9.5314,40.1298,0.7462,1.3391,0.7652,1.892,-0.4491,-1.1097,-0.6432,0.4677,0.4107,0.4134,-0.9111,1.2187,0.2934,-0.9713,-0.6132
3820,0.0736,0.0275,9.716,-0.3413,-0.3258,-0.1698,30.5512,-8.6673,40.6658,0.1006,-0.8082,-1.1651,0.6628,0.4313,0.1194,0.2853,0.1634,0.9485,0.9808,-1.9805,0.2339,-1.887,-1.6118,-0.0428
3832,0.0048,0.1844,9.7922,-0.8348,-0.1401,-0.1228,31.375,-9.0903,39.4268,-0.1232,1.3579,0.6475,2.3516,0.4545,-0.2559,0.075,-0.0481,1.5336,-0.7168,-0.0062,0.8258,0.5548,1.1433,-0.9428
3843,-0.0517,-0.1053,9.7759,-0.7966,0.9086,-0.3438,29.0385,-9.6824,40.05,-0.6913,0.9548,-0.8854,0.5285,-0.3025,0.7986,-0.6713,-0.1637,-0.1277,-0.2325,-0.502,0.4438,0.3139,-0.0539,0.3552
3854,-0.1436,0.016,9.7781,0.3638,0.5374,0.3778,30.409,-8.4707,40.7915,1.5089,-1.1221,2.0064,0.0744,-0.1712,1.9721,-0.7781,1.1429,0.2838,-1.198,1.6361,-0.7565,-0.4135,-0.6729,1.0958
3873,-0.0163,-0.1109,9.7527,-0.186,-0.3292,0.1626,29.4419,-10.3764,38.1792,-1.5455,-0.3086,0.3647,-0.8302,0.4462,1.5835,0.4978,0.4246,1.4048,-0.1493,-1.088,-1.8592,0.9822,-0.5282,-0.7629
3884,-0.0024,-0.0151,9.7942,-0.0278,-0.9459,0.6772,30.1673,-10.0405,40.8462,0.4969,0.6497,1.0364,-0.7279,-1.06,0.245,-0.3282,1.6058,0.7039,-0.5231,-0.2507,-0.2347,-1.1033,-1.4821,-0.4334
3896,0.1191,-0.0737,9.7493,-0.5578,-0.6867,0.1479,28.6652,-11.8703,39.4215,0.3892,-1.0554,-0.1907,-2.4734,-1.7229,-0.2364,1.0322,0.8367,-0.965,0.0144,-1.3619,1.8485,-0.4477,-0.6929,-1.41
3907,-0.0192,-0.1662,9.7311,-0.3825,0.0451,-0.4266,28.8894,-10.1098,38.7214,1.5204,-0.9599,-0.905,0.6521,-0.6747,0.0502,0.6832,1.6429,0.0615,-0.725,-0.3199,-0.4049,0.0408,0.7171,-0.8068
3917,0.0537,0.072,9.7831,0.1123,-0.1165,-0.3233,28.7165,-9.5314,39.3929,0.1007,-0.0647,-1.4384,1.1137,0.7538,1.0025,0.1309,-0.7692,-0.2534,0.6786,-0.0805,0.1894,0.6718,-0.186,0.8246
3927,-0.026,-0.0862,9.7635,-0.2729,0.0725,-0.376,29.6042,-10.6087,39.3635,-2.2853,-0.0339,-0.2584,0.7364,0.6421,0.9425,0.3805,-0.8793,0.0681,-0.4346,1.1201,1.0378,0.0908,0.8327,0.1404
3942,0.0616,-0.0297,9.7945,-0.5548,0.1025,0.752,29.9896,-9.8584,40.4538,2.2217,0.7312,-0.9843,0.3856,0.516,-0.6069,0.5755,-1.5209,0.8934,1.1952,0.5918,-1.3853,-1.1798,-0.4943,1.1551
3952,-0.0102,-0.0265,9.7441,0.719,0.1325,-0.4512,31.0856,-10.3306,39.9368,-0.7256,-1.5826,-1.321,0.3426,-0.5673,0.0033,1.4047,-1.6361,-0.0168,0.5096,0.4093,0.5298,-0.6591,-1.7965,-1.5635
3964,0.1804,-0.2034,9.8621,-0.0738,0.1547,-0.7247,30.977,-9.6876,38.9228,0.5568,-0.2224,0.5867,-0.6315,1.2348,0.1189,0.5297,1.0882,0.7719,0.5562,1.6615,-1.191,1.7591,1.9245,-1.2441
3978,0.0824,0.0049,9.8262,0.3852,-0.8838,-0.0909,30.3099,-9.5664,41.5891,0.0666,-0.2047,-0.1908,0.3576,0.9145,-2.0343,-2.1121,0.799,1.0942,0.7488,0.2348,1.2298,-1.3013,-0.2256,-0.1284
3990,0.0001,0.0623,9.8084,-0.2934,-0.0259,-1.0585,28.1104,-10.5963,40.5803,-0.3562,-1.6768,1.0831,0.8762,0.9493,-1.1039,0.5274,0.7939,0.4413,-1.7605,0.5941,1.4802,1.0554,0.155,-2.4945
4000,-0.1922,0.0235,9.7581,-0.0243,-0.5726,0.562,28.4704,-10.5216,40.3665,1.3096,-0.8491,-2.5807,-0.0554,0.1668,-0.9871,1.183,-0.7648,-2.4004,0.4264,-1.6675,-0.5058,-0.3161,0.3911,-0.627
4011,0.0086,-0.0376,9.8749,0.3455,0.2415,-1.6321,30.5397,-10.9862,40.3507,0.1664,0.7632,-0.2752,-0.108,-1.2117,0.3195,-1.4445,0.723,-0.6368,0.0371,-0.9543,1.2773,-0.0097,0.3611,-0.5384
4021,-0.0404,0.1598,9.7885,-0.957,-0.1662,-0.0571,28.9761,-7.7403,40.9417,0.9842,0.432,-0.5261,-0.7749,-0.4558,0.4759,-0.1545,-0.551,0.4969,0.5655,0.9899,0.494,-0.3492,0.6964,0.5554
4032,-0.0585,0.0559,9.8548,-1.0097,-0.258,-0.4254,31.8291,-8.7741,39.2901,-0.4095,-0.6485,1.2406,0.0826,0.282,1.0066,-1.389,1.1301,0.371,-1.3714,0.0738,1.6085,-1.4935,-0.9506,0.1832
4059,0.0707,0.0196,9.7581,-0.1227,-0.0598,0.5648,28.9821,-8.9632,41.6756,-0.5632,-0.7696,-0.7495,2.2091,-1.3468,2.4511,1.6359,0.5541,-1.2221,-0.517,1.5423,0.4003,-0.5425,0.5456,-0.2214
4069,0.0614,0.2246,9.7683,0.1223,0.2378,0.1895,30.0385,-8.4373,39.856,0.1755,1.4754,-1.7454,0.2528,0.1825,-2.6033,0.8012,-0.6862,-0.2649,0.2902,-0.9879,-1.1355,-0.5714,1.6726,0.1631
4080,-0.0169,-0.0153,9.8074,0.1938,-0.3085,-0.1973,30.8978,-9.8504,41.3026,-0.1605,0.5741,0.8562,-1.2102,1.6551,0.1204,0.7728,-0.0294,-0.2989,1.5513,-0.11,-0.9383,-0.0041,0.6026,1.3481
4091,0.1914,-0.0615,9.7434,0.2937,-0.2373,0.0525,29.7236,-11.5267,40.4674,0.3406,-0.6771,-0.0943,1.6587,0.6741,-1.1196,0.5051,-2.9008,0.3405,0.2301,0.3793,0.8733,-1.6928,1.2453,-0.414
4107,0.2865,-0.0336,9.8505,0.1646,0.5431,-0.175,31.3478,-10.5446,38.6771,1.0365,-0.6383,0.3594,-1.5057,2.77,-0.927,0.2625,-0.5858,-0.7179,-0.204,-0.669,-0.8284,-0.3663,0.0055,0.8283
4118,0.0133,0.0058,9.8596,-0.6392,-0.3368,-0.0156,28.9415,-8.805,40.1819,0.1787,-0.3603,0.3532,-1.0018,0.2594,-0.3948,1.9397,0.5807,-0.8276,0.5994,1.5265,-0.3306,-0.376,1.4616,0.834
4131,-0.0253,-0.0286,9.8704,-0.1506,0.5034,0.2098,27.4431,-10.12,40.5633,-0.2789,-0.5495,-0.5452,-2.0668,-0.4346,0.4965,-0.1683,1.3321,-1.1599,1.5323,-0.5502,-1.3942,-0.8345,0.8807,-0.3503
4141,-0.0295,-0.1478,9.8215,-0.0377,-0.576,-0.6766,29.73,-8.6914,40.3713,-0.4881,1.72,-1.009,-0.6481,0.4488,0.1639,0.5861,-0.8899,-0.5453,-0.9616,-0.3034,-0.2196,0.6076,-0.719,-0.2945
4151,-0.126,0.0255,9.7612,0.4107,0.2696,0.4485,30.7794,-8.9092,39.7267,0.4785,-0.412,-0.2458,-0.0372,0.5206,-0.9617,-0.6234,1.0621,1.3112,1.2101,2.2551,0.6698,-0.0688,1.1781,1.9211
4162,-0.1256,0.0485,9.8412,-0.1818,0.1398,0.276,30.966,-8.3437,40.9674,1.6836,0.5268,0.6293,0.3364,1.5854,-0.8637,0.8262,1.191,-1.9714,0.0134,-0.5822,0.6791,-1.0591,1.3176,-0.4324
4172,0.1204,-0.0703,9.8029,0.3769,0.2433,0.1948,29.3262,-8.6051,39.8418,-1.6021,-1.4078,0.5151,0.7074,-0.1813,-0.0407,1.0945,0.8588,-0.4776,0.8568,0.4486,0.3144,1.1642,-0.9659,0.1946
4188,-0.091,-0.0204,9.7298,-0.0227,0.548,-0.8928,30.5494,-7.919,38.5492,0.9521,-0.4321,-0.3245,-1.1441,-0.3997,0.2138,-0.5409,-0.7437,-0.2767,1.039,-0.1322,-0.257,1.4306,0.2865,-1.2876
4198,-0.0643,-0.0129,9.906,-0.7717,0.6118,-0.6349,31.3755,-10.4373,40.4417,0.1029,0.932,0.7181,-0.0911,-1.7419,0.4966,0.5142,-0.8134,1.1083,0.7443,-0.6266,-1.3702,0.1983,0.4096,0.4807
4212,0.0552,0.09,9.7382,0.343,0.8846,-0.5757,30.2108,-9.5556,39.4743,1.1503,-0.2028,-0.4128,-0.0446,1.2886,0.0862,1.2664,0.4931,2.2867,-2.5651,-0.4049,-0.317,0.4485,0.4018,-1.4518
4224,-0.0375,-0.0218,9.7315,-0.1848,0.2457,-0.5727,28.7852,-8.8257,38.8612,-0.7694,0.3043,0.7634,-0.5403,0.363,-0.7196,-0.5595,0.0677,0.2425,0.3503,-0.8,0.3301,0.1129,-0.0613,-0.0547
4241,-0.0399,-0.036,9.7595,0.1204,-0.6658,-0.662,31.6957,-9.1944,40.9795,-1.4298,-1.433,-0.9767,0.1038,0.0114,-0.6596,-0.2474,2.3524,-1.0468,0.7359,0.4643,-0.6789,1.2234,-1.2523,-0.1753
4251,0.2073,0.154,9.8321,0.5438,-0.584,-0.4663,27.8884,-10.6695,40.0258,-0.1645,-1.3614,1.0297,-0.0531,0.3394,-1.5377,-2.5603,1.0508,-0.7781,0.1603,0.2338,0.9781,-1.1361,0.8697,-2.5582
4262,-0.0849,-0.0449,9.8588,0.2825,0.6198,-0.3011,30.031,-9.5031,38.9176,-0.6496,0.4706,0.8045,1.6845,0.3176,-3.308,0.7038,0.8407,0.292,-0.0274,0.9512,-0.3111,-0.6583,-0.4573,-0.2199
4272,0.1164,0.1023,9.7722,-0.7071,-0.4205,0.7379,29.467,-9.2618,39.3108,1.6282,0.4146,-0.4311,-0.6081,0.1632,0.2545,-0.4702,-1.9007,0.334,-0.2893,-0.4482,0.7574,0.4917,0.1037,-1.2221
4282,-0.0574,0.0245,9.8023,0.8855,-0.2522,0.7235,28.5614,-9.6378,41.8715,-0.7616,1.117,1.7466,-1.6599,-1.0504,0.4055,-0.2238,-0.471,0.0699,0.2034,-0.8345,0.6008,1.5256,1.2546,0.0051
4293,0.1304,-0.0269,9.8222,0.3828,0.6472,-0.4403,30.1238,-9.259,41.3483,-0.6679,-1.5537,-1.1403,1.5289,0.0475,1.0256,0.0271,0.5739,-0.2772,-0.7076,-1.588,0.7944,0.2602,-0.1082,-0.3257
4303,0.0438,-0.0928,9.8466,-0.2588,0.0933,-0.2149,29.4891,-11.5696,39.8116,0.7638,0.2007,0.9416,1.6774,1.0795,2.0641,-0.0768,-0.2345,-0.1964,2.3008,0.2574,-0.1942,0.1656,-1.4187,-1.3683
4317,0.0351,-0.1812,9.6782,0.1503,-0.5848,-0.0135,29.6979,-11.8886,40.6209,-0.9792,-1.3457,-0.1175,0.8629,-1.2314,0.4084,-0.3578,0.3169,-0.9093,-0.3804,0.5614,1.2386,-0.5844,-0.1802,-0.9742
4329,0.0456,-0.0284,9.7863,-0.5323,0.7382,0.7066,29.7708,-8.8381,40.9334,-1.2234,-0.1372,2.0598,0.9488,0.4219,0.6912,-0.7305,0.6808,-0.4217,-0.399,0.264,-0.6168,-0.42,1.0376,0.9645
4339,-0.0233,-0.0274,9.7884,-0.218,-0.1461,-0.2959,28.962,-9.6566,40.4991,-1.3957,-0.2919,0.9259,0.9699,-0.4139,0.7679,0.4713,0.5727,0.9094,0.1954,-1.6374,0.4055,0.0527,1.5796,0.9247
4350,0.0731,0.0187,9.8533,0.1103,-0.3052,-0.0875,29.57,-10.4685,39.9624,-0.0612,-0.9351,-0.045,0.1443,0.4126,0.4952,0.6161,0.2558,-1.5485,1.2631,1.1158,-0.812,2.1955,0.0988,1.3553
4362,0.0224,-0.004,9.7853,-0.58,-0.3565,-0.8018,29.3916,-9.8449,41.26,-1.4038,1.1025,1.3847,1.344,0.7209,0.3238,-0.4433,0.0775,0.6223,-0.8199,-0.7218,-0.2915,0.3756,-0.8924,-0.4319
4372,0.1481,0.0951,9.7354,0.6135,-1.1229,0.3026,29.957,-9.3185,39.5013,-0.1488,0.645,0.4685,-0.7597,0.8389,0.682,0.2404,0.4638,0.2014,0.4038,-0.5484,0.0257,2.4051,0.7885,-1.4056
4383,0.0801,0.0654,9.8626,-0.2071,-0.9118,-0.3108,30.1274,-10.8115,39.9859,-0.7094,-0.617,-0.9271,-2.3871,2.0835,1.8684,0.5968,0.3203,0.353,0.3504,-0.9692,-1.3575,-1.5706,2.2974,-0.1244
4396,-0.024,0.0945,9.8163,0.1243,-0.9071,-0.0515,29.3281,-9.8019,39.9976,0.4674,-1.2823,-0.1325,0.6122,-0.3287,-1.1101,0.899,-1.0891,-0.0451,1.8439,1.2961,0.6614,0.3755,0.492,-0.0014
4407,-0.102,0.1174,9.8327,-0.5188,0.3652,0.5324,28.2846,-11.2257,40.41,0.8591,1.3211,0.7281,-0.8087,1.3037,0.2716,1.0481,0.5341,-0.982,0.2385,-0.4669,0.7338,1.0441,-0.914,0.079
4417,0.0416,0.031,9.7686,0.113,0.2555,-0.6622,30.2366,-8.2554,41.033,0.6209,-0.5461,-0.1126,1.7087,0.4824,-0.2374,0.2687,0.1754,-1.407,-0.4257,0.591,-0.1653,0.1277,0.6691,0.2573
4430,0.0632,-0.0131,9.737,0.9548,0.1932,0.5042,30.0725,-9.0937,40.9279,-0.0493,0.6121,-0.3961,0.7379,2.3445,0.6142,1.1722,0.2655,-1.4229,-0.0805,0.483,-0.115,0.837,-1.4219,1.1481
4440,0.0797,0.0398,9.7367,-0.2713,0.1671,-0.1258,30.5747,-12.5092,39.016,0.9217,1.6293,-1.6931,1.0277,-0.0735,1.06,1.0788,-0.1717,0.03,0.478,-0.8395,-0.6664,0.9481,1.2896,0.503
4451,0.0582,-0.0564,9.8544,0.1985,-0.9251,-0.3251,31.3693,-8.0862,39.2884,-0.7601,0.7038,-1.9315,-0.3252,1.1447,0.619,-0.6428,-1.3,-2.1207,0.4086,0.1914,0.7208,0.1786,-0.9669,0.8943
4462,0.0247,0.0936,9.8618,-0.1646,-0.4163,-0.6214,29.9769,-10.5283,41.1456,-0.26,0.5881,0.8509,1.639,0.8037,0.1484,-0.3614,-0.8214,0.8708,-0.5323,-2.215,-0.206,1.0099,-0.0688,0.7477
4479,-0.035,0.0717,9.76,0.3235,0.1852,-0.2735,31.5376,-9.4444,41.4867,0.7415,-0.6105,-1.3574,1.9548,-1.1277,0.3618,0.1863,1.4819,-0.2627,-0.3835,-0.5337,-0.0909,-3.1606,-0.8705,1.2893
4489,0.0073,-0.0305,9.8301,-0.6087,-0.4134,-0.4392,28.8681,-10.0882,40.8248,-0.2951,-0.3223,0.9687,-0.4115,-1.2901,-1.4786,-0.498,-0.6197,-1.4728,-0.7884,1.1331,-2.7784,-0.5429,1.2311,0.4967
4501,0.032,0.1023,9.8391,0.1188,-0.5881,0.0653,29.8553,-10.1022,40.0693,-1.3426,0.7008,-0.4426,-0.6647,1.0794,-1.6618,0.4137,-0.1927,-0.2374,0.8865,-0.8113,-0.7749,0.4266,-0.5286,-0.7092
4515,0.0481,0.2302,9.7889,0.0382,-0.9182,0.0985,30.9705,-11.4665,38.7882,0.2381,1.0854,-0.4728,0.8007,-0.3212,0.4551,-1.8049,0.1473,0.5566,-1.5141,0.2963,-0.2994,0.6586,0.7449,-1.3687
4525,0.0264,-0.2139,9.8811,1.1279,-0.4082,-0.1971,28.8648,-8.8672,39.9223,-1.7748,-0.9311,0.7736,-2.2462,-0.6458,0.9778,0.0801,0.6874,1.383,-1.1833,-1.1198,-0.6187,-0.259,-1.0096,-0.1104
4536,0.0225,-0.018,9.7238,-0.2807,0.0502,0.5961,28.1219,-8.7651,40.3524,0.4978,-0.4613,0.3313,1.4781,0.1683,-0.873,-0.4784,-1.5865,-0.3592,0.933,0.571,-1.6408,-0.1616,0.111,-0.3052
4548,0.0847,-0.2034,9.7499,-0.7657,1.2068,-0.5954,30.3204,-9.5994,39.6173,0.0287,0.2964,0.9982,0.2712,-2.2843,0.09,-0.0817,-0.5746,0.515,-0.2339,0.2181,0.9118,-0.7791,1.4404,1.0273
4559,0.1851,-0.129,9.8045,-0.2797,-0.8928,-0.1148,29.8708,-10.1185,40.0251,-0.0384,-2.136,-0.2344,1.3665,-0.6846,-1.8627,-0.4594,0.9634,-1.2277,-0.607,1.437,0.451,-0.0643,0.1062,-0.4825
4570,0.0108,0.0409,9.788,0.8453,0.3005,-0.8122,28.7922,-9.3834,39.7825,0.8495,-0.0652,0.054,0.1305,-0.0758,-0.8784,-1.0125,-0.5801,-1.8659,-2.3359,-0.3904,0.0251,-0.3237,-0.1573,1.0861
4583,0.0853,-0.0389,9.8416,-0.0461,-0.2352,0.3605,30.5473,-11.8875,40.4331,-1.6641,-0.1747,0.212,-0.3173,0.8689,0.0467,-0.3057,1.3891,0.4279,0.0086,-1.2469,0.343,0.003,-0.0811,-0.5089
4600,-0.0981,-0.1486,9.8306,-0.5867,-0.1185,0.5357,29.714,-10.0072,39.3575,1.6359,3.2714,1.0753,-1.1888,0.1878,-1.6732,-0.8308,-0.5177,-0.9799,-0.085,0.6567,-0.5343,0.2487,0.5465,-0.7041
4611,-0.1054,-0.1124,9.7798,-0.1721,-0.7879,0.0099,30.3464,-10.5156,40.1256,-1.5039,2.102,0.1047,2.1318,0.0439,-1.0989,-0.4229,0.4488,0.1584,-1.4409,1.0744,-1.3344,1.0564,-1.7127,-2.0192
4621,0.018,-0.0126,9.8416,1.0879,0.5955,0.2059,30.5794,-10.5338,39.0913,0.3452,-1.5053,-0.2919,-0.684,-1.6307,0.5247,1.0412,0.1888,1.6662,0.9615,-1.1349,-0.5434,-0.3766,0.9077,1.0276
4637,0.138,0.0498,9.7162,-0.4107,0.6744,0.7363,29.0908,-10.9277,40.1364,1.083,-2.2208,1.5317,2.0645,-0.8269,0.4677,0.7547,-0.4146,-0.0026,-0.4924,-1.0007,0.9195,-1.7023,1.4046,0.7758
4650,0.0207,-0.0153,9.8279,0.1948,-0.2098,0.2376,30.0043,-8.0018,39.2927,-0.709,-1.2404,0.6825,0.977,-1.2694,0.1582,1.904,2.0125,1.0681,0.066,-0.7143,-0.0243,-0.3293,-0.0739,1.0446
4663,-0.0207,0.0194,9.7765,0.0725,0.1217,0.0374,29.6022,-9.3528,39.5367,0.3284,0.0006,0.2232,-1.0736,-0.2176,0.5661,-1.1675,0.0933,-0.4372,-0.8013,-0.8395,-0.5302,0.6137,-0.7108,-0.7218
4675,0.1775,-0.0881,9.7755,-0.0032,1.4625,0.0918,30.7341,-7.6558,40.8613,0.7882,0.4825,-1.6485,0.2082,-0.2495,1.3109,-0.7772,1.6112,-0.1336,0.2518,1.243,1.9122,-0.2428,-0.2534,-0.9015
4685,0.1029,0.0597,9.8063,0.0374,-0.5567,0.5816,31.0721,-10.7322,41.2959,1.9339,-0.8803,-0.5875,-0.8144,0.6663,0.8226,0.8189,0.3087,-2.8802,2.2766,1.129,-1.9471,2.2874,1.3511,0.1073
4696,0.0379,-0.0223,9.8364,-0.1139,-0.3215,-0.2764,29.7551,-10.8288,39.4495,0.68,-0.7291,0.4523,1.6839,-0.5729,-0.5807,1.6498,0.8339,-0.5305,0.7082,-0.6029,0.8955,0.1494,0.4057,-0.1793
4714,0.0433,-0.1796,9.8402,-0.467,-1.1601,0.1824,30.152,-10.9309,40.483,-0.5912,-0.5597,0.497,1.1447,0.215,0.2347,0.1806,-0.8373,-0.1601,1.966,1.7025,-1.6521,0.0683,-0.1273,0.4312
4729,0.1053,0.0718,9.8472,0.0836,-0.4392,-1.1897,31.6635,-9.5544,40.5215,-1.5464,-0.1769,0.2051,-1.2292,-1.0126,-0.3991,-0.3015,0.2157,-0.4012,-0.8961,-0.8616,0.6624,1.8272,0.8305,-1.5049
4739,0.0558,0.1527,9.8747,-0.7984,1.0717,-0.4242,31.1156,-7.5525,41.1245,1.2306,2.0003,0.757,-0.7375,-2.0929,0.5278,-1.836,2.0106,-0.7106,-0.5404,0.3009,0.1564,-0.8806,1.4612,-1.0553
4753,0.0193,-0.1406,9.7812,-0.8867,0.4685,1.3368,29.6385,-10.6345,40.2502,-1.2064,-0.9763,0.2777,-1.8815,-0.7956,-0.5754,0.4875,-0.6216,0.5183,0.1573,0.1971,0.0283,1.7947,0.6266,-0.0772
4765,-0.014,0.0714,9.8365,0.0758,0.3549,0.1504,32.6355,-9.8418,40.0774,1.13,1.3342,0.6703,-0.1157,-0.7066,-0.5733,0.8617,-0.48,-0.6312,0.4949,0.9378,-0.4695,-0.4571,-0.5641,0.0934
4776,-0.0227,-0.073,9.8466,0.4157,-0.5355,-0.4114,29.6354,-10.9096,39.0203,0.9758,-0.8809,0.5,-0.0625,-0.9067,-0.2504,-1.5226,1.4494,-0.2711,1.7074,0.8338,-1.5892,1.9678,-0.5001,1.0006
4786,0.1344,-0.0084,9.7991,-0.4522,1.1607,-0.01,30.5873,-10.4676,39.6638,-0.0031,-0.1935,2.2607,-0.8989,0.536,-0.588,0.4846,0.7235,-1.2993,-0.3605,0.0762,1.2194,-0.6044,0.4569,-0.2825
4806,0.1588,0.1398,9.8141,0.4448,0.0403,-0.0788,28.9546,-8.1355,40.0994,-1.0698,0.5811,-1.8924,-1.89,0.6218,-0.5642,-1.1478,-0.2463,-0.8092,-0.4138,0.6674,-0.6927,1.1729,1.3425,-1.1345
4816,-0.0935,-0.0523,9.7686,0.0177,-1.02,-0.3485,29.7158,-9.4225,39.7848,-0.3663,-0.4788,0.2371,0.0776,0.1512,0.589,-1.4216,1.6546,-0.5012,-0.8896,-1.1024,1.0816,-1.1558,0.7127,-0.4787
4827,0.0627,-0.0971,9.7903,-1.0162,0.4738,0.0486,29.5314,-11.0433,39.8714,-0.0896,0.4543,0.6576,-0.0377,-2.3568,2.3404,1.2671,0.4951,-0.399,-0.9871,0.9019,-0.6963,-1.3843,1.0342,-0.5272
4837,0.014,0.1935,9.8908,0.4929,0.2758,-0.3468,29.9971,-9.2551,39.3942,0.5209,0.9845,0.233,0.2561,-0.4359,-2.275,-0.7457,-0.2118,-1.362,0.3642,1.6377,-0.7976,0.4061,0.201,-0.3762
4856,0.0754,-0.0789,9.7614,-0.4726,-0.651,0.1455,29.5365,-10.1884,40.745,1.05,-1.6208,1.2912,-1.0747,0.8209,-2.3828,1.6719,-0.6144,-0.2572,-0.9448,-0.1553,-0.0888,-0.1695,1.1785,0.7004
4867,0.0326,0.1105,9.7503,1.0657,-0.3989,0.1128,30.3282,-8.4561,39.5961,0.1964,-0.3107,-0.0163,-0.4291,0.4551,0.6783,0.5854,0.8183,-0.5173,-0.6451,-1.0018,-1.0318,0.3293,-0.619,-0.9293
4878,0.0716,0.0943,9.8453,0.526,0.8038,-0.438,29.7159,-10.5482,40.076,-0.4238,-0.5171,0.9317,0.1343,0.3362,0.2223,-0.0198,-0.8574,1.1492,-0.0392,-0.0311,-1.2622,0.5945,0.4468,0.3131
4889,0.1266,-0.2732,9.859,0.124,-0.5902,-0.0196,28.2726,-8.8025,40.9109,0.7342,0.226,0.8839,0.738,0.8228,-1.0553,1.3524,-0.5737,-0.4332,-0.7133,1.0132,-0.5546,-0.8392,1.608,-1.1877
4899,0.0021,0.1019,9.7785,0.1035,0.3988,-0.2471,30.129,-10.039,38.3508,-1.4191,-0.1226,1.2672,0.6977,0.5631,-0.8579,0.516,0.6946,-0.9079,-1.1196,-0.6463,-1.6803,0.4858,0.8836,1.61
4910,-0.0685,-0.1154,9.8243,-0.3654,-0.235,0.3905,31.4859,-9.8805,38.6516,0.0166,0.6239,0.7075,0.7995,0.5459,0.5049,-0.9266,-0.7347,0.5992,-0.4265,-0.3725,1.0737,-0.4276,0.3183,-0.941
4920,-0.005,-0.1032,9.8404,0.477,-0.3724,-0.6972,28.5883,-8.7079,38.5885,0.3049,-1.5916,1.619,-1.2851,-0.0936,-0.6104,0.7258,0.4083,-0.06,0.0609,-0.0076,0.7876,0.3562,0.686,0.6958
4934,0.1483,-0.033,9.7738,-0.0321,-0.5382,0.2826,30.6503,-10.8689,41.276,0.7767,-1.6116,1.6071,0.0152,1.6193,-0.1863,2.2361,-0.8319,0.9965,1.7863,2.1699,1.4445,-2.4574,-0.9576,0.8086
4944,0.0231,0.0164,9.7194,-0.0532,-0.0654,0.173,30.2943,-10.1729,40.9633,0.5002,-0.7817,-1.2458,0.7812,-0.7092,-1.8682,0.6446,-0.9238,-0.826,-0.0713,-1.9028,-2.3751,1.2623,-1.2706,0.9712
4955,0.1157,-0.2512,9.7747,0.0474,0.0079,-0.1964,28.772,-10.5471,39.4281,-0.7989,0.1999,-0.9822,-2.4398,0.7362,-2.0349,0.7528,-2.2578,0.0621,-1.1819,-1.1286,1.7138,0.0355,-1.2342,-0.932
4968,-0.07,0.0652,9.7159,-0.7432,1.1553,0.3742,30.2137,-10.5047,40.9921,-0.1801,0.4503,0.8251,-0.0405,-1.083,1.0155,0.3896,-0.2629,1.0219,1.8487,-0.9744,0.7086,-0.46,-0.1039,0.5921
4984,-0.209,0.151,9.8339,-0.2721,0.4662,0.5007,29.8004,-9.2474,40.9136,-0.1588,0.6641,-1.1714,-0.9678,-0.5276,1.561,1.3414,1.6965,0.2879,-1.4481,-0.0686,-0.7922,-0.6697,2.7719,-1.3129
4996,0.0638,0.1009,9.7344,-0.4667,-0.3971,-0.2692,29.6458,-9.7312,41.5639,0.2834,-2.6401,-0.6949,-0.4519,0.7116,-0.5207,-0.4335,0.995,0.3745,1.7804,-0.5453,1.3469,-0.4757,-0.5639,-0.1109
5009,-0.0414,-0.0814,9.8029,-0.3756,0.1856,0.1045,29.1953,-10.0397,38.0885,0.638,-0.1774,0.6578,1.3663,-1.5432,-0.3255,0.5154,1.0857,-1.8101,-1.6027,0.6237,-1.4155,-0.1178,-0.472,-0.3504
5019,0.0986,0.0029,9.8766,-0.5319,0.7884,-0.1598,29.5375,-9.6083,38.7828,-1.0451,0.3256,-0.0595,-0.8121,-0.2146,-1.8372,0.7351,-0.5807,-0.0499,-1.5268,0.4507,-0.0807,-0.4642,0.7498,-0.1813
5029,0.1215,0.0461,9.8195,0.0003,-0.6351,0.0692,30.0871,-10.5708,39.3306,0.3957,-1.5272,-0.509,1.6519,1.6568,0.8027,0.5517,0.0911,0.6322,1.0011,-0.4549,-0.8897,-0.0729,0.8772,0.4367
5039,0.1172,0.0619,9.9517,0.3877,-0.7503,-0.6516,28.623,-9.8947,39.2381,0.4107,-0.132,-0.5083,-0.6989,-1.2798,-0.559,1.215,-0.6173,1.453,1.8441,1.1976,-0.1103,3.149,1.7105,-0.1626
5057,-0.0388,-0.0724,9.7968,0.1673,-0.0811,-0.4149,29.2295,-9.7985,38.6186,-0.283,0.188,-0.793,2.2612,-0.48,0.5841,-0.6271,0.3198,-0.3794,0.3372,0.2102,1.5822,-1.1592,0.125,-0.3649
5068,0.0962,-0.1568,9.7327,0.3152,0.0339,0.2128,30.0737,-10.4866,41.4291,0.3628,-0.0273,0.812,-0.1002,1.0815,1.1253,-0.801,0.4994,-0.2197,0.4118,0.2243,-1.0637,0.683,0.1406,0.1047
5078,0.0827,0.02,9.7949,0.1022,0.3541,0.2469,29.6737,-9.296,40.4583,-0.9159,0.118,-0.5506,-0.1711,-0.2719,0.0981,1.6901,0.8307,-0.5472,-2.1617,1.3335,-0.6196,-1.0819,1.0362,-0.0872
5089,0.0017,0.0725,9.8504,-0.0704,-0.5135,-0.3509,30.3792,-9.609,37.9229,-0.4309,-0.167,1.1134,0.6306,-0.2517,0.9881,0.7216,0.3874,-0.6575,-1.4246,0.1124,-0.8146,-0.7577,-0.912,1.211
5104,0.1422,-0.0968,9.8506,0.7045,0.4212,-0.6255,33.089,-10.0789,39.4158,0.85,0.7808,-0.5423,-0.5577,-2.1187,-0.0855,0.8956,1.0881,-0.9649,-1.4574,-0.2348,-0.8306,-0.7926,-0.9789,-0.1411
5115,0.1266,0.0375,9.819,0.39,-0.0196,0.7452,29.861,-9.179,39.9856,1.1059,-0.2252,-0.6348,0.5952,0.4053,-1.7542,-0.5243,0.174,0.3054,-0.637,-1.4779,1.0429,0.334,-0.1443,1.1403
5126,-0.088,0.1339,9.7905,0.1341,-0.0716,0.3915,28.8898,-10.2422,39.0495,-0.5363,2.7103,1.1711,0.8381,1.69,-0.2184,0.1323,0.5613,-1.5404,1.9343,-1.3035,-0.8981,0.387,-0.7078,-0.2126
5143,-0.1301,0.1159,9.8356,-0.0744,-0.03,0.2277,28.7566,-10.3288,40.7859,0.3769,-0.418,0.4875,0.2737,1.1251,-1.6691,0.8433,-1.1827,-0.1855,0.1514,0.4851,-0.1158,-1.395,-0.6517,-0.1842
5153,-0.1761,-0.3004,9.8152,0.2986,-0.2106,0.4857,32.1694,-10.943,40.9889,-0.8966,0.6846,-0.3422,0.8239,1.4001,-0.6996,-0.4674,-0.2887,-0.6234,-0.7857,-1.0394,0.2979,0.0285,0.6193,1.0068
5165,0.0245,0.1412,9.8283,0.3331,0.7968,-0.1506,29.3437,-9.702,37.6083,0.9647,-0.668,0.5583,0.1136,-0.4615,-0.8124,-0.9272,-1.4554,0.1964,-2.3776,2.2017,0.1675,-0.1931,0.0327,-1.1281
5183,-0.1007,0.1333,9.8573,0.3208,-0.5194,-0.4381,29.4678,-10.2095,41.3819,0.0009,0.6044,0.3225,-0.2612,-0.7355,-0.3758,0.4491,0.8249,-0.9561,-0.1128,-2.0245,-0.0019,-0.0069,-0.8305,-1.8834
5194,0.051,0.0194,9.7657,1.2085,-0.2906,0.2601,31.7089,-10.1389,38.1696,-1.559,-0.0195,-0.089,1.7896,-0.3578,-0.2848,-0.9168,-0.2415,0.131,-0.882,1.7605,1.1645,-1.6793,0.0344,-0.9534
5205,0.0613,-0.0113,9.7881,-0.2539,-0.0578,-0.2659,30.329,-10.8534,42.5558,-1.6587,0.0286,1.8742,-1.6464,0.6331,0.8874,0.6559,-0.7002,-1.1928,0.576,-0.8665,1.1689,0.007,0.4586,0.8122
5223,0.0791,0.1435,9.75,-0.0082,-0.0999,-0.5252,30.8105,-11.0861,40.6238,0.4227,-1.3563,-0.6473,0.8513,0.752,0.466,-0.767,-0.3492,-0.539,-0.1123,-2.4272,-1.4428,-0.506,-1.2629,-1.0547
5236,-0.0493,0.0419,9.8033,0.1656,-0.347,0.2782,29.8121,-9.9276,40.7495,-0.7722,1.7087,-0.0233,-1.8286,0.4164,0.5852,1.0622,0.6111,0.5711,-0.1457,-0.3193,-1.1791,-1.2293,1.1996,1.1624
5247,0.0755,-0.0568,9.717,-0.4787,-1.1487,-0.1344,30.6231,-12.68,41.0847,0.0637,-0.7603,-1.0733,-0.4064,0.5527,-2.4389,0.7861,0.7425,2.2038,1.5466,-0.4815,-0.2524,-1.1965,0.5941,-0.4465
5258,0.1665,-0.08,9.8492,-0.1367,-0.4726,0.2977,29.5113,-10.3409,39.032,-0.0524,-0.6729,0.6944,1.2591,1.1646,0.3225,-0.8171,1.7413,1.0129,1.987,-0.3566,-1.2926,-0.1102,0.496,-0.0321
5269,0.1185,0.1306,9.7946,0.3385,-0.4008,-0.274,29.6931,-7.2993,39.8438,0.3542,0.9531,-0.0388,1.6652,1.1194,-0.2772,0.2823,0.6622,-1.5793,-0.5602,-0.7976,1.3131,0.2768,-1.0974,-1.3696
5281,-0.0631,-0.0793,9.8995,-0.975,0.6886,0.6512,29.812,-9.5782,40.8129,0.0393,0.9595,-0.3499,-0.2031,0.3089,0.6024,-0.4449,0.4626,1.6815,1.2582,0.3761,-0.3566,0.5273,-0.7453,0.0603
5299,0.2386,-0.0068,9.7396,-0.0596,0.1193,0.3342,30.4712,-10.5715,40.6618,-1.1979,0.5712,0.9062,0.8937,-0.974,-0.0613,-0.2415,-0.8889,0.5465,-0.6937,1.5174,-2.1439,-0.6929,0.363,0.6024
5310,-0.242,0.1465,9.8061,-0.3438,-0.2556,-0.2075,30.9866,-11.0302,39.3301,-0.8065,-0.878,1.8311,0.7599,0.5773,-1.0876,-0.8858,-0.6517,0.0865,-1.2884,-0.3398,1.2477,-0.3335,1.9634,-1.1764
5322,-0.0413,-0.0059,9.798,-0.3564,-0.5332,-0.4999,29.8503,-10.3833,41.0135,-1.2981,-0.192,-0.0463,0.2189,0.5364,1.8181,1.1446,0.2705,-0.2133,-0.7909,-0.9928,0.618,-0.0635,-0.196,1.6077
5335,-0.1412,-0.0518,9.8402,0.6979,0.3722,-0.5516,30.3707,-10.1596,39.4269,-0.3923,-2.1044,0.2545,0.4271,0.132,0.9687,-1.6189,-1.9634,1.0617,-1.5359,1.0772,0.053,-0.5845,-0.9814,-1.408
5354,0.0312,-0.0314,9.6975,-0.2376,-0.6545,-0.3538,29.8962,-8.9954,38.6247,-0.4201,1.284,-0.2009,-1.3692,-2.1737,-0.4526,-1.7385,0.3977,-0.3206,1.2415,1.0028,1.0071,-0.3987,0.32,-1.3011
5365,0.0915,0.0299,9.8507,0.3526,-0.3142,0.1943,31.0199,-8.9831,41.98,0.2241,1.5962,-0.8788,0.5609,-0.0277,1.3058,0.6371,-0.4207,-1.2857,0.2689,-0.504,-0.9059,0.0011,0.774,-0.4387
5375,0.0575,-0.0093,9.8671,0.0137,1.1921,-0.5472,27.6499,-11.6969,38.645,1.955,0.6806,-2.498,1.5817,-0.286,-0.9965,1.9356,1.3102,-1.4644,0.3881,0.1957,0.8762,0.4999,0.3647,0.336
5396,0.0118,0.0324,9.8243,-0.3534,0.1803,0.2826,30.9144,-10.293,39.9996,-0.2319,0.1132,0.0887,-1.1342,0.108,0.15,1.5434,-1.6096,-0.3201,0.49,0.0848,0.1555,1.0748,-0.9059,-2.0208
5407,0.0059,-0.04,9.7716,0.2724,0.1477,0.1883,29.7369,-10.7665,39.736,-0.3677,0.8785,-0.1366,-0.1557,1.2678,-0.263,-0.3463,-0.162,0.2441,-0.2017,0.2498,-0.5604,0.1107,-0.1135,0.2854
5418,-0.068,-0.0045,9.7539,0.1124,-0.2578,-0.9071,30.307,-9.8406,41.6925,-0.6437,0.9121,-1.6518,2.7315,1.1719,-1.7062,0.8633,0.5495,0.1009,-0.4987,0.9194,-0.8297,-0.2969,-1.1933,-0.3098
5428,0.0095,-0.0718,9.7483,-0.3926,-0.3541,-0.6815,30.8161,-10.0967,40.3098,0.2719,0.1316,-0.4797,-1.0686,-0.7235,-0.2591,1.0379,-0.8641,0.5018,-0.8026,-1.037,0.2781,1.8392,-3.3436,-0.1586
5444,0.1182,0.1464,9.793,0.0395,0.4874,0.0763,29.7629,-11.3277,40.431,1.0653,-0.111,-0.3983,-1.1084,0.096,-1.5918,1.5676,0.7831,0.6743,-2.0168,0.2793,-0.5566,0.076,-0.843,-1.1999
5454,0.0976,-0.0133,9.7744,0.0966,0.2524,0.0338,31.0525,-8.0213,39.8713,-0.3952,0.3527,-1.1548,0.2643,0.7467,-1.0734,0.5002,0.3583,-0.2654,-1.0729,-0.771,-0.9917,0.7826,-1.8698,-0.8195
5467,-0.0994,0.1571,9.8327,0.2439,-0.6109,0.0165,28.0765,-10.2323,40.1965,-1.5291,-1.379,-0.4287,1.4518,1.053,-2.7539,1.3332,-1.3564,-1.5171,1.3639,-0.0749,0.001,-0.337,-1.6302,0.5096
5477,0.1958,0.2073,9.8232,0.9576,-0.8985,-0.3314,29.6761,-9.6922,40.5554,-0.0422,-1.4836,-0.0397,-0.4431,0.3088,-0.197,1.562,1.0302,1.3276,0.1089,-1.135,-1.228,0.207,-0.3145,0.661
5490,0.0607,0.0128,9.8801,-0.0139,0.5246,-0.1178,30.8299,-10.0249,38.6871,0.2689,-0.9515,-0.7364,-0.3775,1.5842,-1.1461,-0.1526,0.6703,-0.4144,-0.4757,-1.4201,0.1329,-1.5793,-0.3212,0.5827
5502,-0.0528,-0.0624,9.7852,-0.1794,0.5303,0.5325,31.1026,-9.9513,40.6759,1.7718,-0.612,1.2242,-0.562,0.7777,-0.1584,1.4696,-0.1914,0.9429,-0.7698,-0.4778,-0.6834,-1.6317,-0.7079,-0.3918
5513,0.1576,-0.108,9.7707,-0.3018,0.5297,0.317,30.3483,-11.5621,39.5461,0.8613,0.8714,0.668,0.7475,0.1646,-0.1824,-0.2119,0.1396,-0.8192,-0.2224,1.8813,0.6777,0.4519,-0.0787,0.8523
5524,0.1069,-0.139,9.7895,-0.6535,-0.6882,0.3757,29.9361,-7.9326,40.4804,1.9088,-1.8662,-0.48,-1.4478,0.7678,0.7335,2.1589,0.4761,1.2284,-0.2428,-0.1788,-0.2638,-0.4836,-1.3575,0.1615
5541,-0.2439,0.072,9.7719,0.9196,0.6107,0.1543,30.7187,-10.9476,40.6927,-0.9018,0.7339,0.8135,-1.2921,-0.3618,1.445,-0.2389,0.0053,0.0851,0.362,0.2255,-0.9398,0.3588,-0.175,-1.1573
5551,-0.0389,-0.0292,9.6573,-0.7994,0.0036,0.2127,29.5868,-9.4794,39.1766,0.3695,0.4538,-0.3237,-0.4464,1.2724,1.9861,-0.6678,-1.1313,0.5563,-0.8556,0.1597,-1.6659,1.2549,-0.405,0.3667
5562,-0.2155,-0.0283,9.7457,0.2096,-0.1791,-0.191,32.3363,-10.7272,42.5694,-0.0321,1.2419,1.58,-0.0366,0.635,0.097,-0.5358,1.0127,-2.5026,1.5152,-0.5397,-0.1337,1.1371,-0.0018,0.5501
5574,0.0635,-0.0557,9.7717,0.0578,-0.8249,-0.1861,31.1397,-10.1012,41.311,-0.5611,0.1857,-0.1413,-0.3836,-0.3044,-1.4637,0.6441,-0.2777,-2.1828,0.2408,-1.9178,0.0395,-1.9459,0.637,-0.4159
5586,-0.0166,0.0721,9.7639,0.0629,-0.0969,0.7932,31.2628,-8.9533,40.2925,0.0104,0.4761,1.5109,-0.674,-1.767,-0.1541,1.1441,0.7049,1.0383,2.1634,-0.5904,0.9447,1.1584,-0.6322,-1.4165
5599,-0.0378,0.1506,9.8782,-0.1596,0.6785,0.0364,28.4992,-10.4658,39.1185,1.3537,0.8529,-0.4747,-1.0128,-1.9657,0.4231,0.1534,-0.3737,-0.9286,1.6115,0.4605,0.5738,0.8295,-1.4563,0.4528
5617,-0.0918,0.0733,9.8149,0.0303,-0.0385,0.0253,29.6751,-9.5117,40.0312,0.5177,1.5924,-1.4255,1.854,-0.6927,0.3149,-2.1141,-1.7266,-1.6579,1.6011,0.0171,0.0997,1.6915,-1.2874,-0.966
5628,-0.0571,0.1231,9.8228,0.0876,-0.3978,-0.354,28.6847,-8.8594,40.4136,0.3,0.994,0.8349,-0.683,0.0121,1.7178,-1.7475,0.5509,0.3728,1.9874,0.5261,0.5886,0.0048,-1.1364,-1.798
5639,-0.0246,0.0168,9.7742,-0.5505,0.2428,-1.1645,29.498,-10.3291,38.8754,0.2838,-0.0496,0.7411,-0.4198,0.1647,1.7113,0.3389,-1.1358,-0.3922,0.1762,0.4875,-1.2058,-1.0377,0.904,1.359
5651,0.0018,-0.2182,9.8103,0.8854,-0.7052,0.3483,29.1175,-9.7079,39.1298,-0.2018,-0.3799,0.508,-0.4836,0.7536,-0.3683,1.5769,1.1534,0.3445,0.5058,-1.9014,1.1388,0.1987,-0.4162,0.047
5662,0.1418,-0.0059,9.8124,-0.503,-1.0118,0.1168,30.4375,-10.0669,39.6623,-1.5925,1.6139,1.3678,0.9104,-1.6367,0.3303,-0.7654,-1.365,-0.9758,-0.3926,1.627,-0.492,1.5198,-1.1665,1.1948
5674,-0.152,-0.0796,9.7248,-0.3277,-0.0892,0.0958,30.808,-11.5327,38.9816,-0.5799,0.0214,1.1932,-0.1231,0.0826,2.7266,0.5698,1.3778,1.7931,0.2493,0.4407,-2.8745,0.266,-1.0419,1.0107
5684,0.0527,0.0083,9.7516,0.2964,-0.4394,0.3236,29.4122,-10.149,39.7214,-0.4189,0.8579,-0.2332,1.2963,-0.5053,0.5009,0.1689,1.3574,0.757,-0.5031,-0.5652,0.6339,1.2959,-0.2474,0.9341
5695,0.0242,0.1039,9.8589,-0.0423,-0.4821,-0.1015,29.7909,-11.044,39.7935,-0.544,0.8307,-0.4618,0.9645,0.2323,-0.2705,-0.865,1.3884,-0.2809,0.8314,-1.8122,1.0606,0.1761,3.6597,0.762
5707,-0.0027,-0.0608,9.7916,-0.249,-0.4056,-0.1488,28.6754,-10.4468,40.5596,-1.493,0.3562,0.7894,-3.3393,1.2363,-0.1005,-0.2207,0.6697,-1.3862,0.0403,-1.414,0.3059,-1.5739,0.0799,-0.1804
5718,-0.0774,0.031,9.8791,-0.8492,-0.6525,-0.0954,29.6638,-8.959,40.1304,-0.5386,0.6387,-0.0278,1.1421,-0.9151,-1.865,-0.4747,-0.1957,-1.1953,-0.9439,-0.2026,0.5359,1.2779,-0.8884,-0.4825
5737,-0.1124,-0.0042,9.7774,-0.1651,-0.4043,-0.4557,30.0507,-11.0138,40.6127,-0.1624,-0.1176,-1.16,0.4824,-0.7077,1.0673,-0.6809,0.4361,1.1581,-1.5959,1.431,-2.0329,-0.2893,-0.091,-0.4397
5748,0.1831,0.0016,9.815,0.3306,-0.3381,-0.2194,29.8598,-11.7895,38.8574,-0.1703,-0.1105,0.2253,0.7343,-1.1495,0.3959,-0.3642,1.0905,-0.0326,0.402,-1.0735,1.3682,-0.3872,-0.9254,-1.0144
5758,0.0646,-0.0741,9.8228,0.6163,0.0681,-0.1726,30.9157,-9.6913,40.281,-0.8644,0.7363,0.5194,0.0137,-1.0327,1.5941,2.8145,-1.0423,0.4053,0.2581,-0.7334,-1.4935,-0.1382,-0.1221,-3.02
5770,0.0462,-0.1276,9.7696,-0.562,0.4346,-0.0547,29.2623,-8.8462,37.8399,-0.1839,-0.7693,-0.1768,-1.9055,-1.1025,0.2657,0.4544,0.8243,-0.491,-0.1317,0.616,-1.3829,-0.1457,-1.5688,-0.1995
5780,0.0552,-0.0318,9.7882,-0.5031,0.1691,-0.3647,29.8176,-10.6153,41.1421,1.4453,-0.8719,0.2198,-0.4628,-0.5863,-1.0086,-1.0536,-1.4246,-0.5915,0.3246,-0.1603,-0.0354,-2.0587,0.375,-0.6339
5791,0.1154,-0.0342,9.8111,0.1993,0.4319,-0.0877,29.436,-8.5129,39.8669,1.9645,-1.2291,0.3437,3.3569,-1.5115,0.7289,0.2569,0.7211,0.0097,0.4082,-0.0032,-0.7666,-0.904,0.1888,-0.2719
5801,-0.0908,-0.0263,9.7887,0.0195,0.0547,0.0016,30.9792,-10.4575,39.1982,0.4901,-1.8368,1.7515,0.3528,0.6575,-0.7328,0.4315,-1.0093,-0.5784,-0.8087,-0.5265,-1.4712,-1.889,1.0876,0.6183
5813,-0.2698,0.0059,9.8713,0.5651,0.2923,-0.5313,29.749,-11.1358,40.4357,0.4409,0.0219,0.7197,0.7809,1.0044,-2.513,0.6909,1.9045,-0.1446,-0.7809,1.9482,0.3164,-2.6569,0.6945,1.2604
5823,-0.0361,-0.0067,9.8155,0.5001,0.1582,-0.4465,30.1756,-11.6757,39.8934,-0.3709,1.3597,0.39,-0.3437,0.884,-0.7317,-0.7201,0.7689,0.8904,1.2012,1.0616,1.3729,-0.7353,-0.2101,-0.9925
5834,-0.0496,-0.0863,9.871,-0.2063,0.5088,0.7117,31.1885,-10.1569,40.3781,0.3526,-1.0478,0.4611,0.0119,0.6114,1.802,2.165,0.6952,0.2852,2.0572,0.9958,-0.794,1.3832,-0.2499,2.0421
5854,-0.0016,-0.0956,9.8592,0.3275,0.332,0.1256,30.4485,-11.8985,38.9275,1.5197,-1.2375,0.1502,0.5608,-0.2943,-1.9734,0.9212,-0.5492,0.1908,-1.0919,2.9048,-1.1347,0.3853,0.695,-0.1246
5864,0.0836,0.1687,9.865,-0.6488,-0.3174,-0.3266,28.3402,-11.0661,39.7083,0.369,0.7503,1.1905,-0.8309,1.1504,-0.9251,0.8837,1.0468,-0.6782,-3.5244,0.589,2.2679,-1.2486,-0.8468,-0.5314
5875,0.1951,0.0351,9.7266,-0.0547,0.2346,0.7975,30.2324,-12.3947,39.277,1.1344,-2.0675,0.9492,-0.677,0.5447,-0.0417,0.4414,-0.0043,0.5889,-0.0473,-0.5624,0.4362,1.1209,0.5814,1.1224
5885,-0.1256,-0.0146,9.8605,0.0448,-0.5258,0.3226,29.6728,-9.8086,41.0557,0.9903,0.6962,-0.8503,-0.8689,-0.8989,-0.0906,0.2391,-1.2987,-0.1813,-1.1494,0.1736,0.5192,-0.514,1.7847,-0.5999
5897,0.114,0.0517,9.8241,0.6671,0.3709,-0.3297,31.1868,-9.7185,41.0662,0.9124,-0.5604,-0.9808,-1.3023,2.0673,-0.0633,0.0892,0.066,-0.3071,-1.1121,1.7417,0.3143,-0.7437,0.077,-1.1553
5908,-0.2106,-0.1269,9.8031,0.3693,0.1121,-0.0277,30.778,-9.1669,39.0125,1.284,-0.3523,-1.5526,-1.1427,-0.5829,0.3274,1.6066,-1.3156,0.9395,0.491,1.594,0.9613,0.9623,-1.1019,0.484
5921,-0.01,-0.1263,9.7554,-0.1585,-0.0608,-0.2506,28.1305,-10.584,40.686,-0.9921,0.0915,1.2525,-1.293,-1.7998,-0.8095,0.3433,-1.1438,-1.4438,-0.7616,0.2114,-0.6906,0.1568,0.0752,0.054
5935,-0.1528,0.2401,9.8525,-0.7186,-0.2774,0.916,30.41,-10.2914,40.6299,0.1923,-0.5783,-0.1419,-0.5304,-0.6853,-0.1714,0.43,1.1626,0.5363,-1.2986,-0.8232,0.4031,-1.2617,-0.0359,-0.7781
5947,0.2447,0.0658,9.7502,0.3908,0.3256,-0.2047,32.5724,-8.6136,38.84,-0.8245,-0.957,-0.8044,-1.1672,1.863,1.0824,0.4318,1.4177,0.2653,0.0135,-0.8358,2.1688,-0.3751,-3.3201,0.7119
5959,-0.0066,-0.0496,9.8378,-1.0952,0.3731,0.3203,29.11,-9.7927,40.3993,0.4148,0.081,1.0712,1.8102,-0.4568,1.2931,-0.9571,-0.459,-0.3039,0.2403,-0.9984,1.2269,-1.1463,2.0161,1.0288
5970,0.3213,-0.1414,9.825,0.3058,0.0418,0.001,30.7102,-9.9245,41.4491,0.4064,-0.1003,0.0671,0.8221,-0.0961,-1.4823,1.1038,-1.8546,-1.398,-0.4227,0.3833,0.6098,0.0935,0.1899,0.9689
5980,-0.0503,-0.035,9.83,0.1528,0.0451,0.0121,29.2692,-10.2557,38.9854,-0.2542,-0.1811,-0.7744,0.4731,0.8338,-0.482,2.7597,1.5514,-0.6009,-0.4435,0.3928,0.0406,0.1435,1.2094,-0.3698
5991,-0.1617,0.0296,9.777,-0.0263,-0.1761,-0.6156,29.247,-9.8385,39.7102,-0.2467,-0.3908,0.5244,-0.5483,-0.4734,0.8476,0.1573,1.6298,1.5689,-1.4884,2.3027,-0.0369,-1.1559,1.6859,0.1872
6002,-0.1122,0.0447,9.8692,-0.3628,-0.3587,-0.1479,29.3975,-10.8814,39.9218,1.0287,-0.8471,-0.8003,1.7827,-0.2933,-0.5552,0.8648,-0.1982,0.6566,0.0222,0.4974,0.2771,0.6336,0.0962,-0.8749
6015,0.1005,-0.1559,9.8478,0.2804,-0.2181,0.3928,31.9566,-8.6089,40.9786,2.363,-1.1267,-0.205,-1.2402,1.7231,1.8124,-0.5592,-1.1769,-0.6817,0.8486,0.434,-0.2014,-0.9373,0.6701,0.3556
6027,0.0299,-0.0839,9.7663,0.7536,-0.6682,0.4098,30.493,-9.345,40.8557,-0.7816,-0.7111,0.2256,1.405,0.3073,1.4455,-0.3702,-1.93,-0.252,-0.241,-0.4939,-1.5573,-0.8079,1.0299,-0.1253
6042,-0.2865,-0.0065,9.8373,-0.0118,0.2531,-0.6108,29.7362,-10.9165,38.3043,1.2709,1.4764,0.0004,0.0307,-0.0598,-0.313,0.1264,0.1499,0.1383,-0.0377,0.288,0.9552,0.3329,-0.313,0.5405
6052,0.103,0.1321,9.8527,-0.2635,-0.0646,-0.5348,29.2775,-8.9951,40.7687,-0.1059,-0.9468,0.1307,-0.2686,0.4512,1.3467,0.2509,-1.095,-0.5635,-0.947,1.9696,0.5617,0.4708,0.2065,0.5779
6063,-0.1032,0.0677,9.7437,0.5867,0.1144,-0.7823,31.8928,-8.7211,39.2453,-0.1467,-0.5699,0.4762,0.4664,2.3329,1.2337,-0.3985,0.3386,1.8524,-0.0364,-0.3706,0.7333,0.5468,0.2055,-0.4142
6074,0.1047,-0.0267,9.8228,0.4257,0.1477,0.601,29.6667,-9.7276,39.3268,-0.5735,0.5853,-0.344,-1.7041,0.5187,0.5396,0.9436,0.4261,-0.8457,2.0933,0.3921,-0.4681,0.1585,-0.786,-1.6848
6089,0.0238,0.0585,9.8537,0.1845,-0.07,0.6108,30.5404,-9.9546,40.3742,-1.4383,-0.6543,0.7504,0.8687,-0.0503,0.0278,1.5453,0.7236,-0.0452,0.7339,-0.5227,-0.6515,-0.5947,1.4794,0.2704
6101,0.0468,-0.1825,9.7865,-0.9492,-0.1358,0.207,31.2537,-11.3129,38.8566,-0.5829,-0.7096,0.9343,-1.0853,0.6962,-0.8861,-0.6202,0.0936,0.574,1.2862,0.7065,-0.4757,-0.8037,0.4466,-1.3549
6112,0.3019,-0.0974,9.8724,0.2184,-0.2693,-0.3501,28.1484,-9.0821,39.2651,-0.4225,1.3067,-0.8422,1.2756,-0.2753,-0.8092,0.8028,0.1313,-1.5874,2.1066,0.36,2.7521,-1.0994,-0.4747,0.9679
6123,-0.1107,0.2125,9.8909,0.4528,-0.6892,0.5331,30.3587,-9.2811,39.3853,-0.3044,-0.8655,0.9756,1.5126,0.0998,1.9148,-0.6591,-1.6937,0.3226,0.2622,1.0572,-1.5508,-0.8897,1.0616,1.0511
6133,-0.1078,-0.0406,9.7222,0.1675,0.9375,-0.0268,28.6509,-10.1347,38.5747,-0.7352,2.4062,-0.6205,-0.6752,-0.4342,-1.7434,-0.1257,-0.0157,0.4103,-1.1643,-0.9166,1.2827,1.3767,-0.5438,-0.7184
6144,-0.0544,0.108,9.7855,-0.4488,0.3462,-0.8823,28.7357,-10.5048,41.9312,-1.5247,0.6286,0.5222,-0.8929,-1.3786,0.2014,-0.3293,-0.162,0.9998,-0.2778,1.5326,0.3798,1.2791,0.4648,-0.6486
6154,0.1951,0.1177,9.7793,-0.8327,0.0535,-0.2098,31.0315,-9.7896,39.8393,1.4485,-0.1474,1.4478,-1.3094,-0.4956,0.2594,-0.2744,0.1438,-0.6226,-0.3691,-1.1514,0.913,1.4911,-1.3345,-1.2189
6165,0.0309,0.0779,9.7788,-0.078,0.2493,-0.0123,30.835,-10.6294,40.6026,1.5698,0.9748,-1.1621,-2.311,-1.0173,0.4921,-0.1827,-1.5712,0.0116,-0.8681,-0.5069,-1.8108,0.1311,1.7548,-0.1597
6175,-0.1582,-0.0147,9.7589,-0.0501,1.4556,0.5378,29.9425,-11.1972,39.7805,-2.717,-1.1446,-0.0687,0.2106,-0.2836,-0.4563,0.8849,-0.8731,-1.0809,0.1088,1.4871,-0.0021,1.237,-1.261,-0.5315
6187,0.018,-0.0045,9.7577,0.5177,-0.0892,0.712,28.678,-11.7685,40.2693,1.8148,1.0422,0.1381,-1.0017,2.1264,-0.8117,-0.083,1.1798,-0.0116,0.4456,-0.4438,0.886,1.087,-0.3253,-0.3689
6197,-0.0279,0.0892,9.8033,-0.3776,0.4577,1.7259,31.5791,-10.3947,39.1417,-1.4565,-0.5033,0.8039,-1.3861,1.0608,2.0073,-0.3633,0.8765,-1.2856,2.4203,-1.2728,1.0141,1.0085,1.0666,1.3922
6216,0.0312,0.1223,9.7711,-0.0097,0.8183,-1.1023,31.6732,-8.284,43.0115,0.8882,-1.0971,0.0586,-0.4726,-0.7645,0.9183,-1.4346,0.9361,0.4059,-0.7341,0.4734,1.8179,-0.0777,0.2306,0.1094
6227,-0.0142,0.0883,9.7684,-0.0723,-0.4311,-0.6583,30.385,-9.2244,40.7768,0.0503,-0.0524,1.0143,0.0098,0.48,0.1196,-0.3552,1.022,0.5033,-0.0248,4.1388,1.0103,-0.1585,0.5793,0.0933
6238,0.1421,-0.2057,9.8247,0.122,-1.0149,1.0921,30.6401,-10.0084,39.3583,-0.4432,-0.5227,-0.4757,-1.0419,0.5933,-1.0557,-0.6218,1.0597,-1.9187,1.1598,-0.8748,0.4369,1.5084,-1.6788,-0.7193
6256,0.0392,0.0314,9.8773,-0.0522,-0.2721,-0.7228,30.6545,-12.8233,38.8402,0.4525,1.1467,1.7623,0.0461,-0.5158,-0.4799,-1.332,0.7807,-1.4444,-0.1141,-0.3368,1.9136,0.8513,0.7061,0.4897
6266,-0.1105,0.1304,9.8632,0.3251,-0.1075,0.6174,29.7784,-9.7597,40.2045,-0.0906,-0.0177,-1.0403,0.6172,0.1369,0.6074,0.0537,-2.485,-1.6651,0.4992,0.3127,0.8961,0.4576,0.9482,-0.6065
6277,0.021,0.0224,9.7613,0.8585,-0.0566,1.2335,29.3205,-8.9554,39.5754,-1.2418,-0.0901,1.4691,1.4485,-0.4989,0.8522,-1.9007,-0.3955,-2.5203,-0.2414,0.3323,-2.0191,-0.4059,-0.8517,-1.89
6287,0.1971,-0.0981,9.8692,0.1459,0.3151,-0.3134,31.0504,-8.4116,40.7663,-0.3937,-0.4386,-0.3476,0.1092,-0.501,-0.9468,0.6772,0.0972,1.4116,0.0534,-0.406,1.0272,0.4652,-0.2918,-0.53
6300,-0.1162,0.0457,9.7862,1.0863,0.3217,-0.4266,30.3164,-8.6373,40.7564,-2.2865,0.8331,0.1499,0.8016,0.1336,1.1173,-0.7268,-0.2081,0.8434,-0.1633,-1.5117,-1.4144,0.436,0.8188,0.9337
6312,-0.0354,0.0031,9.7022,-0.3074,0.2308,0.2467,30.5438,-9.5836,38.7766,0.0921,0.3505,0.3333,0.3013,0.4252,1.244,0.772,-1.2823,0.102,1.6181,-0.5136,0.6468,-0.7534,0.8735,0.6436
6323,0.0639,-0.1019,9.7163,-0.5154,-0.034,-0.1169,30.6312,-8.0894,38.6191,-1.5032,0.5872,-0.4458,0.1096,-0.1178,-0.015,-0.9671,0.1777,-0.3195,-0.201,0.8472,-0.243,-0.4423,-1.3768,0.5061
6338,-0.0107,0.0431,9.786,-0.6616,0.6091,0.6184,31.2101,-10.4263,40.6107,0.8438,0.2804,0.2235,-0.8383,0.6427,-0.1175,-1.2772,-0.7149,0.3528,-0.1594,-0.5735,0.9493,0.3395,-1.4423,0.6547
6356,-0.1714,0.0247,9.8004,0.2158,0.1856,0.593,31.394,-11.0455,39.3085,0.0437,-1.4627,-0.0929,-1.7218,-0.5477,-0.2624,0.9623,0.1064,-2.8029,-0.9692,-0.5253,-0.09,-1.3681,-0.7146,-0.6906
6367,-0.0384,-0.1336,9.7727,-0.9432,-0.1315,-0.9473,30.4299,-10.931,40.7442,-0.4751,0.4471,1.4961,-1.0699,1.3648,1.3243,-1.1315,-1.2268,-0.0748,-0.6443,-0.3924,0.0369,-0.2977,-1.2493,-0.9458
6378,0.039,-0.0591,9.8363,0.9759,-0.0504,0.3266,31.1843,-10.5934,39.7859,-0.3078,-1.2964,0.9127,-0.8706,0.3535,1.1285,-0.4589,-1.2797,-2.0837,1.0959,0.4943,-1.8602,2.0343,-0.2754,0.2896
6389,0.1075,-0.085,9.789,-0.8363,-0.3347,0.1196,29.8774,-9.3283,40.3005,0.6431,0.3975,0.4697,1.5658,-2.1353,0.3978,-1.089,0.0189,-2.1681,-1.0763,-2.0439,0.0801,-0.1149,-0.3813,0.6059
6404,-0.0001,-0.0673,9.7691,-0.3124,0.5325,0.1324,29.5369,-10.7567,41.0586,-2.0787,0.5159,0.3417,-2.2369,-2.2678,1.7324,0.2936,-0.0922,-2.8154,-3.0024,-0.2479,-0.1768,0.0142,-1.6191,1.6299
6419,-0.0932,-0.1054,9.7654,-0.6406,0.3356,-0.4656,28.5128,-9.0134,40.7223,0.9437,-0.5455,-0.1998,-0.635,0.1814,-0.2214,1.4431,0.5844,-1.8381,-0.6241,0.1888,0.7404,1.3826,0.017,-0.7286
6430,-0.0596,0.1435,9.7392,0.2086,0.1165,0.0921,30.9409,-10.697,40.3934,0.8537,0.1413,-0.6373,2.0006,-0.8151,0.5479,-0.1589,-0.4834,0.1278,1.2228,0.7784,1.1315,1.6598,0.1019,-0.9896
6441,-0.0292,-0.1447,9.8171,0.1471,-0.2661,-0.2584,29.1954,-11.4902,40.6247,0.8248,1.7023,-0.0113,-1.6347,0.03,-0.7257,-0.0285,0.8612,0.1779,0.9728,-0.2419,-1.3327,-1.2019,0.585,1.0163
6451,-0.0806,-0.032,9.8689,0.0303,0.6861,-0.8209,30.279,-11.178,38.7735,-0.2853,0.4035,-0.8692,0.508,1.1992,-1.2133,0.6422,-0.9322,1.452,-1.293,-0.07,0.254,-0.3792,0.5904,-0.4414
6462,-0.0953,0.0667,9.8254,0.2406,-0.2019,-0.2914,31.1056,-10.8297,38.9532,0.4946,0.694,-1.7475,0.4024,0.0573,-0.4346,-0.7247,-0.5534,-2.4569,0.3128,1.3301,-0.6974,0.0826,-0.2241,1.3771
6472,0.0334,-0.01,9.828,0.246,0.1919,-0.6218,28.0427,-10.9811,40.3719,0.5315,-0.7229,0.1387,0.492,0.8905,0.3446,0.3552,-0.0272,-0.0529,-0.9609,0.3618,-0.2544,0.6981,-0.7003,1.3543
6489,0.0076,-0.1259,9.807,-0.4451,-0.2614,-0.3156,31.1588,-12.8799,39.9629,-0.4664,0.7214,-0.3313,-0.1494,-0.3766,1.4629,-0.1457,-1.5022,2.367,-1.1756,-0.0432,0.8975,-1.3426,0.895,-1.0323
6500,0.0033,-0.2295,9.837,0.0601,0.7632,0.0666,29.8679,-11.1613,40.3423,-0.0981,0.8369,-1.9227,0.8453,0.4165,0.4626,1.2802,0.0131,-0.6194,1.0554,0.3117,0.2592,-0.3646,-0.3105,0.0661
6510,0.0746,0.0608,9.7795,-0.189,0.5272,0.6277,29.4943,-9.25,38.9079,0.297,-0.672,-0.3858,1.8023,1.3661,0.2633,0.2068,0.484,0.5455,0.3398,0.3625,-0.6247,2.7493,1.3146,1.3674
6521,-0.1288,-0.0315,9.7459,0.2369,-0.4514,-0.1383,31.7386,-10.1029,40.5722,-0.2899,-0.7989,0.7236,0.2911,0.1469,0.4936,0.9991,2.0496,0.8311,0.6887,-1.5519,0.1027,-0.1117,0.5158,-0.7012
6531,-0.013,-0.0598,9.7905,-0.4381,-0.8421,-0.4606,29.6534,-10.4914,39.7879,-0.1034,-2.2822,-1.338,0.9334,0.5751,-0.9421,0.1125,-0.6339,-1.3787,0.7461,0.832,-1.8134,-0.7942,1.0314,-0.0846
6542,0.1165,-0.0517,9.7149,-0.4431,0.2655,0.2008,29.2564,-8.348,42.2797,0.7191,0.2847,0.0207,1.5732,0.6282,0.8435,0.1757,-0.3758,-1.1809,0.8392,-2.5768,1.1275,-0.1304,0.2183,0.0597
6558,-0.1357,-0.0404,9.7557,0.5558,-0.2145,-0.1799,30.2769,-10.5989,39.196,-0.6623,0.5341,-0.8487,0.156,-1.3731,0.2583,0.6497,0.0456,0.3155,-0.2421,1.0535,-0.1144,1.1139,1.1193,0.2224
6569,-0.0146,-0.0156,9.8186,0.3403,-0.8465,-0.7112,28.8529,-10.6206,39.7843,-0.6406,-0.1822,-1.1095,0.7542,-0.0595,0.0254,-0.0009,-0.8594,-1.701,-0.1494,-0.7556,0.2523,0.7495,1.6304,-2.3516
6585,-0.0855,0.0393,9.7786,-0.1907,0.235,-0.0373,31.3059,-10.7193,40.1461,-0.4378,-0.3571,-0.0577,0.8301,-0.813,-0.0758,1.2499,1.3291,-0.9578,1.2772,-0.3076,0.3543,0.2338,-0.4696,-1.0855
6598,-0.2288,0.0348,9.7985,-0.0639,-0.2363,-0.0614,29.4101,-12.1805,39.728,-1.6184,0.1988,2.2116,1.3119,-1.1015,1.5249,2.5103,0.0316,1.0229,0.0739,-0.154,-1.3861,0.1334,-1.7602,1.3066
6608,-0.0498,0.0392,9.7769,0.0649,-0.0282,-0.1819,28.3083,-9.1346,39.9922,-1.4092,-1.0583,0.8332,0.7587,-0.7568,1.9848,-0.7705,1.8183,-2.0738,2.0035,-0.7766,-0.3665,-1.6478,0.6102,-0.2805
6620,-0.077,-0.0445,9.8182,-0.9729,-0.4257,-0.5213,29.2378,-8.4187,39.6562,-1.6907,-1.2352,0.8803,0.8392,-0.4819,0.2898,-1.2303,0.1262,-0.1543,-1.3557,-1.2715,0.8783,1.1223,-0.8559,-0.0296
6636,-0.0165,-0.1633,9.7947,0.4213,0.2767,0.937,30.2491,-8.8288,37.9876,0.6303,0.3673,0.0527,0.6244,0.0657,-0.3682,-0.3119,0.4847,0.289,-0.6366,-0.4572,1.2665,0.5642,-0.7207,0.751
6647,-0.159,0.0111,9.7023,0.0223,-0.2815,1.0965,29.0542,-8.7542,39.4466,-1.085,-0.712,-0.9869,-0.0133,0.6277,0.1163,-0.1244,-0.1646,-0.8249,-1.2366,-0.6912,-0.3539,-0.5885,1.0573,-0.3846
6658,0.0026,0.0695,9.8363,0.0353,-0.048,-0.1613,30.2483,-11.4748,41.8746,-2.1654,0.7247,-0.7181,0.5432,0.5852,-0.1681,0.2583,0.4722,-0.944,0.0645,-0.364,0.5349,2.1819,1.1825,-0.1745
6670,-0.0404,0.1103,9.7608,-0.1179,-0.5188,-0.0323,31.4839,-10.5237,41.6187,-0.2848,-0.2402,0.9849,-1.7155,-1.1201,-0.7046,0.0767,-0.1616,0.3126,-1.0588,-0.7985,-0.1656,0.9823,0.6434,1.084
6684,0.1484,0.0203,9.779,-0.2148,0.0755,0.4236,28.615,-8.7278,39.7081,0.125,-0.2561,1.7131,1.593,1.4074,-0.7195,-1.858,0.731,0.5495,-0.1516,-0.636,-1.194,0.6625,0.1396,-1.106
6696,0.1736,0.0914,9.8508,0.3496,-0.3571,-0.5861,28.8912,-10.0666,40.611,-0.1937,1.1165,-1.3184,-1.4034,-0.5972,0.7813,0.5469,0.2708,-1.7444,-0.6112,0.1795,1.9689,-1.831,-0.5522,-1.1528
6713,-0.0106,0.1667,9.7747,-1.1133,-0.19,0.1524,29.9849,-9.757,39.498,-0.5459,1.1328,-1.6903,0.6993,-1.3038,-0.6282,1.0528,0.3455,0.9225,-1.9712,0.4979,-0.6595,-1.8708,2.0138,0.9809
6724,0.0317,-0.2333,9.755,-0.0995,0.4698,-0.0696,27.8176,-11.5717,40.3679,0.8138,-0.9358,1.8615,0.4688,-1.2129,-0.2425,-0.9154,0.214,0.5967,-1.0174,-0.1688,-0.4042,1.3781,1.4984,-1.4338
6736,-0.0179,-0.0359,9.8226,0.1562,-0.4622,0.0561,31.0553,-9.7051,39.4653,0.6248,-0.5401,0.7069,-1.4552,1.2078,-1.4687,-0.8691,0.0943,-0.6963,0.7044,-0.9341,-0.1462,0.4573,0.6094,-0.5986
6750,0.1043,0.0847,9.8404,-0.1733,0.4511,-0.6048,29.6,-10.6105,39.5766,-0.8387,-2.0477,0.297,-1.6441,0.8354,0.0704,0.0808,-0.4919,-1.0833,-0.419,1.0892,-0.4165,0.8251,0.8275,0.7836
6762,0.103,0.0383,9.8084,-0.6186,-0.5418,0.7703,29.5541,-8.8135,39.4897,-0.6867,0.3015,2.5703,-0.8251,1.7666,1.1352,-0.6773,-0.5708,0.3068,-0.7154,0.6533,0.3492,0.1991,0.7976,-0.8796
6773,-0.1073,0.1068,9.8274,-0.3333,-0.5024,-0.8796,31.4159,-10.2939,42.642,-0.9611,-1.3996,-0.0854,-1.5514,-0.0098,1.4052,0.6534,-0.2305,2.4869,1.7955,-0.5731,-1.244,0.0868,0.1354,-0.0304
6790,0.0485,-0.0643,9.8896,-0.4676,0.5072,-0.306,29.9504,-11.1258,39.9677,-0.9848,0.5269,0.9307,1.8906,-1.1238,-1.8151,-1.0463,0.2897,0.8803,-0.155,-0.2028,1.3626,-0.2458,-0.5053,1.7535
6801,0.1843,0.033,9.8284,-0.0384,0.6687,0.6278,30.4541,-8.8207,40.9452,-0.5075,-0.9853,0.1963,0.4152,0.1419,-0.7262,-0.0336,0.9597,-0.0955,-0.5126,-0.585,-0.1562,-0.7583,1.0777,-2.1144
6812,0.0338,0.0416,9.8176,0.7981,0.096,0.7304,30.86,-9.6291,40.0587,1.1607,0.1329,0.3344,1.3596,-0.1779,-1.3861,-0.7176,-0.2563,-1.6643,0.7648,0.4783,-3.7243,-1.5481,-0.4357,-0.4656
6823,-0.0764,-0.0311,9.8457,0.3559,0.5968,0.6692,30.8148,-9.4764,39.9676,-0.9563,0.2279,-1.5931,0.1533,0.5486,0.3269,0.7847,-0.3472,-1.1093,0.1332,-0.3873,-0.3529,0.2727,-1.3783,-1.3598
6836,0.0238,0.029,9.8001,-0.5842,0.3371,0.591,30.5748,-10.1663,39.5299,-0.162,0.0833,-0.0828,-1.7068,-1.0638,0.1107,1.3226,-1.0083,-0.0049,-0.7072,-0.2958,-0.2423,1.0801,-0.4962,-1.0714
6848,-0.0379,-0.0428,9.8623,0.6615,-0.014,-0.0924,30.1572,-8.4102,39.4228,-1.3422,-1.2269,-0.2872,0.8607,1.2191,-0.1646,-0.9567,1.3214,0.1509,-1.202,-0.0887,-0.5616,0.0163,-0.9507,-0.5506
6859,0.0317,-0.0456,9.772,-0.8036,-0.1126,-0.7974,30.1441,-8.62,39.451,0.9209,-0.5519,-0.5311,0.1744,1.1131,-0.4433,-0.3673,0.9966,-0.4466,0.9917,1.3596,0.4139,1.064,0.5923,0.8386
6873,0.0119,0.031,9.8002,0.1388,-0.5121,0.323,31.111,-11.7571,40.5682,-2.0232,-0.1887,-0.39,0.6684,0.1465,-0.4056,0.7095,0.3823,-0.1402,0.999,-1.3129,-0.577,2.1826,-0.2136,-0.5663
6890,0.1549,-0.1803,9.7756,0.0088,-0.383,0.2099,30.5037,-10.5499,39.705,-1.7837,-0.2709,0.1295,-0.3962,-0.4529,-0.0696,1.0768,0.3466,0.9169,0.9662,-0.6269,0.0689,-0.6094,-0.4302,1.3335
6901,-0.0246,0.1205,9.7656,-0.2314,-0.4381,-0.242,30.2569,-9.7944,39.2696,-0.7603,0.6078,-0.8803,-1.1515,0.5132,-0.68,-0.221,0.1054,-1.2772,0.4705,0.8534,0.9233,0.992,0.5058,-0.9699
6914,0.028,0.0093,9.7504,0.833,0.5352,-0.3335,29.2914,-8.6831,39.492,0.1232,-0.8689,-1.3997,0.5721,0.5169,-0.9101,-1.085,0.1433,0.0828,-0.9487,-0.273,0.4709,1.4176,-0.3761,0.3037
6926,0.0534,-0.0872,9.7888,-0.7398,-0.5027,0.762,31.0968,-10.2377,39.027,-0.8883,-0.4651,1.6991,-0.707,2.5491,-1.2671,-1.1794,-1.6291,0.6776,2.7418,0.763,0.6469,-0.8621,-0.5398,1.1416
6940,0.0566,-0.0516,9.8742,0.3687,-0.8705,0.1478,30.1743,-10.5054,39.2837,-1.4864,1.5906,1.3513,1.1644,1.4829,1.5903,0.9644,1.6837,-0.4505,0.7887,1.1821,-0.3926,1.1389,-0.5933,1.4861
6954,0.0109,-0.0967,9.7341,-0.5205,0.4104,0.608,29.6885,-10.9303,40.0785,-0.5777,-0.4998,-1.8045,0.5694,-0.3445,1.1209,-1.0288,-1.7814,-0.5572,-0.683,-2.2364,0.445,-0.6122,0.05,-0.3417
6975,0.0084,0.1549,9.8218,0.348,-0.0796,-0.4246,28.1981,-9.8558,40.028,-0.6192,0.6567,-1.2871,1.9309,0.1873,0.4516,0.4228,-1.3374,2.2163,3.555,0.4573,-0.2485,0.4453,-0.6095,0.8388
6985,-0.0199,0.1688,9.7831,0.0984,-0.3191,-0.245,32.7453,-11.2463,39.3201,0.9287,-1.3027,-0.1889,-0.3579,-0.6774,0.5575,-0.0787,-1.5294,0.601,0.1822,-1.0775,-0.0305,0.1652,-1.3132,-1.5059
6998,-0.1133,-0.1601,9.7958,0.5666,0.1406,-0.4126,30.289,-10.9848,40.5218,0.2934,-0.1016,0.4823,0.8563,0.9949,0.9318,0.8249,-0.4962,1.6512,-0.9965,-0.3765,-3.2386,0.7014,0.4545,1.1101
7008,0.042,0.0286,9.8398,0.1621,-0.2757,-0.78,30.7473,-11.0141,38.6758,-0.429,-0.0306,-1.3104,-0.6116,1.4969,0.062,0.0733,-2.222,0.0529,-1.1349,0.4502,-1.4161,0.1063,-0.0545,0.387
7023,-0.0131,-0.0351,9.758,-1.0902,1.4273,0.1899,30.91,-8.1091,40.8367,-0.0507,1.1975,0.1361,0.1525,-0.9756,-1.6636,-1.7921,-2.1934,0.3195,-0.7269,1.5898,0.2478,-1.5508,-1.5975,-1.1449
7034,0.1616,0.0792,9.8244,-0.4724,-0.1077,-0.3458,30.0977,-10.2549,39.029,-1.0801,-2.2261,-0.5554,-1.0921,0.7404,-0.0407,1.6679,-1.3903,-0.4412,0.5155,-0.9179,0.8746,-0.3722,-0.5788,-0.1255
7045,0.0181,-0.0228,9.7676,-0.2918,-0.1152,0.0611,28.9881,-11.0296,40.5846,0.8549,-0.2125,1.27,-1.2308,-1.6837,1.1684,1.3395,1.5494,0.0681,-0.7275,-0.8193,0.1277,-0.1723,0.3003,-0.677
7058,0.1283,0.0156,9.8656,-0.1677,-0.206,0.5327,29.9628,-11.4634,39.495,1.6553,-1.0964,-0.5527,-0.1504,-0.4573,0.9065,-1.4484,0.1567,0.5297,0.1121,-0.493,-0.4747,1.4953,-1.5248,-2.0032
7068,0.0081,0.1461,9.7574,0.0499,-1.037,0.2307,30.8574,-11.5648,40.4427,0.2206,1.3622,-0.5393,-1.5994,-0.3245,-1.4676,0.4069,-0.5116,-0.8366,-0.3858,-0.021,-0.0081,0.9507,-0.4352,-0.2946
7079,-0.0143,-0.0529,9.851,0.9194,0.0336,-0.5898,29.1284,-10.6804,39.7284,-0.0299,1.249,-0.5203,-0.6075,-1.006,0.8308,-0.2161,0.0617,-0.0668,0.157,1.0963,0.4579,-1.3072,0.9057,-0.6027
7090,-0.0383,0.0025,9.8629,-0.5827,0.3294,0.774,29.084,-11.6521,41.7535,0.5968,-0.84,1.0871,-1.3367,0.4234,-0.2539,0.5754,0.0432,0.1489,-0.5647,-0.5036,0.5172,-1.402,0.7077,1.0424
7103,-0.0454,-0.0618,9.7889,-0.4459,-0.098,0.0977,30.5813,-8.1245,41.0546,0.5038,-0.2027,0.8982,0.6952,0.379,0.4282,1.555,2.0054,0.3746,-0.6279,0.5677,-0.1249,-0.1396,-1.4628,0.2669
7116,0.0273,-0.2419,9.7643,-0.169,0.0331,0.2332,30.7064,-10.8442,41.4591,1.0412,0.8291,0.1963,-0.2071,-0.3053,-0.2159,-0.9458,0.4081,1.0821,-0.3888,-1.0373,1.2182,-0.5058,-0.7135,-1.7805
7127,-0.0366,-0.0996,9.768,-0.6036,-0.8866,0.0607,28.6522,-8.9623,39.8004,0.9911,0.0631,1.2511,0.4704,-0.5727,-1.6847,0.0326,0.4681,0.7963,1.7478,0.5713,0.9739,-0.4608,2.9078,1.2888
7138,0.1869,-0.0097,9.6816,0.311,0.3058,0.9486,29.8938,-10.1363,39.0337,0.4893,-1.7486,-0.9876,1.3998,-1.2616,-0.3061,0.1537,0.9348,0.4821,-2.2904,-0.6307,0.2742,-0.6646,0.455,-0.9339
7156,0.0928,0.0861,9.7566,-0.252,-0.6081,-0.2423,29.3292,-11.0383,39.6525,-0.8904,0.7441,-2.108,1.6204,-0.5519,-1.0945,0.2012,-0.3722,-0.3364,-0.4721,2.0294,-0.3646,1.2989,0.115,-0.8375
7166,0.103,-0.0442,9.8424,0.3557,-0.1732,0.032,30.1227,-9.8641,40.4605,-1.076,-1.7827,0.8497,-0.9615,1.3898,1.258,-0.0574,-0.6282,1.405,0.701,0.0035,0.1464,-1.0978,-0.3488,-0.374
7179,-0.1007,0.0488,9.9108,0.004,-0.0772,1.0989,28.7484,-8.2919,39.9209,-0.4369,-1.6023,-0.8871,-0.1151,-0.0463,-0.3023,0.3247,-0.4237,1.085,0.7009,0.0083,1.0246,-0.5543,0.8802,-1.3717
7190,0.0326,0.0308,9.7688,0.0259,-0.7011,0.8508,30.3274,-8.7407,40.6658,0.2483,1.4199,0.308,-0.65,-0.0457,-1.2253,0.6068,-0.1272,-0.1916,1.7013,-0.6285,0.2626,-1.1059,-1.9277,-0.8664
7204,0.0803,-0.1419,9.8,-0.1224,-0.3224,-0.1753,29.5914,-10.9132,40.1461,-2.0626,1.1404,-0.7509,1.01,0.3741,0.773,-0.3558,0.9161,1.1293,0.0836,-0.3939,-1.1925,0.9129,-1.0883,0.0925
7214,0.2134,-0.1273,9.7691,-0.3786,-1.2725,0.3859,29.8786,-8.3388,40.0193,-0.837,-1.4127,-0.4387,0.3985,0.5245,0.1991,-0.1375,-0.1189,-0.1548,0.5861,-1.1372,-0.3742,-0.9333,0.5242,0.3537
7224,-0.0805,0.1525,9.6931,-0.554,-0.4758,-0.6354,29.1839,-9.2001,39.3184,0.2317,1.2091,-0.0927,0.2201,-0.2916,-0.5143,2.3824,0.3584,-0.7288,0.7673,-0.5064,-2.4048,-0.7982,1.6594,0.6849
7237,-0.0143,0.0775,9.7817,0.5642,-0.4613,-0.5531,31.3205,-9.6106,39.861,-1.5328,1.6407,-0.6795,1.0741,0.1124,-0.3418,0.5393,0.6081,-0.3906,-2.2458,-2.5794,0.3634,-0.2872,1.4107,2.4374
7249,0.0468,-0.0761,9.8126,0.4471,-0.5969,-0.2185,29.1669,-10.0656,39.7283,-0.7578,1.5613,0.0979,-0.3037,-1.8386,-2.7228,0.9184,0.6943,1.5079,-0.5146,0.0986,0.1837,0.4042,1.4749,1.9728
7260,-0.0473,-0.0983,9.7034,-0.3735,-1.0071,0.4945,30.142,-10.3315,39.7128,-0.6638,-1.1387,1.6388,-0.2259,0.6371,0.5967,-0.877,-1.4522,0.8144,1.6814,-0.7955,1.2628,-1.5721,1.7655,0.0269
7271,0.1322,0.0419,9.8205,0.9534,-0.3192,0.0189,30.408,-12.5602,40.2605,-0.3435,-0.7293,0.3607,0.1278,0.1037,-1.2902,-0.2855,-0.1638,-0.0078,0.6874,-0.2325,0.4211,0.1273,0.6888,1.2696
7284,0.1445,-0.0072,9.7798,0.5524,-0.2784,0.1247,31.0094,-10.8591,40.372,-0.0218,0.9708,0.8527,-0.0926,-0.2665,-1.8203,-0.5752,-1.8412,-0.3389,-0.6346,-0.5618,-1.0154,0.43,-1.3372,0.7359
7295,0.0637,0.1758,9.7623,0.4389,-1.1503,0.196,30.4265,-9.654,40.7927,-0.5005,-0.658,-0.0359,-0.5964,-0.8962,0.8802,-1.4721,1.0072,0.1579,0.9913,0.4733,-1.27,1.3854,0.8454,0.9283
7308,-0.0114,-0.0037,9.8153,-0.0974,0.5712,-0.1355,29.2606,-8.7716,39.8087,0.1703,-1.3031,1.8225,0.272,0.1452,0.7482,-0.8917,-0.4644,1.3162,-0.3618,-1.5356,0.1781,1.6317,0.6799,0.3721
7322,-0.1493,-0.0549,9.7551,-0.2465,1.034,-1.1542,30.7644,-10.1561,41.3859,0.4482,-0.9633,-0.6679,-2.7575,0.6266,1.5311,0.2777,-0.8648,-0.1095,-0.8832,1.5888,0.1786,1.1571,1.0546,1.0499
7335,0.1436,-0.0064,9.8172,-0.6562,0.8604,-0.0962,29.7131,-9.4813,39.9312,0.2038,-0.198,1.84,1.0116,0.6303,-0.607,-0.1722,-0.7099,0.1974,0.2055,0.0239,0.0877,0.1461,-0.296,0.0341
7345,-0.2016,0.0881,9.7805,0.1014,-0.9274,0.3287,29.302,-9.9346,39.5987,-1.4133,0.5476,2.3086,0.0637,-0.6533,0.7331,0.3852,-0.257,-0.4713,0.1379,-0.287,0.5414,0.1511,-0.6712,0.0469
7355,-0.0666,0.0602,9.8124,0.2734,0.2336,0.5853,29.9345,-12.1093,41.3628,-2.8129,1.5836,-0.2727,0.5392,-0.1833,0.652,-1.1577,1.4018,-1.2549,-0.4431,-0.0106,0.5245,0.8027,0.3944,2.0458
7366,-0.0202,0.0928,9.7407,-0.1573,-0.8295,-0.2091,29.5787,-8.5724,38.785,1.1879,-0.7865,1.4158,-0.3006,1.0014,0.2622,-0.873,0.5475,-0.5225,-0.0139,-0.2272,0.9276,1.6593,-0.5473,-0.1492
7385,0.081,-0.0462,9.7874,0.6651,-0.4635,0.3804,28.1913,-12.0071,39.5654,0.2364,0.7075,-1.1944,0.4038,0.037,-0.6497,1.3622,-1.0528,0.0379,-0.1918,0.3297,1.4798,-1.2394,0.7655,0.3162
7396,0.0063,-0.0322,9.834,0.3741,-0.2319,-0.2037,29.4509,-9.3999,38.8847,1.0622,-0.1585,-0.5974,2.0595,0.0113,0.9341,-1.4766,-0.383,-0.4009,-0.6306,-0.2463,0.9945,-1.2697,-0.1685,-0.263
7406,0.1109,-0.0324,9.8266,-0.0441,-0.3478,-0.0028,28.9721,-9.9037,39.6119,-1.2349,-0.8231,-0.2765,0.656,1.6841,-1.5848,1.0045,-0.6781,-1.1279,-1.4966,0.2506,0.3031,0.3192,0.8426,0.6833
7418,-0.1427,0.1039,9.8169,0.4397,0.6034,0.1548,31.3536,-9.7827,40.2201,-0.2081,-0.4984,-0.7267,-0.9675,2.5218,-1.5337,-3.1496,-0.3883,0.965,0.4574,0.6307,0.0263,-0.7267,0.391,0.1378
7438,-0.1708,0.0688,9.8361,-0.6461,-0.728,0.3184,28.3142,-9.0969,41.4761,0.7913,0.2763,0.0224,-0.034,0.6612,0.7915,-0.921,2.5076,1.0105,-0.4132,0.4365,0.249,1.7778,0.8612,0.2663
7449,0.1533,-0.0369,9.8316,0.2904,0.3329,0.0415,30.2585,-9.3469,42.4361,0.3332,-0.7051,0.1544,-0.4786,0.2015,-0.1732,-1.343,-0.6963,1.9394,0.0531,1.205,-0.2053,-0.3168,-1.3363,-0.7241
7462,0.058,0.1021,9.8049,-0.5391,0.2889,-0.1142,29.0889,-8.6127,39.5319,-0.3202,-0.6489,-1.4631,0.1245,-0.3638,1.8897,0.4962,0.8071,-0.2861,0.1488,-0.3365,1.4174,0.333,-1.5338,0.7483
7473,0.0491,0.0437,9.8176,-0.3731,-0.219,-0.0536,28.9404,-10.7871,38.4798,-1.0281,-1.2356,-0.4505,-1.6619,0.4871,-0.6619,-0.246,0.2731,-0.299,0.7937,-0.3487,-0.2196,1.9212,0.6401,0.3055
7485,-0.0972,0.031,9.8297,0.4115,-1.1658,-0.2716,31.0838,-10.0126,39.4469,-1.304,1.5695,1.537,0.0959,-0.6405,2.6741,0.3595,0.2894,-1.8396,0.6171,0.7642,1.3568,-0.8255,1.001,1.746
7495,-0.0594,-0.1686,9.7641,-0.3626,0.0081,-0.622,29.8266,-9.0275,40.2281,-0.3563,-1.2476,0.4941,0.7659,1.5727,1.0191,1.0333,0.735,0.6346,-1.0877,0.0288,-0.0907,0.4643,1.6019,1.4171
7507,-0.0823,-0.0977,9.8318,-0.8188,0.3671,0.0159,30.5571,-9.2259,40.4016,0.0689,-0.5293,-0.2302,1.9778,0.7947,0.1874,-1.0847,0.6675,0.3271,0.0799,0.005,1.6048,-0.3959,1.3462,0.1095
7519,0.0367,0.051,9.8448,0.5332,-0.4612,0.3687,28.8516,-10.1378,40.6757,0.9365,1.1041,0.6411,3.2337,-0.3935,0.2396,-0.3332,1.2166,-0.0933,0.8559,0.9739,1.041,0.6552,-0.7887,-1.5252
7538,-0.1621,-0.1109,9.7743,0.2632,0.241,-0.1581,32.3238,-9.5535,39.0624,0.739,1.0792,-0.2202,1.3391,-0.3225,-0.3713,-0.0829,0.5336,-0.5594,0.451,-0.3429,1.0183,0.4046,-1.6628,0.4796
7556,0.0404,0.0739,9.8176,0.4915,-0.4669,0.4239,30.5466,-12.2322,40.4812,-0.6785,0.3543,-1.3583,-0.0745,1.499,1.5583,0.1363,0.5777,0.5506,0.3846,0.3147,1.4494,-0.1013,1.9642,0.7882
7567,0.1127,-0.0285,9.827,0.3124,-0.0666,-0.0765,30.2092,-10.4967,39.7208,0.5497,2.1025,0.5958,0.4808,-0.2027,-3.0139,-0.0302,1.055,0.0761,-0.5805,-0.8973,0.2195,-0.2014,1.3739,0.0878
7578,0.1453,-0.0172,9.6736,0.1046,-0.1295,-0.2048,30.6495,-7.3357,40.3342,0.1014,-0.5205,-0.3428,-1.344,-0.3086,-1.5205,1.4872,-1.9673,-1.1043,0.53,0.1132,1.6625,-0.6288,-1.3692,-0.3779
7590,0.0116,-0.0138,9.8017,0.3692,-0.3459,0.6033,30.0739,-7.9405,41.3344,-0.127,-0.8902,0.3572,-0.513,0.4121,1.7119,1.7374,1.3592,0.4167,0.4925,0.7855,1.4592,-1.2599,-0.3887,-1.1247
7609,0.0491,-0.0792,9.8782,0.1172,0.5638,-0.5444,31.2063,-10.9539,41.0953,2.0992,0.2941,-0.2952,0.6114,-1.1412,0.3635,-1.3605,-0.3311,1.2797,-1.0583,-0.4692,-1.0135,-0.2874,-0.3605,0.7396
7620,0.1186,0.1355,9.7948,-0.8007,0.3672,0.4174,29.5831,-9.7151,41.8117,0.4271,-0.4369,0.7371,2.5639,-0.2352,0.2799,-0.7804,0.8802,0.5645,-0.6981,0.5152,1.3697,-2.273,-1.891,-0.3529
7630,-0.0063,0.3019,9.7483,-0.2377,0.8058,-0.4773,30.0247,-9.7592,39.0302,1.2507,0.0881,-0.6617,-0.7319,-0.0454,-1.3007,-0.799,-0.0638,-1.0518,-2.0701,-1.3205,-0.4849,0.623,0.5989,-0.5089
7641,-0.0609,0.0227,9.7586,-0.1306,0.0881,0.3576,30.0925,-10.7885,39.4218,2.0524,-1.059,1.061,-1.5599,0.7564,0.5087,0.553,-2.8599,-0.2203,-1.9006,0.0441,-0.231,-1.9325,-0.1551,-0.2309
7651,0.0137,0.1397,9.7948,1.013,-0.0924,-0.4672,31.007,-10.0566,40.3109,-1.1681,-0.4174,-2.1362,-1.7232,0.8558,1.1658,-0.413,-2.9715,0.2655,-2.0238,1.3091,-0.4697,0.0733,-0.8409,1.2333
7661,-0.1978,-0.0815,9.7833,-0.0687,-0.5213,0.459,30.5398,-9.6579,39.5285,1.1607,-1.0163,0.9569,-1.4891,-1.3092,-2.3543,0.0897,-0.0085,-0.8787,0.4235,-0.12,-2.49,0.4414,0.1555,1.4227
7672,-0.0095,0.0793,9.8838,-0.9983,-0.6848,0.0078,30.6686,-9.8676,41.5548,0.288,-0.7407,-2.532,1.0174,0.0818,0.0964,1.0132,1.2225,-1.5192,0.4424,-0.749,1.8348,-1.5031,0.3856,0.8316
7689,0.0959,-0.0219,9.8553,-0.5913,0.4443,-0.4154,30.968,-10.6709,40.1389,0.4474,0.7789,-0.4873,0.8706,0.0883,0.1531,-2.3993,0.0449,-0.0718,-1.2698,1.4793,1.0491,-0.3688,0.6351,0.3203
7703,0.0493,0.0993,9.8015,0.582,0.347,0.1486,30.4973,-11.2948,40.4322,1.3176,-0.5224,-1.1343,-0.2547,-0.143,-0.637,-0.4062,1.9069,-1.2433,-0.8888,-1.0594,0.0061,-1.1357,-0.5259,1.4444
7713,0.0318,-0.169,9.6635,-0.0718,-0.2094,-0.7506,29.9632,-10.2056,40.0703,-0.2243,-0.9198,0.891,-0.232,-1.056,-0.3237,-2.4411,-1.4812,0.1615,-0.4465,1.0291,-1.6957,-0.0968,0.6947,0.3644
7727,-0.0825,0.0003,9.8237,-0.5966,0.0291,-0.0139,30.7571,-10.7004,40.2732,-1.5663,-0.5579,-0.851,0.5838,1.0657,0.3211,0.7554,0.4596,-1.5076,-0.8166,-0.596,0.8747,-0.1697,-0.7103,-0.7172
7737,-0.0016,-0.1616,9.8421,-0.2952,0.999,0.5557,29.5418,-11.3155,39.7667,0.1846,0.8049,-0.7788,-0.1106,-0.0349,-1.7627,-0.3397,-0.6667,0.5315,-1.6505,1.1336,1.2085,1.1729,-0.9051,-0.4235
7749,0.0746,-0.0295,9.7772,-0.1767,0.3283,0.0403,29.5584,-10.135,39.2896,0.394,1.3798,-1.6719,-2.6996,0.5834,-1.1274,-1.211,-0.8279,0.6684,0.2791,1.0797,-0.7404,-1.6084,-0.0972,-0.7326
7761,0.0008,-0.038,9.7977,0.5203,-0.906,-0.2731,31.2604,-10.2331,39.5131,0.1091,-0.0519,-1.107,-0.8068,-1.362,0.1292,-0.7893,1.2566,-1.0314,0.9735,0.4517,-0.0146,-0.1154,-0.3036,-1.1102
7773,-0.0869,-0.0499,9.8137,0.7113,0.6048,-0.4091,29.2098,-7.8067,39.5124,0.7352,0.7748,-0.6617,-1.6027,-1.3937,0.6878,-1.1549,0.2318,-2.4494,-0.1253,0.3706,-1.9464,1.5729,0.3069,-0.6821
7786,-0.1223,-0.1502,9.8741,-0.1718,0.2194,0.5099,31.1394,-11.7077,39.7913,0.1551,-0.0086,-0.6551,-1.578,0.6874,-0.6475,0.4103,-1.7671,0.4894,0.9277,0.6522,-1.1292,-0.4336,-0.0863,-1.6144
7805,0.1112,0.0095,9.7141,0.9753,-0.3609,0.634,31.0826,-9.5834,40.2662,-0.0151,-1.9572,1.1237,0.1647,0.4003,0.7789,0.2786,0.7471,1.5812,-1.0761,-1.2574,-0.7738,-0.8596,-1.1853,-0.701
7816,0.1278,0.0484,9.8533,0.067,0.2391,-0.8228,29.7126,-11.5507,38.3843,0.9345,-0.0717,-0.672,0.6766,0.5893,-0.8181,0.5439,-0.5866,0.3215,1.4255,1.3059,-1.2585,-0.5621,0.8445,-0.1313
7827,-0.0726,-0.1483,9.7557,-0.282,-0.16,0.4518,31.1639,-9.8569,39.9817,1.0158,-0.128,-1.5513,-0.3069,-0.1202,0.4467,1.3254,-0.2616,-1.7432,0.6947,0.5265,-0.5665,0.0571,1.143,-0.4366
7845,-0.0743,-0.0836,9.7269,-0.3379,-0.4526,0.4051,30.9948,-9.3188,42.3313,0.3016,1.1036,-1.0997,0.6569,-0.7282,-0.9999,-1.8176,0.0311,0.1986,1.022,0.5154,-1.3387,-0.3355,1.3138,-1.028
7863,-0.1362,0.2006,9.6994,1.1191,-0.802,0.2068,30.3731,-10.3899,40.6575,-0.0669,-1.1314,1.1023,-0.1777,0.0693,0.3135,0.0636,-1.401,-0.5913,-0.7413,0.6298,-0.0335,0.4157,1.765,-0.0121
7874,0.0514,0.0724,9.801,-0.1762,0.5768,-0.7181,30.2648,-9.8594,39.4264,0.9095,0.1738,0.1863,-1.2009,0.9587,-1.0299,0.015,0.581,0.6149,1.524,-0.0566,-1.0474,-0.6371,1.336,-0.0522
7887,-0.0917,0.0794,9.845,0.3384,-0.3504,-0.2157,28.5885,-8.6276,38.1671,-0.5486,-1.8737,-1.2989,1.2377,-0.027,-0.5269,-0.7549,0.7598,0.0524,-0.1907,-0.5809,-0.7769,0.0857,-1.0157,-1.6906
7898,0.0073,-0.1676,9.9239,-0.8047,0.0379,0.1214,30.9218,-10.3775,42.6539,0.3625,0.5631,1.7284,0.9167,-0.588,-0.3016,-0.6762,0.7217,1.4649,-1.0467,0.7252,-2.0282,2.3253,0.8958,1.2502
7922,-0.1531,0.0554,9.7648,-0.0557,-0.6302,0.7346,29.8373,-9.4794,39.1899,0.4881,0.7397,0.5456,-0.234,1.5966,0.5382,1.6311,-0.934,-0.3644,0.8253,-1.1862,0.8993,0.8468,0.2884,-2.0536
7933,-0.0332,0.024,9.8332,0.2451,1.1883,0.249,30.229,-10.6184,40.5527,-0.5796,0.1137,-0.2457,-0.1185,-1.6752,-0.305,0.0374,-1.467,0.2546,0.476,0.0446,-1.224,1.4777,-0.7329,-0.5092
