seq,time_us,ax,ay,az,gx,gy,gz,mx,my,mz,roll_gyro,pitch_gyro,yaw_gyro,roll_cf,pitch_cf,yaw_cf,roll_ekf,pitch_ekf,yaw_ekf,roll_madgwick,pitch_madgwick,yaw_madgwick,roll_mahony,pitch_mahony,yaw_mahony,drop_flag
0,0,-0.026793234050273895,0.022553835064172745,-1.0428738594055176,-0.3435528874397278,-0.4413168132305145,0.3963608145713806,30.37945556640625,-11.438546180725098,40.5135612487793,0
1,10170,-0.03942456841468811,0.05848797410726547,-0.98768150806427,-0.8458481431007385,-0.1641503870487213,-0.020338382571935654,30.104259490966797,-9.35564136505127,41.70835494995117,0
2,19809,0.0054205614142119884,-0.0832195058465004,-1.0050820112228394,0.4632614850997925,-0.1459541767835617,-1.0734912157058716,30.144826889038086,-9.692083358764648,39.99831008911133,0
3,30050,-0.0775601714849472,-0.05516442283987999,-1.0044389963150024,0.33314284682273865,1.2864398956298828,-0.3494972884654999,29.600460052490234,-9.445639610290527,39.2757453918457,0
4,39943,0.06035861745476723,-0.020208489149808884,-1.0065211057662964,-0.8504281044006348,-0.8236582279205322,-0.31300437450408936,31.513256072998047,-10.066248893737793,39.34824752807617,0
5,50070,-0.026443425565958023,0.0228416845202446,-1.0044723749160767,0.4470970630645752,-0.14761662483215332,-0.5079308748245239,30.03482437133789,-11.076982498168945,41.0544319152832,0
6,59900,0.08044975250959396,0.048040721565485,-1.0123711824417114,0.9856737852096558,-0.1857983022928238,-0.8491045236587524,30.998085021972656,-9.507299423217773,38.377079010009766,0
7,70042,-0.0037703821435570717,-0.023956533521413803,-1.0224543809890747,0.5986165404319763,-0.7222347855567932,0.6796689629554749,27.763376235961914,-10.40028190612793,40.88414001464844,0
8,80315,0.04664865881204605,0.000836468767374754,-1.006847620010376,0.7558795213699341,0.29837125539779663,0.38605377078056335,28.259965896606445,-11.19411849975586,39.32976531982422,0
9,89864,-0.013025720603764057,0.025898301973938942,-0.9742936491966248,0.7997295260429382,-0.5468878746032715,-0.10739865899085999,30.093826293945312,-10.216143608093262,42.491172790527344,0
10,100177,0.020832261070609093,-0.024708665907382965,-1.0063252449035645,-0.4824531376361847,0.25208449363708496,0.3164304196834564,29.934282302856445,-9.718999862670898,40.11468505859375,0
11,109898,-0.023608166724443436,0.009620659984648228,-1.0239850282669067,-0.3383813798427582,0.559721827507019,0.4197279214859009,30.983509063720703,-9.684771537780762,38.277950286865234,0
12,120105,0.01962878182530403,-0.03645022585988045,-1.0079262256622314,0.12056410312652588,0.10921325534582138,0.04511822760105133,29.82693099975586,-10.178182601928711,37.23564529418945,0
13,130054,0.0877126082777977,0.019864294677972794,-1.0044784545898438,-0.004902551881968975,-0.12341072410345078,-1.2670154571533203,30.906360626220703,-10.832030296325684,37.75828552246094,0
14,140002,-0.051771048456430435,0.014381775632500648,-0.9868595004081726,0.6827113032341003,-0.9631407260894775,-0.372221976518631,30.246042251586914,-9.170085906982422,41.39885330200195,0
15,149857,0.09548045694828033,-0.05639273673295975,-1.0204108953475952,0.414706289768219,0.47855567932128906,0.041238244622945786,29.082929611206055,-9.059362411499023,40.36845397949219,0
16,159822,0.10565540194511414,-0.03384586423635483,-1.0009536743164062,0.3018888831138611,0.41219738125801086,0.31408753991127014,30.20804786682129,-10.192061424255371,39.18722152709961,0
17,170074,-0.013412819243967533,-0.02073564939200878,-0.9879055619239807,0.18211841583251953,-0.14616039395332336,-0.2798650562763214,29.855388641357422,-10.818146705627441,40.69084930419922,0
18,179746,-0.03159023076295853,0.03884851559996605,-1.0062944889068604,-0.20551125705242157,-0.6747746467590332,-0.31463858485221863,28.811859130859375,-11.14651107788086,41.73518753051758,0
19,189737,-0.05360713601112366,0.02482525072991848,-1.0115927457809448,0.18978844583034515,0.3362009823322296,-0.14117750525474548,29.743410110473633,-9.289834976196289,38.94966506958008,0
20,200123,0.008754542097449303,-0.054723918437957764,-0.9819698929786682,0.5853061676025391,1.0706695318222046,1.3581095933914185,29.222599029541016,-10.400369644165039,41.21165466308594,0
21,210343,-0.0292953047901392,-0.07039503008127213,-1.015912652015686,0.21164511144161224,0.2674468457698822,-0.2995797395706177,31.251628875732422,-10.025081634521484,38.16792678833008,0
22,219818,0.05360252037644386,0.029896220192313194,-1.0044304132461548,-0.211985781788826,1.7827914953231812,0.24006815254688263,30.599254608154297,-9.74665641784668,40.27426528930664,0
23,229855,0.005419498775154352,-0.06432189792394638,-0.9752533435821533,-0.22509105503559113,-0.5267852544784546,-0.30625271797180176,30.97838592529297,-9.852482795715332,39.663177490234375,0
24,240059,0.032588761299848557,-0.08562486618757248,-1.008993148803711,-0.012496191076934338,0.6948180794715881,0.3052372634410858,27.91119384765625,-10.50107479095459,39.98656463623047,0
25,250080,0.029592229053378105,-0.013648128136992455,-1.010868787765503,-0.2641375958919525,-0.8537061214447021,0.22375313937664032,30.155637741088867,-8.632864952087402,39.81184768676758,0
26,259577,0.03144174441695213,-0.03298521041870117,-0.9899513125419617,-0.22562555968761444,-1.1101880073547363,-0.04357088729739189,31.445497512817383,-9.243532180786133,40.47100067138672,0
27,270235,0.029650164768099785,0.022493543103337288,-1.0343068838119507,-0.7210632562637329,-0.5771095752716064,-0.21071147918701172,31.27122688293457,-9.617350578308105,40.606109619140625,0
28,280047,-0.026550067588686943,-0.011099401861429214,-0.9934581518173218,0.5191170573234558,0.5634751319885254,-0.6967872977256775,30.374094009399414,-8.408269882202148,41.29716873168945,0
29,289796,0.057771772146224976,-0.013222010806202888,-1.0020039081573486,-0.2597425580024719,0.6514115333557129,-0.29844292998313904,29.289705276489258,-8.604246139526367,40.14735794067383,0
30,299911,0.026526933535933495,-0.05760068818926811,-0.9915080666542053,-0.6565017700195312,-1.0047823190689087,0.17139165103435516,31.629833221435547,-10.581085205078125,40.872291564941406,0
31,309633,-0.035518985241651535,0.014503085054457188,-0.9439619183540344,0.47408315539360046,-0.6766664385795593,-0.7023467421531677,31.03615379333496,-10.292917251586914,38.3142204284668,0
32,320020,-0.08825743198394775,-0.014847420156002045,-1.0127997398376465,-0.7461438775062561,-0.6782065629959106,0.2771649956703186,30.324308395385742,-9.230216026306152,39.37601852416992,0
33,329783,-0.011363429017364979,0.00710312370210886,-1.0067254304885864,0.41215962171554565,-0.1345764696598053,-0.08186889439821243,29.353029251098633,-9.862946510314941,38.97505187988281,0
34,339859,-0.05439767986536026,0.026547349989414215,-1.0250325202941895,0.1782437562942505,0.6716570258140564,-1.1007684469223022,29.294946670532227,-7.982246398925781,39.532623291015625,0
35,350190,0.09669994562864304,0.004742180462926626,-0.9756848216056824,-0.6693544983863831,-0.07614266872406006,-0.04487254098057747,29.271461486816406,-10.117756843566895,38.16468811035156,0
36,359987,-0.0038930021692067385,0.02983476221561432,-1.0008645057678223,-0.21462483704090118,-0.7856540679931641,-0.6741117238998413,31.66907501220703,-7.820897102355957,41.50078201293945,0
37,370171,0.039682578295469284,-0.05439091846346855,-1.0263035297393799,0.6200934648513794,0.44548171758651733,-0.38729238510131836,30.14375114440918,-9.737549781799316,39.473602294921875,0
38,379723,-0.04825134947896004,0.039314884692430496,-0.9970190525054932,-1.8274359703063965,-0.9003177285194397,-0.6567205786705017,28.796489715576172,-9.414457321166992,38.88842010498047,0
39,390062,-0.037725478410720825,-0.012917827814817429,-1.03401517868042,-0.32509154081344604,-0.18686287105083466,0.027865838259458542,31.688953399658203,-9.798266410827637,39.294368743896484,0
40,400076,0.051053013652563095,-0.06769736111164093,-1.0293176174163818,0.09751575440168381,-0.6029951572418213,-0.15988604724407196,31.618091583251953,-11.142159461975098,40.480533599853516,0
41,410135,-0.030222991481423378,-0.04409562423825264,-1.0040671825408936,0.23809196054935455,0.19014930725097656,-0.4690975546836853,30.448551177978516,-10.376718521118164,40.378936767578125,0
42,420122,0.02081604115664959,0.09353955835103989,-0.9878290295600891,-0.20226402580738068,-0.09909072518348694,0.18608428537845612,30.543846130371094,-10.17769718170166,39.60152053833008,0
43,430248,-0.11970304697751999,-0.016902554780244827,-0.9972712993621826,-0.5899212956428528,-0.4500313103199005,-0.5689846277236938,30.046770095825195,-8.366846084594727,39.523834228515625,0
44,440140,0.029512010514736176,0.04518122598528862,-1.016989827156067,-0.4263967275619507,-0.43428146839141846,-0.9001873731613159,32.07331848144531,-9.778643608093262,40.24311828613281,0
45,449770,0.0637756735086441,-0.027653982862830162,-0.9991084933280945,0.002775396453216672,0.1948518604040146,0.5891030430793762,30.32912826538086,-10.334136962890625,39.9052619934082,0
46,460207,-0.10801783949136734,0.021784188225865364,-0.9520454406738281,0.35808220505714417,-0.7429721355438232,-0.23289501667022705,30.800992965698242,-11.085949897766113,39.787628173828125,0
47,469953,-0.05443428084254265,0.013282379135489464,-1.0033990144729614,-0.1721777468919754,0.06674112379550934,-0.7746249437332153,28.28102684020996,-9.44814395904541,40.222721099853516,0
48,480112,0.05500805005431175,0.005364744458347559,-0.9751013517379761,0.774278461933136,0.2431025356054306,0.25352731347084045,30.93607521057129,-8.881986618041992,40.73682403564453,0
49,490203,0.019851917400956154,-0.0348496250808239,-1.0111558437347412,-0.47741013765335083,-0.4991592764854431,-0.3375391662120819,30.928380966186523,-9.449243545532227,40.82151794433594,0
50,500160,-0.0040726265870034695,-0.041613832116127014,-1.0111734867095947,-0.3950951099395752,-0.6184647083282471,0.16405855119228363,28.452516555786133,-9.128259658813477,38.52997589111328,0
51,509944,-0.010933982208371162,0.0077590602450072765,-1.0127811431884766,0.29829004406929016,0.28301793336868286,-0.6582497358322144,30.534914016723633,-10.241971969604492,39.24460220336914,0
52,519540,-0.03338919207453728,-0.07167809456586838,-0.9764871597290039,-0.2601286768913269,0.019733941182494164,0.2587244212627411,29.250377655029297,-10.155937194824219,41.8585090637207,0
53,529895,0.03811268135905266,-0.01365573052316904,-0.9908754229545593,-0.4168774485588074,0.39474454522132874,-0.1006023958325386,29.956830978393555,-8.626960754394531,40.29387283325195,0
54,540061,0.012530717998743057,0.04600856080651283,-1.00629723072052,0.9189530611038208,-0.4004932641983032,0.5361034274101257,29.518665313720703,-8.510964393615723,40.0557861328125,0
55,550000,0.03420967608690262,0.032763734459877014,-0.9662575721740723,0.17572452127933502,0.9720637798309326,-0.4301718473434448,29.045259475708008,-9.52833080291748,38.44475555419922,0
56,559963,0.006418371107429266,0.053031567484140396,-0.9942058324813843,-0.4420354664325714,0.2758275866508484,-0.16318264603614807,29.732723236083984,-9.349273681640625,40.6063117980957,0
57,570204,-0.09672391414642334,0.028890106827020645,-0.9696979522705078,-0.10460793226957321,0.9513128399848938,-0.28037741780281067,30.443735122680664,-9.490934371948242,41.15211486816406,0
58,579772,0.03588411211967468,-0.00013579128426499665,-0.9811341762542725,0.34304243326187134,0.5796028971672058,0.2869631052017212,30.3071346282959,-10.416970252990723,38.666751861572266,0
59,590145,0.008006865158677101,0.040255893021821976,-1.0110981464385986,0.4228910207748413,0.006776663940399885,0.42384690046310425,29.484813690185547,-9.768078804016113,39.274375915527344,0
60,600110,-0.06628411263227463,0.09341856837272644,-0.9785594940185547,-0.512694239616394,-0.5404038429260254,-0.6514673829078674,28.278173446655273,-9.136688232421875,40.26234817504883,0
61,610061,0.05450025945901871,0.060188665986061096,-0.9538548588752747,-0.31108736991882324,0.7372725605964661,0.4711568057537079,28.706857681274414,-10.771013259887695,39.21933364868164,0
62,620094,-0.0779733955860138,0.017244737595319748,-0.9885837435722351,-0.08621954172849655,-0.019850557669997215,0.46719521284103394,28.488876342773438,-9.379496574401855,39.66381072998047,0
63,630100,-0.034663114696741104,-0.02285090833902359,-1.0181783437728882,-0.496520072221756,0.2451726347208023,0.41857627034187317,29.658550262451172,-9.316445350646973,39.124210357666016,0
64,639960,-0.059459980577230453,0.009276517666876316,-0.9825407266616821,0.07978039979934692,-0.15335679054260254,-0.0009272430907003582,29.431154251098633,-8.443349838256836,40.11320877075195,0
65,650102,0.03495664894580841,-0.02940998785197735,-1.0222091674804688,-0.07873541861772537,0.17455004155635834,-0.6012402772903442,30.041994094848633,-10.342484474182129,40.13802719116211,0
66,659767,-0.02458961494266987,0.04309970885515213,-0.9988940954208374,0.8474757671356201,-0.4046253263950348,-0.6818495392799377,30.26183319091797,-10.875483512878418,39.342533111572266,0
67,670094,-0.10359799861907959,-0.05427899211645126,-1.0103012323379517,0.5925105810165405,0.7357956171035767,-1.060655117034912,30.717561721801758,-9.411069869995117,39.91535568237305,0
68,680027,-0.08633061498403549,0.05248105153441429,-0.9889196753501892,-0.3680945932865143,-0.5018512010574341,-0.027273623272776604,29.92523193359375,-8.424562454223633,38.78519821166992,0
69,689880,0.033761050552129745,-0.040618978440761566,-1.000342845916748,0.44160887598991394,-1.0548019409179688,-0.42786741256713867,30.273639678955078,-8.758102416992188,39.09626007080078,0
70,700100,-0.02391025424003601,0.05772455036640167,-0.9704651832580566,0.6961262822151184,-0.4545215666294098,-0.6028094291687012,29.718353271484375,-10.158473014831543,39.90287780761719,0
71,710162,-0.06199052184820175,0.13211162388324738,-0.9784107804298401,-0.1767181009054184,-0.8998239040374756,-0.41691339015960693,29.595584869384766,-10.393876075744629,38.879295349121094,0
72,719784,0.05744018778204918,-0.06718888878822327,-1.0094037055969238,0.9830747842788696,0.1341993361711502,0.16704919934272766,29.53533363342285,-10.099983215332031,40.526241302490234,0
73,730237,-0.033233266323804855,0.02453998103737831,-0.9738262295722961,0.8565665483474731,0.6057365536689758,0.469429075717926,29.124906539916992,-9.798717498779297,38.887054443359375,0
74,740008,-0.030761895701289177,0.04312611371278763,-1.021262764930725,1.234694242477417,-0.5691207051277161,-0.45848971605300903,29.304977416992188,-8.162485122680664,39.331886291503906,0
75,749781,-0.03677500784397125,-0.08265519887208939,-1.0188078880310059,-0.8911985754966736,0.32223615050315857,0.21538271009922028,29.76934814453125,-10.876117706298828,40.16511154174805,0
76,760060,-0.10835958272218704,-0.06840966641902924,-0.9794893860816956,0.6092538833618164,0.3919142782688141,0.6460564732551575,29.751314163208008,-9.927035331726074,41.27523422241211,0
77,769759,0.016535919159650803,0.004618461709469557,-1.0015439987182617,-0.3979625999927521,0.7970291972160339,-0.3693689703941345,29.9844970703125,-9.911796569824219,42.55609893798828,0
78,780155,0.06999275833368301,0.03827109932899475,-0.9864389896392822,0.6774507761001587,-0.21631567180156708,-0.7938999533653259,29.74017906188965,-12.70956039428711,40.110015869140625,0
79,789835,-0.09438331425189972,0.02792707085609436,-1.0185770988464355,0.6245536208152771,1.5151480436325073,0.46341672539711,29.683494567871094,-11.389204978942871,41.01337814331055,0
80,800024,-0.02365829236805439,0.027419548481702805,-0.9883772730827332,0.37778156995773315,0.004947303328663111,0.45729994773864746,30.421449661254883,-10.627447128295898,41.14255142211914,0
81,810142,-0.06816983968019485,0.008540445938706398,-0.9820489287376404,-0.08653663098812103,0.29139870405197144,0.869082510471344,29.227764129638672,-9.042030334472656,40.5296745300293,0
82,820148,0.011023957282304764,0.06159830838441849,-1.0210374593734741,-0.4046173691749573,0.610822319984436,0.2763098180294037,29.367717742919922,-10.324360847473145,39.61546325683594,0
83,830142,0.045031510293483734,0.07553479820489883,-0.9974803924560547,0.3613840341567993,-0.1976059079170227,-0.20616067945957184,30.878372192382812,-10.14601993560791,39.74134826660156,0
84,839924,0.01012551411986351,-0.01992257870733738,-1.025145173072815,0.05159448832273483,0.21385513246059418,-0.2586383521556854,32.125,-11.093097686767578,40.853179931640625,0
85,850042,0.020889906212687492,0.01580360159277916,-1.0065120458602905,0.18357691168785095,-0.37442317605018616,-1.3363364934921265,30.614614486694336,-10.051045417785645,40.9903450012207,0
86,860150,-0.07904493063688278,0.05755162239074707,-0.9555962085723877,0.03702247142791748,0.06097027659416199,-0.5896403789520264,29.87006950378418,-9.498200416564941,38.675010681152344,0
87,870058,0.019461188465356827,-0.001237728400155902,-0.9785254001617432,1.1301149129867554,0.0991063117980957,-0.1337561160326004,31.677947998046875,-9.238988876342773,39.12460708618164,0
88,880056,-0.04083514213562012,-0.0015324855921790004,-0.9586784839630127,-0.062026072293519974,1.0150710344314575,0.3573940694332123,30.679136276245117,-11.554130554199219,39.16801452636719,0
89,889969,0.01974235102534294,-0.061874061822891235,-1.0062285661697388,0.018385889008641243,-0.28405845165252686,0.0937032476067543,30.109708786010742,-10.50878620147705,38.79547119140625,0
90,900166,0.002132328925654292,0.0030589676462113857,-1.0019603967666626,-0.3879280686378479,0.34353914856910706,0.0750870332121849,31.233171463012695,-9.577353477478027,40.16495132446289,0
91,910132,0.02758399397134781,0.0035987780429422855,-0.9842545986175537,-0.7713934183120728,-0.8507189750671387,-0.15420852601528168,29.406944274902344,-8.991521835327148,39.88175964355469,0
92,920003,0.003709756536409259,-0.06017743796110153,-1.0373097658157349,-0.11738695204257965,-0.10934131592512131,0.10115852952003479,29.872224807739258,-9.043191909790039,40.0238037109375,0
93,929945,0.0396014079451561,0.034387171268463135,-0.989633321762085,-0.14646029472351074,-0.34861376881599426,-1.0199421644210815,28.317827224731445,-8.480449676513672,40.82276916503906,0
94,939982,-0.013919745571911335,-0.058948684483766556,-0.9964365363121033,-0.33166608214378357,-0.3269069194793701,0.5607078075408936,29.047574996948242,-9.259634971618652,40.29488754272461,0
95,950131,0.053616032004356384,0.0012934132246300578,-1.0101982355117798,-0.5968130826950073,0.17278549075126648,-0.43000179529190063,30.193021774291992,-11.098870277404785,40.97275924682617,0
96,959934,0.03572259843349457,0.024616757407784462,-0.9653030037879944,0.6818627715110779,0.3148455321788788,-0.2930563688278198,32.37325668334961,-9.057774543762207,39.558128356933594,0
97,969814,0.037829943001270294,0.016917381435632706,-1.0220667123794556,0.021983835846185684,0.2766706049442291,-0.309566855430603,29.93709373474121,-9.990267753601074,40.37575912475586,0
98,979964,-0.012944323010742664,0.09582825750112534,-0.9751091003417969,-0.6692988276481628,0.3007339537143707,-0.42721301317214966,29.71048927307129,-9.565802574157715,40.060707092285156,0
99,989984,-0.08503565192222595,-0.03639434278011322,-1.000375509262085,-0.6518002152442932,-0.8554356694221497,0.26442950963974,29.299285888671875,-10.02250862121582,40.51130294799805,0
100,999968,-0.023287953808903694,0.0161092821508646,-0.9929759502410889,0.12544035911560059,0.740185022354126,-0.7294455766677856,30.259279251098633,-9.438105583190918,39.565792083740234,0
101,1009897,0.02732948213815689,-0.04835477098822594,-1.0048660039901733,0.35554078221321106,-0.8424980044364929,0.6431158185005188,31.604921340942383,-9.036084175109863,41.16050720214844,0
102,1020210,0.02517290972173214,0.012062921188771725,-0.9965059161186218,-0.25441423058509827,-0.5497865676879883,-1.0717194080352783,29.732559204101562,-11.045071601867676,39.379859924316406,0
103,1030097,-0.025463471189141273,-0.07312840223312378,-0.9790783524513245,0.595970630645752,0.1582166701555252,-0.11946558952331543,29.66423225402832,-11.80505084991455,38.64366912841797,0
104,1040055,-0.04365914687514305,-0.004910694435238838,-1.0085219144821167,0.31006187200546265,0.2517947852611542,-0.12671349942684174,28.764501571655273,-8.548577308654785,40.09425354003906,0
105,1050065,0.05641121417284012,0.026724275201559067,-1.0266978740692139,0.4494694173336029,0.32393309473991394,0.22937989234924316,31.496034622192383,-8.6679048538208,39.62939453125,0
106,1059831,0.07996992766857147,0.010394631884992123,-1.0037120580673218,-0.42028239369392395,0.8164529800415039,0.2571418583393097,31.281272888183594,-8.952662467956543,40.22492980957031,0
107,1070194,0.01417575217783451,-0.026156511157751083,-1.0131009817123413,-0.404689759016037,1.2703087329864502,1.437791109085083,29.285367965698242,-8.863362312316895,38.54530334472656,0
108,1080199,-0.058794982731342316,0.04432005062699318,-0.9967621564865112,0.3446856737136841,-0.299372136592865,0.7130734324455261,30.263446807861328,-11.765755653381348,40.745147705078125,0
109,1090053,-0.0712074488401413,-0.0913863405585289,-0.9883810877799988,0.8328059911727905,-0.7031883597373962,-0.24680979549884796,29.364641189575195,-9.332520484924316,40.27532958984375,0
110,1099803,0.06732943654060364,-0.01486111804842949,-0.9842323064804077,-0.2087058126926422,0.3931591808795929,0.26145899295806885,29.455568313598633,-10.090926170349121,40.6541862487793,0
111,1109735,-0.0606255903840065,0.021373463794589043,-0.9888871312141418,-0.6015658378601074,0.5917811393737793,-0.2256527543067932,31.099340438842773,-9.686172485351562,39.31359100341797,0
112,1120244,0.028547950088977814,-0.015080202370882034,-1.0199494361877441,-0.261414498090744,-0.7145337462425232,0.027272066101431847,28.488454818725586,-10.447731971740723,40.11192321777344,0
113,1129847,-0.13130779564380646,0.048114947974681854,-1.013427972793579,-0.3564388155937195,-0.1098162978887558,-0.39793455600738525,28.95269203186035,-8.127747535705566,40.14804458618164,0
114,1139878,0.002238505519926548,0.10164493322372437,-1.0094208717346191,-0.1558976024389267,0.16972419619560242,0.07919207960367203,28.84192657470703,-9.272372245788574,40.43864822387695,0
115,1149866,0.09122224897146225,-0.012072744779288769,-0.9943296313285828,0.561245322227478,0.5253963470458984,-0.41786134243011475,29.561986923217773,-10.240642547607422,40.449554443359375,0
116,1160066,0.027114184573292732,0.041931793093681335,-1.0280295610427856,-0.9345414638519287,-0.013181105256080627,0.9904844760894775,29.498685836791992,-9.969405174255371,38.381893157958984,0
117,1169926,0.07058218866586685,0.035966768860816956,-1.0318045616149902,0.3452870845794678,0.6049824357032776,-0.016766376793384552,28.748886108398438,-8.527375221252441,40.81816482543945,0
118,1180220,0.010038989596068859,0.027115710079669952,-1.020518183708191,0.18255677819252014,0.20564159750938416,0.07481668889522552,30.704801559448242,-10.404704093933105,39.1394157409668,0
119,1189679,0.052364274859428406,0.04259391129016876,-0.9980198740959167,-0.06031475588679314,-0.4132052958011627,0.01261227298527956,29.590517044067383,-11.615243911743164,39.58210372924805,0
120,1199945,0.1471288949251175,-0.035604145377874374,-0.973617672920227,0.542627215385437,0.11304417252540588,-0.185587078332901,31.112695693969727,-11.397247314453125,38.047691345214844,0
121,1210114,0.0028925836086273193,0.0334482416510582,-1.0503160953521729,-0.24499744176864624,0.6975916624069214,-0.3124488890171051,30.096881866455078,-9.850735664367676,39.46669387817383,0
122,1219971,0.046474307775497437,0.004319964908063412,-0.9666777849197388,-0.40331509709358215,0.12272682785987854,0.36635860800743103,31.110368728637695,-9.996034622192383,40.09006881713867,0
123,1229928,0.06614474952220917,0.05541222542524338,-1.0106334686279297,-0.5386222004890442,0.36687716841697693,-0.16638019680976868,29.75608253479004,-10.116812705993652,41.07011795043945,0
124,1240075,0.05028456449508667,0.0853421688079834,-0.9979826211929321,-0.5089160203933716,-0.661991536617279,-0.01825280301272869,30.266433715820312,-9.291975975036621,40.25425720214844,0
125,1250076,-0.0176088884472847,0.014296711422502995,-1.0032275915145874,0.22672346234321594,0.17921976745128632,-0.658781111240387,29.89890480041504,-10.606722831726074,40.13127517700195,0
126,1260118,-0.10292530059814453,-0.09443099796772003,-1.0210400819778442,-0.4006226360797882,0.06787890940904617,-0.5880798101425171,28.463041305541992,-8.407231330871582,39.780426025390625,0
127,1269718,0.03039412945508957,-0.043168943375349045,-0.9924910664558411,-0.6528100967407227,-0.9862203001976013,0.05191900208592415,31.70394515991211,-9.286160469055176,40.400394439697266,0
128,1280103,-0.04831666871905327,0.031310491263866425,-0.982025682926178,0.056104209274053574,0.09529586136341095,0.14081983268260956,30.659141540527344,-11.0960054397583,39.80733108520508,0
129,1289959,0.02932608500123024,-0.16065703332424164,-1.0095629692077637,-0.18526078760623932,-0.16156034171581268,-1.0493347644805908,28.46967887878418,-10.999222755432129,40.433536529541016,0
130,1299797,-0.12285265326499939,-0.04722769930958748,-0.9781713485717773,-0.30970266461372375,-0.09054796397686005,-0.22874268889427185,30.65386390686035,-10.503809928894043,42.25538635253906,0
131,1309669,0.016545826569199562,0.046979084610939026,-0.9691886901855469,-0.9548923373222351,-0.6826141476631165,-0.7718026638031006,31.13589096069336,-9.552688598632812,40.18096160888672,0
132,1320138,-0.09422343969345093,0.06573784351348877,-0.9874007105827332,-0.07128903269767761,0.5839263200759888,-0.017723089084029198,30.221208572387695,-9.001548767089844,40.20457458496094,0
133,1330165,0.03392152488231659,-0.06157419830560684,-0.9637936353683472,0.39896824955940247,0.2964768707752228,0.5162093639373779,29.625232696533203,-9.190251350402832,40.321815490722656,0
134,1339976,-0.04221605882048607,0.030159734189510345,-0.9893870949745178,-0.30931809544563293,0.19784006476402283,-0.4545659124851227,30.397018432617188,-9.776875495910645,38.49271774291992,0
135,1350046,0.03205982595682144,-0.05381443724036217,-0.985223650932312,-0.8879909515380859,1.1078524589538574,-0.35884183645248413,29.5999698638916,-9.805880546569824,39.34932327270508,0
136,1359876,0.059075918048620224,-0.032457999885082245,-0.9548511505126953,0.48410144448280334,-0.09152994304895401,-0.6963416934013367,29.938777923583984,-10.030418395996094,39.56502151489258,0
137,1369765,-0.10723409056663513,0.0997263640165329,-1.0024669170379639,0.6761558651924133,-0.5806064605712891,0.24132217466831207,30.77301788330078,-12.839764595031738,38.12317657470703,0
138,1379933,-0.056645676493644714,-0.0481061115860939,-1.0351080894470215,0.3366459310054779,-0.386886864900589,0.24200166761875153,30.77293586730957,-10.833442687988281,40.92500305175781,0
139,1390029,-0.02593754231929779,0.029796864837408066,-0.9649877548217773,-0.4436756372451782,-0.0785597562789917,0.21447178721427917,31.381254196166992,-9.665470123291016,40.28844451904297,0
140,1399855,0.04704393446445465,-0.015028447844088078,-0.9905232191085815,-0.24996177852153778,0.04900802671909332,-0.08042386174201965,29.417219161987305,-10.371870040893555,40.03335189819336,0
141,1410132,0.04565946012735367,0.0027269432321190834,-1.0179141759872437,0.15457598865032196,0.04822307080030441,-0.424946129322052,30.717788696289062,-8.901106834411621,37.983272552490234,0
142,1419869,0.003501906292513013,-0.03255900368094444,-1.0046234130859375,-0.04208320751786232,0.4178074300289154,-0.7373765707015991,31.287975311279297,-10.886527061462402,41.28116989135742,0
143,1430162,0.04382982850074768,0.08337891101837158,-0.9855151772499084,-0.6407353281974792,-0.3253593444824219,0.7571558356285095,28.627042770385742,-9.496931076049805,41.20274353027344,0
144,1440146,0.016949573531746864,0.031815722584724426,-0.9976637959480286,-0.3956908881664276,0.21984925866127014,-0.15399695932865143,30.066194534301758,-11.71218204498291,41.05155563354492,0
145,1450088,-0.01929589733481407,0.08116104453802109,-1.007544755935669,-0.8679676055908203,0.04482273384928703,0.2722181975841522,30.082347869873047,-9.385542869567871,40.2597541809082,0
146,1460050,-0.03756680339574814,-0.07301872968673706,-1.037239909172058,0.0991361141204834,-0.3154900074005127,0.7842479348182678,26.901046752929688,-9.172276496887207,41.09585189819336,0
147,1470254,-0.00015901097503956407,0.002811033744364977,-1.0308260917663574,0.4279186725616455,-0.44960129261016846,1.0460184812545776,30.728404998779297,-9.806201934814453,39.02430725097656,0
148,1479843,0.06338375061750412,-0.057949814945459366,-1.0142252445220947,-1.0349533557891846,-0.01029233355075121,0.22800667583942413,30.108121871948242,-11.871490478515625,40.003963470458984,0
149,1490021,-0.004638875834643841,-0.0816611647605896,-0.9919655919075012,0.6615415215492249,0.044700976461172104,-0.9513623118400574,29.631895065307617,-11.083908081054688,39.94695281982422,0
150,1499970,-0.04057005047798157,-0.024837229400873184,-1.0076900720596313,-0.376840740442276,-0.6026083827018738,-0.3866158723831177,32.779109954833984,-10.575018882751465,40.363651275634766,0
151,1510316,-0.013065921142697334,0.016406970098614693,-1.0127040147781372,0.33887219429016113,0.466144859790802,0.16377277672290802,30.859233856201172,-7.6987128257751465,41.202247619628906,0
152,1519989,-0.021966908127069473,-0.06311507523059845,-0.9899330139160156,0.33334508538246155,0.08158976584672928,1.1500797271728516,28.150775909423828,-10.916915893554688,40.33184051513672,0
153,1530133,0.025280874222517014,-0.08704165369272232,-1.008040189743042,0.24895530939102173,0.31170299649238586,0.5522375106811523,32.05497360229492,-9.841976165771484,41.31278991699219,0
154,1540073,-0.11141690611839294,0.008623907342553139,-1.0204997062683105,-0.043086856603622437,-0.42143747210502625,-0.40755027532577515,31.99671745300293,-11.782256126403809,39.47468566894531,0
155,1549917,-0.07090254873037338,0.00834589172154665,-1.0184199810028076,0.6492725014686584,-0.36812010407447815,-0.49442169070243835,30.182464599609375,-11.316568374633789,40.631107330322266,0
156,1559977,0.028140852227807045,0.01682272180914879,-1.0053529739379883,-0.15954750776290894,0.07520264387130737,0.2286987006664276,30.34367561340332,-8.354923248291016,40.02663040161133,0
157,1570123,0.08346554636955261,-0.07659315317869186,-0.9716441631317139,-0.2298353612422943,0.1716850996017456,0.28216689825057983,30.66670036315918,-10.173077583312988,40.5067024230957,0
158,1580160,-0.004733505193144083,-0.06385159492492676,-0.9693726897239685,0.5283767580986023,-0.6246602535247803,-0.13481014966964722,29.43636131286621,-9.993307113647461,40.73323059082031,0
159,1589924,-0.05672525614500046,0.062027569860219955,-1.0211185216903687,-0.19226016104221344,-0.3350048065185547,0.1749306470155716,29.590513229370117,-10.385335922241211,40.63909149169922,0
160,1600081,-0.044134486466646194,0.08164409548044205,-0.9737374186515808,0.12431987375020981,-0.09772271662950516,0.2798353433609009,30.110403060913086,-10.60102367401123,40.57096862792969,0
161,1609824,0.034432876855134964,0.0008626187336631119,-0.9981856346130371,0.44408708810806274,0.01787429489195347,0.22936946153640747,28.77414894104004,-9.936382293701172,42.08317184448242,0
162,1620100,0.06718297302722931,0.026612043380737305,-0.9622734189033508,0.21623960137367249,0.3476356565952301,0.4465697407722473,30.751161575317383,-10.628694534301758,38.45472717285156,0
163,1630009,0.04637318477034569,-0.016139229759573936,-1.0097122192382812,-0.019429484382271767,0.13517874479293823,0.14377886056900024,30.54706573486328,-9.306756973266602,40.07413864135742,0
164,1640265,-0.01885182410478592,-0.033071912825107574,-0.9672445058822632,-0.2973208725452423,0.8929796814918518,0.3781059682369232,28.72878074645996,-9.389472961425781,40.36880111694336,0
165,1649733,-0.058928802609443665,0.0194727573543787,-1.0055903196334839,0.8136058449745178,-1.0421897172927856,0.8277230858802795,29.788898468017578,-9.769757270812988,40.18208312988281,0
166,1659898,0.037256620824337006,-0.0742441862821579,-0.9705187678337097,-0.9877521991729736,-0.4046168923377991,0.42495080828666687,29.438650131225586,-9.349291801452637,39.06180191040039,0
167,1670171,0.05093539133667946,0.013110031373798847,-1.0089747905731201,-0.2571377754211426,0.04340394586324692,0.011207540519535542,31.180130004882812,-10.047708511352539,39.965904235839844,0
168,1680307,-0.00501498207449913,-0.039035242050886154,-1.0172079801559448,0.07777580618858337,-0.003639763919636607,0.30409473180770874,31.088882446289062,-11.56125259399414,41.32637023925781,0
169,1690100,-0.04060813784599304,0.05785813555121422,-1.004195213317871,0.22307856380939484,-0.12010374665260315,0.6643831133842468,30.519901275634766,-11.116838455200195,41.20441818237305,0
170,1699919,-0.11042402684688568,-0.04370369017124176,-1.0034213066101074,1.1844547986984253,0.24168291687965393,0.10576748847961426,29.827383041381836,-10.258427619934082,40.46942901611328,0
171,1710193,-0.009139517322182655,-0.01018192432820797,-0.9830835461616516,0.41570404171943665,0.6511842012405396,0.3093262016773224,29.629098892211914,-11.366726875305176,40.146751403808594,0
172,1720317,-0.0027451517526060343,0.026423489674925804,-0.995150089263916,0.6220606565475464,-0.11863528192043304,-0.02325485274195671,30.6462345123291,-9.317004203796387,38.60862350463867,0
173,1729984,-0.00421498715877533,0.0011384721146896482,-0.9758138656616211,-0.6452627778053284,-0.019039040431380272,0.27561840415000916,28.73181915283203,-9.225418090820312,40.188602447509766,0
174,1740063,0.04624001681804657,-0.05746905133128166,-0.9960567355155945,0.30475568771362305,-0.11133677512407303,-0.724019467830658,29.83600616455078,-11.539177894592285,39.706825256347656,0
175,1750280,-0.0069623044691979885,-0.009355801157653332,-0.9748982787132263,0.9876614809036255,-0.5511683225631714,-0.3268679082393646,29.898269653320312,-11.187661170959473,40.216163635253906,0
176,1759993,-0.007758310995995998,0.07229968905448914,-1.0130833387374878,-0.12042190134525299,0.5893450975418091,-0.3085634708404541,29.343446731567383,-10.565483093261719,41.5294075012207,0
177,1770107,-0.013843728229403496,-0.04629242792725563,-0.9808599948883057,-0.12319283932447433,0.11887203902006149,0.17126475274562836,32.684757232666016,-10.075183868408203,38.86394500732422,0
178,1779914,0.02082221768796444,0.022836748510599136,-0.9645937085151672,-0.16104522347450256,0.5840917229652405,0.839993953704834,28.42209243774414,-9.417784690856934,39.390464782714844,0
179,1789919,-0.05260036885738373,0.009046683087944984,-1.0152044296264648,-0.48232850432395935,0.12429959326982498,-0.16878564655780792,30.42273712158203,-9.714736938476562,37.88623046875,0
180,1799734,-0.04721172899007797,-0.014837662689387798,-1.0105223655700684,-0.21622952818870544,0.7338667511940002,-0.12489240616559982,29.581300735473633,-10.06609058380127,41.92824172973633,0
181,1809926,0.07066744565963745,0.003907839301973581,-0.9796978235244751,0.05144590139389038,-0.36496463418006897,0.11293606460094452,27.361351013183594,-8.136846542358398,40.015777587890625,0
182,1819889,-0.10850486904382706,0.011976598761975765,-0.9822813272476196,-0.6336054801940918,0.39708560705184937,0.29036951065063477,31.265756607055664,-11.531116485595703,38.312255859375,0
183,1829933,-0.013833964243531227,0.06292899698019028,-1.0263447761535645,-0.3742533028125763,0.33555400371551514,-0.6367442011833191,28.477689743041992,-12.042314529418945,37.9295768737793,0
184,1839928,-0.08474092185497284,0.03201305493712425,-1.003291130065918,0.32920563220977783,-0.375491201877594,0.5861897468566895,29.243623733520508,-11.127723693847656,40.58979415893555,0
185,1849806,0.027942446991801262,0.09584517776966095,-0.9494794607162476,0.05795751139521599,-0.3749743700027466,-0.1569397747516632,28.59438705444336,-9.909917831420898,39.07442092895508,0
186,1859816,-0.00830554123967886,-0.015063386410474777,-0.9764143228530884,0.4867709279060364,-0.03531099483370781,-0.32817143201828003,30.74883460998535,-11.504840850830078,40.36155700683594,0
187,1869947,0.009597751311957836,0.004651093389838934,-1.0407731533050537,-0.4987756013870239,-0.25219881534576416,-0.38778558373451233,29.564992904663086,-9.775485038757324,39.1905403137207,0
188,1880262,0.00596420606598258,-0.10277746617794037,-0.9667725563049316,-0.44741904735565186,-0.03825828805565834,-0.09261594712734222,28.665990829467773,-9.431200981140137,40.794403076171875,0
189,1890243,0.02862955816090107,0.007800922263413668,-0.9807906150817871,1.3034874200820923,-0.6681589484214783,-0.10083486139774323,31.10761260986328,-8.997725486755371,41.05367660522461,0
190,1900090,-0.020152250304818153,-0.06619603931903839,-1.0011987686157227,0.5413839221000671,0.542155921459198,0.24468185007572174,31.769502639770508,-8.950041770935059,39.74214553833008,0
191,1910179,-0.05395273119211197,0.004377192817628384,-1.0088629722595215,-0.4306415021419525,-0.22788862884044647,0.619538426399231,30.316713333129883,-9.855303764343262,38.65348434448242,0
192,1920019,-0.0716719925403595,0.06460682302713394,-1.0038129091262817,0.1466924250125885,0.28272202610969543,0.4596393406391144,29.280908584594727,-11.337413787841797,37.83563995361328,0
193,1930033,0.04556313529610634,-0.026743672788143158,-0.9823386669158936,0.1603405922651291,-0.45496469736099243,-0.272665411233902,28.981077194213867,-11.222585678100586,38.28736877441406,0
194,1939897,-0.019768407568335533,0.1436372697353363,-1.0285392999649048,-0.8605433702468872,0.0838751494884491,1.0373648405075073,30.02165985107422,-10.592220306396484,39.626502990722656,0
195,1949777,-0.021913936361670494,0.00849468819797039,-0.9826326370239258,-0.7071580290794373,-0.325490802526474,0.33152902126312256,31.630657196044922,-11.099282264709473,40.38119125366211,0
196,1959562,-0.029588449746370316,0.008803363889455795,-0.9847151637077332,-0.32708555459976196,-0.3201044499874115,-0.7468443512916565,30.280107498168945,-9.425568580627441,39.74117660522461,0
197,1970170,0.003847745480015874,0.01253707055002451,-1.002841591835022,-1.1035783290863037,-0.7634764909744263,-0.3265824317932129,30.369752883911133,-9.443943977355957,39.58134841918945,0
198,1980034,-0.014112023636698723,0.037907328456640244,-0.9752755165100098,0.7707592844963074,0.7879645824432373,-0.21459490060806274,29.932899475097656,-10.527368545532227,39.89521026611328,0
199,1990282,-0.007231497671455145,-0.04097530245780945,-1.0038985013961792,0.4863578975200653,-0.8940584659576416,-0.10202829539775848,30.708078384399414,-10.897916793823242,39.643211364746094,0
200,1999845,0.04166511073708534,0.034636035561561584,-0.9693948030471802,1.1796809434890747,-0.6221423745155334,0.5684105753898621,30.800567626953125,-8.520766258239746,40.459041595458984,0
201,2010066,0.10677998512983322,0.10806287825107574,-1.0209174156188965,0.42842432856559753,0.6453253030776978,1.1198152303695679,30.2734432220459,-9.544402122497559,39.37915802001953,0
202,2020001,0.025634795427322388,0.05413532629609108,-0.995847225189209,0.23138412833213806,0.2885363698005676,-0.5880076885223389,31.350862503051758,-9.093207359313965,40.98374557495117,0
203,2029906,-0.02802475541830063,0.034468088299036026,-0.9818140268325806,0.3944142758846283,0.8300411105155945,0.059747710824012756,30.80360221862793,-9.350946426391602,40.18353271484375,0
204,2039890,-0.022043395787477493,0.05565311759710312,-1.0310786962509155,0.5756353139877319,0.11833959817886353,-0.003093695966526866,30.126262664794922,-9.308265686035156,42.20761489868164,0
205,2049989,0.0512043796479702,-0.010682267136871815,-0.9868693351745605,-0.5454845428466797,0.1274881511926651,0.27579569816589355,31.046613693237305,-8.229272842407227,40.27210998535156,0
206,2060117,-0.029866885393857956,0.004269033204764128,-1.0242971181869507,0.19549523293972015,-0.2699459493160248,0.3236728310585022,30.93500328063965,-8.577116012573242,38.17829513549805,0
207,2070061,-0.019406748935580254,0.05123305320739746,-1.011667251586914,-0.09136471897363663,-0.38826456665992737,0.48894765973091125,29.407573699951172,-11.215537071228027,38.5684814453125,0
208,2079896,-0.0015438803238794208,0.0085535179823637,-0.9987468123435974,-0.14862129092216492,-0.7157232761383057,-0.1905508190393448,29.920650482177734,-8.6661376953125,39.69034957885742,0
209,2090083,-0.13175863027572632,0.027064602822065353,-0.9652315974235535,0.5110766887664795,0.39089715480804443,-0.6036028861999512,30.075496673583984,-11.009397506713867,41.3632926940918,0
210,2100115,0.02262342907488346,-0.02352357842028141,-1.0280674695968628,0.3111470937728882,0.047349799424409866,0.572856068611145,29.48802375793457,-9.491318702697754,40.28315734863281,0
211,2109706,-0.01743193529546261,-0.009844087064266205,-1.017642617225647,0.4139053523540497,0.8188478946685791,0.44150567054748535,31.01878547668457,-11.664081573486328,37.82052230834961,0
212,2120134,0.027802951633930206,-0.005078074987977743,-1.0093684196472168,-0.13495397567749023,0.362185537815094,0.5893054604530334,28.558921813964844,-11.134586334228516,39.906673431396484,0
213,2130004,-0.011149938218295574,0.04846498742699623,-1.028898000717163,-0.03760230541229248,0.23193946480751038,0.19370968639850616,29.73776626586914,-10.325133323669434,39.49580383300781,0
214,2139951,-0.03391999751329422,-0.03003905899822712,-0.9810044169425964,-0.6138190031051636,0.16882115602493286,-0.34069278836250305,29.527482986450195,-9.170124053955078,41.11138916015625,0
215,2150072,0.08842074871063232,-0.030487604439258575,-0.9796461462974548,0.06740658730268478,0.7496565580368042,0.5164018869400024,30.250837326049805,-11.038068771362305,40.2840690612793,0
216,2160222,-0.08184822648763657,0.000781733077019453,-1.0159242153167725,0.128093421459198,0.5421871542930603,0.399948388338089,30.404680252075195,-10.240104675292969,39.97376251220703,0
217,2170013,0.054988279938697815,0.006533663719892502,-0.977289080619812,-0.3163457214832306,-0.3521982431411743,-0.07116618007421494,30.221351623535156,-8.034439086914062,40.50231170654297,0
218,2180119,0.05752833932638168,-0.06515444070100784,-0.9953867197036743,0.01994665525853634,-0.34024128317832947,-0.4316589832305908,30.271602630615234,-10.300882339477539,39.9408073425293,0
219,2189962,-0.029287762939929962,0.0028220312669873238,-1.0067012310028076,-0.07578811049461365,-0.10243543982505798,0.5878080129623413,30.642454147338867,-10.774398803710938,39.28837585449219,0
220,2200040,-0.004190042614936829,-0.003949156496673822,-1.0108907222747803,0.3981596827507019,0.12218885123729706,0.014704560860991478,29.029874801635742,-8.641668319702148,40.02652359008789,0
221,2209868,0.04581216350197792,0.08925772458314896,-1.0142368078231812,-0.6772096753120422,0.18083348870277405,-0.5917861461639404,30.880516052246094,-10.510172843933105,38.04106903076172,0
222,2219856,-0.02086496911942959,-0.004076825920492411,-0.9813311100006104,0.3772689700126648,0.8586917519569397,0.6464483737945557,29.515047073364258,-10.37073040008545,39.550567626953125,0
223,2230083,0.052734408527612686,-0.03644915297627449,-0.9935017228126526,0.596063494682312,1.102553367614746,-1.3149648904800415,30.369935989379883,-11.445051193237305,39.795082092285156,0
224,2239882,0.012598348781466484,0.004428510554134846,-1.002314567565918,-0.10838664323091507,-0.34442782402038574,-0.04380885139107704,32.605533599853516,-10.529050827026367,40.51621627807617,0
225,2250055,-0.03272649273276329,-0.06816096603870392,-1.0106372833251953,0.3911261558532715,-0.41114431619644165,0.1333364099264145,27.954612731933594,-10.386693000793457,41.255088806152344,0
226,2259780,-0.01956643909215927,0.04883071407675743,-1.032202959060669,0.6616654992103577,0.281981885433197,-0.8244422078132629,30.269357681274414,-11.658503532409668,39.14409637451172,0
227,2270014,-0.015999916940927505,-0.009159675799310207,-1.0195963382720947,0.5319144129753113,0.2932874262332916,0.10919274389743805,30.386560440063477,-10.970986366271973,40.110191345214844,0
228,2280176,-0.06246116757392883,0.028300894424319267,-0.9769144654273987,-0.3133111894130707,-0.781215250492096,-0.23742422461509705,31.332151412963867,-11.48110294342041,38.972599029541016,0
229,2289947,-0.007909801788628101,-0.05226893350481987,-0.9891819953918457,0.4864206314086914,-0.4302680790424347,0.2049327939748764,30.045501708984375,-9.276824951171875,38.63372802734375,0
230,2299675,0.041284892708063126,0.004950979258865118,-1.0011303424835205,-0.11283441632986069,-0.8695769906044006,0.03530959412455559,30.979351043701172,-10.576225280761719,40.267417907714844,0
231,2309861,-0.05031754449009895,-0.06735498458147049,-0.9604145288467407,0.27815163135528564,-0.5951842665672302,0.16557753086090088,30.780845642089844,-10.155216217041016,38.39413070678711,0
232,2320137,-0.011023555882275105,-0.1816989928483963,-0.9829762578010559,0.10322729498147964,0.37812554836273193,0.1874963939189911,30.936622619628906,-9.992170333862305,39.951419830322266,0
233,2329715,0.014528591185808182,-0.008138176053762436,-0.9991973638534546,-0.1348446160554886,0.06216416135430336,0.5958881974220276,29.67711639404297,-10.730887413024902,40.23978805541992,0
234,2339771,-0.01655084826052189,0.013416965492069721,-1.0059003829956055,0.17513614892959595,-0.39807650446891785,0.15747129917144775,30.207244873046875,-9.927242279052734,40.25877380371094,0
235,2350111,0.047470636665821075,0.015208720229566097,-0.9863510131835938,-0.7591744661331177,0.05883469805121422,-0.6993557810783386,32.56138229370117,-9.906829833984375,38.76657485961914,0
236,2359941,0.0010045655071735382,0.054565392434597015,-1.0017837285995483,0.4415258765220642,-0.8520767092704773,0.748661458492279,30.97078514099121,-9.306105613708496,42.605072021484375,0
237,2369872,0.08235548436641693,-0.025743667036294937,-1.0077919960021973,0.37217241525650024,-0.009155443869531155,-0.6760283708572388,29.55914306640625,-9.63352108001709,39.220062255859375,0
238,2379828,0.010263532400131226,-0.027726197615265846,-1.0114136934280396,1.259137749671936,-0.39526277780532837,0.7291163802146912,28.923152923583984,-9.491328239440918,38.513671875,0
239,2389914,0.01815369911491871,0.07393524795770645,-0.9836838841438293,-0.2976495325565338,-0.22721363604068756,-0.1631103903055191,30.11072540283203,-8.22571086883545,38.716094970703125,0
240,2400032,0.025204850360751152,-0.023564446717500687,-0.9670079946517944,-0.23430459201335907,-1.5233855247497559,-0.0830446258187294,29.00953483581543,-10.295148849487305,41.43810272216797,0
241,2410185,0.06635753810405731,0.1401924043893814,-0.9850671291351318,0.3000294864177704,0.423679918050766,0.4666553735733032,28.855792999267578,-10.223694801330566,39.8619384765625,0
242,2420183,0.009691250510513783,-0.060943566262722015,-0.98311448097229,0.8220322132110596,0.15899252891540527,0.5368568897247314,28.442541122436523,-8.781150817871094,39.68218994140625,0
243,2430073,-0.006398635916411877,0.11326886713504791,-0.9668059945106506,-0.7640611529350281,0.14844375848770142,-0.5697769522666931,30.670570373535156,-10.209362030029297,39.21756362915039,0
244,2440000,-0.0173615925014019,0.01997222937643528,-1.0539686679840088,0.6505075693130493,0.6099143624305725,-0.03262234106659889,30.339143753051758,-10.40746784210205,41.01151657104492,0
245,2449906,0.06896138191223145,0.029637040570378304,-1.0034980773925781,0.4784053564071655,-0.17520371079444885,-0.29078638553619385,29.4778995513916,-10.747308731079102,41.54985809326172,0
246,2459954,0.05914561450481415,0.020072564482688904,-0.9931411147117615,0.09907608479261398,0.35717150568962097,-1.2418644428253174,29.845312118530273,-11.214317321777344,37.19340133666992,0
247,2470109,0.04230585694313049,-0.0421428345143795,-1.03203547000885,-0.5171062350273132,-0.6851458549499512,-0.49907010793685913,29.82649803161621,-9.963294982910156,42.18247985839844,0
248,2480049,-0.013433181680738926,0.017801765352487564,-0.9842838048934937,-0.15796516835689545,0.12305586040019989,-0.20000843703746796,31.948394775390625,-12.282158851623535,38.942649841308594,0
249,2490156,0.027693867683410645,-0.021574964746832848,-0.9598324298858643,0.2847963869571686,-0.2553667426109314,-0.34971320629119873,29.542978286743164,-9.288566589355469,41.30311584472656,0
250,2500010,-0.006078800652176142,0.01270118448883295,-1.0430076122283936,0.13674300909042358,0.3851255476474762,-0.4787166714668274,30.14070701599121,-8.8096284866333,39.923187255859375,0
251,2510010,-0.02345297485589981,-0.0008942186250351369,-0.9965969920158386,0.6518488526344299,0.7063960433006287,-0.20475320518016815,31.629056930541992,-10.883338928222656,38.388694763183594,0
252,2519677,-0.03101007640361786,0.06233356148004532,-0.9604626893997192,-0.26336947083473206,-0.24497070908546448,-0.3867245614528656,28.022302627563477,-9.635479927062988,39.437538146972656,0
253,2529877,-0.02799508348107338,-0.012863187119364738,-0.9815301895141602,0.4306813180446625,-0.04054296761751175,-0.5706959962844849,28.743589401245117,-9.699586868286133,40.12131881713867,0
254,2540012,-0.034744925796985626,-0.08469071239233017,-1.026753544807434,0.6192695498466492,0.031431280076503754,-0.300596684217453,29.134889602661133,-9.215117454528809,40.649818420410156,0
255,2549896,-0.02993575856089592,0.04347255453467369,-0.9889194965362549,-0.1736014485359192,0.3300477862358093,0.6055806279182434,29.134340286254883,-10.433309555053711,41.349037170410156,0
256,2559383,0.07160478085279465,-0.05325229465961456,-0.997299313545227,-0.6573138236999512,-0.3287510275840759,0.6812212467193604,28.98558807373047,-11.141921997070312,40.50076675415039,0
257,2570282,0.09271379560232162,-0.06120269373059273,-0.99966961145401,-0.5171964168548584,-0.424848735332489,-0.17980360984802246,32.30790710449219,-10.112699508666992,41.0626335144043,0
258,2580180,-0.04661165550351143,0.07738921791315079,-0.9801290035247803,-0.49088114500045776,0.02023893967270851,0.39816170930862427,29.40574073791504,-11.258021354675293,40.959228515625,0
259,2589865,0.020254261791706085,0.08257414400577545,-0.9919196367263794,-0.5440105199813843,0.7389537692070007,0.1684417575597763,30.999120712280273,-11.775230407714844,40.02906036376953,0
260,2600106,-0.051559437066316605,0.003662313800305128,-1.007097601890564,-0.26868176460266113,0.05084554851055145,0.15027950704097748,30.006969451904297,-8.956438064575195,39.22407150268555,0
261,2610004,-0.026782410219311714,-0.07781320810317993,-1.0203334093093872,-0.3155759572982788,0.19462960958480835,0.6658254265785217,31.0566463470459,-10.314814567565918,38.50294494628906,0
262,2619841,0.03301220387220383,0.04871346428990364,-1.0196409225463867,-0.8322246074676514,-0.07363840192556381,-0.28093191981315613,29.419204711914062,-10.951066970825195,39.78089141845703,0
263,2629790,-0.03940494731068611,0.05778536945581436,-0.9821605682373047,0.146691232919693,-0.0976264625787735,-1.7722692489624023,29.295642852783203,-9.22494888305664,39.11521530151367,0
264,2640047,-0.059235911816358566,0.017781855538487434,-0.9668793082237244,-0.4200423061847687,-0.383380651473999,-0.2293589860200882,28.973989486694336,-9.061418533325195,41.39079284667969,0
265,2650039,-0.03887290880084038,0.043364014476537704,-0.9879752397537231,0.06293448060750961,0.41953736543655396,0.4219759404659271,30.041854858398438,-10.278546333312988,39.2444953918457,0
266,2660018,-0.006112891249358654,-0.03342952951788902,-0.98504638671875,-0.2944689095020294,0.08842382580041885,-0.3950287401676178,30.690839767456055,-9.743138313293457,39.63230514526367,0
267,2670294,0.12329497933387756,0.030993206426501274,-0.9807296395301819,-0.9294681549072266,-0.6501019597053528,-0.4551042914390564,30.46796226501465,-11.394872665405273,41.32080841064453,0
268,2680077,-0.07082691788673401,-0.014966144226491451,-1.0146151781082153,0.5754421353340149,-0.6001392602920532,0.5428757071495056,30.404104232788086,-12.064764976501465,40.99444580078125,0
269,2689782,0.08960631489753723,-0.03351891413331032,-0.979146420955658,-0.1491713970899582,0.023203115910291672,0.9288804531097412,31.453269958496094,-9.859103202819824,40.03480529785156,0
270,2700234,0.01707950234413147,0.01508972980082035,-0.9838133454322815,0.31753551959991455,0.1673724204301834,-1.0332319736480713,29.54431915283203,-9.380547523498535,39.66019058227539,0
271,2710055,0.07273903489112854,0.08480212092399597,-0.999431848526001,0.6044511795043945,-0.07381763309240341,-0.4849240779876709,30.444089889526367,-11.776765823364258,41.99559783935547,0
272,2719985,0.06398099660873413,-0.0819581001996994,-1.016303300857544,-0.30723440647125244,0.16757123172283173,0.13742206990718842,29.287878036499023,-10.771060943603516,40.87810516357422,0
273,2729923,0.009324368089437485,-0.008721343241631985,-0.9975067973136902,0.17173521220684052,-0.3605554401874542,0.12393827736377716,31.096553802490234,-9.919098854064941,38.95896530151367,0
274,2739893,0.03231906518340111,-0.05019714683294296,-0.982204020023346,0.7033912539482117,0.6938886642456055,0.3929360508918762,29.413267135620117,-11.555392265319824,40.94087600708008,0
275,2750001,-0.018105724826455116,0.02977333590388298,-0.990445077419281,0.42101502418518066,-0.7275893688201904,-0.38871651887893677,29.51088523864746,-10.473559379577637,40.51865768432617,0
276,2759740,0.003238543402403593,0.10448101162910461,-1.0109152793884277,-0.04214505851268768,0.5722647309303284,0.1638028472661972,30.560155868530273,-9.961288452148438,41.10113525390625,0
277,2769746,0.01673774980008602,0.05047159641981125,-0.9997183680534363,0.6153610944747925,0.3981594443321228,0.28182172775268555,30.164039611816406,-8.190136909484863,40.019229888916016,0
278,2780143,-0.08207876235246658,-0.0767325684428215,-1.0109649896621704,-0.14446474611759186,0.26162591576576233,-0.10658178478479385,29.454416275024414,-10.679777145385742,41.1323356628418,0
279,2790280,-0.017440393567085266,0.027282774448394775,-1.0136730670928955,-0.03770965710282326,0.5982455611228943,0.27157849073410034,30.74138069152832,-10.277459144592285,39.88347244262695,0
280,2800290,-0.07010015100240707,0.015395577065646648,-1.006093144416809,0.046554166823625565,-0.1979469507932663,0.37303245067596436,29.55205726623535,-9.147687911987305,41.51836395263672,0
281,2809848,-0.0614691823720932,0.03748165816068649,-0.9933103322982788,0.4211953282356262,0.019447823986411095,-0.1671140193939209,29.026611328125,-10.174470901489258,38.524898529052734,0
282,2819858,0.004481934476643801,-0.042256277054548264,-0.9877420663833618,-0.6362987756729126,0.05368775501847267,0.0244696494191885,30.80531120300293,-10.629801750183105,38.117191314697266,0
283,2830342,-0.0385998971760273,-0.029283294454216957,-0.9920160174369812,0.008308449760079384,1.2480441331863403,0.9037267565727234,30.968826293945312,-10.187450408935547,39.184635162353516,0
284,2839877,-0.1339942365884781,-0.02851269021630287,-0.9914988279342651,0.4784866273403168,0.19887986779212952,-0.5858239531517029,29.742572784423828,-9.580101013183594,39.01060104370117,0
285,2850046,-0.021416587755084038,0.09496414661407471,-0.9763143658638,0.6839245557785034,0.011230492033064365,-0.8523232340812683,29.307071685791016,-11.448476791381836,41.09754943847656,0
286,2859751,-0.02974650077521801,0.09999644756317139,-0.9898810386657715,0.07977619767189026,-0.14382699131965637,0.16904214024543762,28.700904846191406,-8.82483959197998,38.583717346191406,0
287,2870182,0.1017228364944458,-0.024173444136977196,-1.0118833780288696,0.1550154983997345,0.012177071534097195,-0.45716357231140137,28.193822860717773,-10.124761581420898,39.574974060058594,0
288,2880319,-0.05620299652218819,-0.038800984621047974,-0.9908583164215088,0.28567010164260864,0.21942992508411407,-0.5002472400665283,30.924365997314453,-8.843768119812012,39.40874099731445,0
289,2889867,0.029953565448522568,0.08269493281841278,-0.9854384064674377,-0.2177584022283554,0.1608325093984604,0.11180870234966278,30.082378387451172,-10.56979751586914,38.5416259765625,0
290,2900117,-0.045752741396427155,0.0315648578107357,-0.991382896900177,0.25637632608413696,0.7234510779380798,-0.05429370701313019,29.549745559692383,-10.424500465393066,38.87135696411133,0
291,2910006,0.04378655180335045,0.07501574605703354,-1.028439998626709,-0.23401246964931488,-0.8868348002433777,0.546488881111145,31.32318687438965,-10.00156307220459,39.578208923339844,0
292,2919953,0.050847116857767105,-0.05466796085238457,-0.987656831741333,0.01773165725171566,-0.6138785481452942,0.10299034416675568,30.54313850402832,-9.742904663085938,39.85922622680664,0
293,2930160,-0.0524226613342762,0.0006427961052395403,-0.9839289784431458,1.4484353065490723,0.06949958205223083,-0.36186686158180237,29.79113006591797,-10.956911087036133,39.90568923950195,0
294,2939942,-0.018176481127738953,-0.040324755012989044,-0.9926109313964844,-1.113356590270996,-0.8175033926963806,-0.03565018251538277,29.114910125732422,-10.98720932006836,39.80117416381836,0
295,2949911,-0.021209435537457466,-0.019480422139167786,-0.986652135848999,-0.018664753064513206,0.11915845423936844,-0.22191070020198822,29.601903915405273,-11.767318725585938,39.555171966552734,0
296,2960027,0.005608411505818367,0.06641510128974915,-0.9855542778968811,-0.3285734951496124,-0.34760797023773193,-0.23745302855968475,30.14786148071289,-10.718145370483398,40.47879409790039,0
297,2970231,-0.005253925919532776,-0.1225118562579155,-0.9905487298965454,1.2381404638290405,-0.06792076677083969,0.2885262966156006,29.184545516967773,-9.537079811096191,39.9357795715332,0
298,2980060,0.022561660036444664,0.01626536063849926,-1.0080393552780151,0.21976567804813385,0.3035339117050171,0.16952043771743774,30.269882202148438,-10.492653846740723,39.91611099243164,0
299,2989938,-0.08482137322425842,-0.0051474301144480705,-0.9871824979782104,0.404464989900589,0.7757219076156616,-0.4683300852775574,29.33133316040039,-9.306440353393555,41.39320373535156,0
300,3000125,-0.08497454971075058,-0.014889935962855816,-1.0078402757644653,0.3911333680152893,0.48221254348754883,1.1957616806030273,29.20440673828125,-8.403155326843262,41.010894775390625,0
301,3009948,0.03615118935704231,-0.04312499612569809,-1.0311238765716553,0.3152599036693573,0.038460616022348404,-0.013275072909891605,30.537355422973633,-9.072636604309082,40.85698699951172,0
302,3020027,0.055724408477544785,0.0342305526137352,-0.9865334033966064,-0.10494373738765717,0.4041222929954529,-0.05020295828580856,30.813194274902344,-9.754785537719727,39.10371017456055,0
303,3029998,0.07140287011861801,0.028991729021072388,-0.9985330700874329,-0.3337956964969635,0.4035636782646179,-0.3731808066368103,30.880483627319336,-9.830459594726562,40.522579193115234,0
304,3040018,0.013300043530762196,0.014406376518309116,-1.0049117803573608,0.2748558223247528,-0.31555071473121643,-0.3761570453643799,29.80207061767578,-9.38527774810791,40.04607391357422,0
305,3049936,-0.06563195586204529,-0.028338531032204628,-0.9877386093139648,-0.9364984631538391,0.21570052206516266,-0.7706200480461121,29.86280059814453,-9.676563262939453,40.77153015136719,0
306,3060215,0.026470381766557693,0.021726008504629135,-1.0112462043762207,0.20443949103355408,0.5712920427322388,-0.3238009810447693,30.27172088623047,-10.229334831237793,40.41238021850586,0
307,3069834,-0.010357148945331573,0.0030503172893077135,-1.024097204208374,0.13500763475894928,-0.5569679141044617,-0.7204319834709167,30.33837890625,-10.131027221679688,41.977989196777344,0
308,3080018,0.031049935147166252,0.010603483766317368,-1.0003539323806763,0.12358971685171127,-0.3944362699985504,0.1068664938211441,30.511754989624023,-10.628252029418945,38.551883697509766,0
309,3089962,0.037107400596141815,0.07028529793024063,-0.99501633644104,0.4839286804199219,0.5784852504730225,0.08488459885120392,29.5930233001709,-8.936137199401855,40.03665542602539,0
310,3100224,-0.028800517320632935,0.04283619299530983,-1.0144637823104858,0.04360213503241539,0.16013486683368683,-0.6269400715827942,29.456787109375,-10.307201385498047,38.420650482177734,0
311,3109804,0.0345841608941555,-0.032065216451883316,-1.0049830675125122,-0.15349434316158295,-0.3850049674510956,0.58570396900177,27.608057022094727,-9.07812786102295,39.80146026611328,0
312,3119841,0.02934323064982891,0.033298563212156296,-1.001219391822815,-0.6348341703414917,0.1804032027721405,-0.2626189887523651,29.925939559936523,-7.647190570831299,40.778480529785156,0
313,3129966,0.05249281972646713,0.01952478475868702,-0.9931589365005493,0.616060197353363,0.27091118693351746,0.4526984989643097,29.128013610839844,-10.1118803024292,38.465087890625,0
314,3140188,-0.0479121096432209,0.0019564873073250055,-1.0065383911132812,0.18073612451553345,0.56675785779953,-0.4171751141548157,30.225296020507812,-9.41871452331543,41.10816955566406,0
315,3149953,0.0023505270946770906,-0.062771275639534,-0.9950021505355835,0.9921296238899231,0.5914615988731384,0.32744133472442627,29.386043548583984,-9.187722206115723,40.906898498535156,0
316,3160161,0.10704571008682251,0.04120195657014847,-0.9787240624427795,-0.1559893786907196,0.1495136022567749,0.0735967829823494,29.1284122467041,-9.363432884216309,40.87434768676758,0
317,3170049,-0.01970737613737583,0.017551416531205177,-0.9800173044204712,-0.1338057667016983,-0.5993638634681702,0.5036764144897461,31.34473419189453,-8.667547225952148,40.14022445678711,0
318,3180104,-0.007494218647480011,-0.010706831701099873,-0.9925864934921265,0.30637699365615845,-0.1781783401966095,-0.34710124135017395,31.698667526245117,-11.700304985046387,38.26997756958008,0
319,3189659,-0.03466501832008362,-0.051217835396528244,-0.9754800200462341,-0.6641764640808105,0.2269420325756073,-1.1218335628509521,28.55637550354004,-9.16141414642334,39.42671203613281,0
320,3200090,0.02974146604537964,-0.04742013290524483,-0.9860331416130066,-0.5304068326950073,0.15268999338150024,-0.5119540691375732,28.851991653442383,-10.50805377960205,39.56358337402344,0
321,3210075,0.006580583285540342,0.042682942003011703,-1.0006542205810547,0.1485973298549652,-0.259981244802475,0.8421028852462769,32.83986282348633,-10.015727996826172,42.660648345947266,0
322,3219922,-0.042486522346735,-0.0482875220477581,-1.0175989866256714,-0.21075750887393951,-0.16495248675346375,0.9605043530464172,29.33540153503418,-12.172211647033691,40.47545623779297,0
323,3229910,0.035589542239904404,0.040021128952503204,-1.0038552284240723,-0.35083839297294617,-0.15107256174087524,0.9091283679008484,30.27349281311035,-9.328203201293945,39.28362274169922,0
324,3240163,0.11274237930774689,0.019168967381119728,-0.9897745847702026,-0.24132198095321655,0.1301192045211792,-0.1069471687078476,30.13494300842285,-8.910643577575684,40.99416732788086,0
325,3250293,0.1056053563952446,-0.03089093789458275,-1.0080759525299072,-0.09046202898025513,0.025311367586255074,-0.1580023616552353,30.636959075927734,-9.555974960327148,39.86016845703125,0
326,3259929,0.026824597269296646,-0.001299598254263401,-0.991714596748352,-0.1100250631570816,-0.17219243943691254,0.34833869338035583,29.86709976196289,-11.739953994750977,39.200836181640625,0
327,3269932,0.020274681970477104,0.07097439467906952,-0.990360677242279,0.0957890972495079,0.2702353298664093,-0.021652929484844208,29.44359016418457,-9.97911262512207,39.15602111816406,0
328,3280238,0.08372136205434799,0.015413708984851837,-1.0257591009140015,-0.011657983995974064,-0.4393785297870636,-0.6858611106872559,30.05442237854004,-9.24342155456543,40.29487228393555,0
329,3289992,0.04144665226340294,0.0757819190621376,-1.0099678039550781,-0.5536834001541138,-0.19510094821453094,-0.23782823979854584,30.546127319335938,-9.661527633666992,39.363040924072266,0
330,3300121,-0.034798767417669296,-0.09767161309719086,-0.992372989654541,0.3579126298427582,0.16781814396381378,-0.43046891689300537,30.453880310058594,-6.862721920013428,39.481689453125,0
331,3310068,-0.052004046738147736,0.005427333991974592,-1.0042939186096191,-1.4439221620559692,-0.1587459295988083,-0.0521734356880188,29.405471801757812,-10.220945358276367,39.551273345947266,0
332,3319923,-0.017202600836753845,0.11689312756061554,-0.9698681235313416,0.5834396481513977,-0.38138675689697266,0.3488335609436035,28.718690872192383,-10.28842544555664,40.629493713378906,0
333,3329823,-0.040614161640405655,-0.10135221481323242,-0.9905272126197815,0.5050837397575378,0.30753690004348755,1.2325758934020996,29.332216262817383,-9.624106407165527,40.674137115478516,0
334,3340024,0.015398719348013401,-0.0069493637420237064,-0.9843405485153198,0.25721511244773865,0.12402824312448502,0.1714520901441574,29.936817169189453,-10.190460205078125,40.22142028808594,0
335,3350072,0.03352154418826103,0.021642420440912247,-1.0109175443649292,0.8455840349197388,0.23388883471488953,0.256632924079895,28.888229370117188,-8.915125846862793,39.810665130615234,0
336,3359816,0.04105444997549057,0.015092089772224426,-0.9692591428756714,0.09804702550172806,-0.7563564777374268,-0.14209580421447754,31.36505889892578,-10.749374389648438,40.30583572387695,0
337,3370135,-0.0037650770973414183,0.03407454118132591,-1.0072383880615234,-0.1054292693734169,0.04534273222088814,0.19975945353507996,29.446163177490234,-10.800410270690918,39.02985382080078,0
338,3380186,-0.07445552945137024,-0.08324142545461655,-1.0039358139038086,0.4918668270111084,-0.37780967354774475,0.7278673052787781,31.854188919067383,-10.071307182312012,40.592411041259766,0
339,3390039,-0.009870202280580997,-0.09427066147327423,-1.0137208700180054,-0.7658197283744812,0.8344454169273376,-0.23649883270263672,30.420074462890625,-9.934252738952637,42.0715217590332,0
340,3400052,0.09906751662492752,0.0625789538025856,-0.9980954527854919,-0.9817649126052856,-0.3956628739833832,-0.7042772173881531,30.311553955078125,-9.775928497314453,38.290061950683594,0
341,3409826,0.011315779760479927,0.043481480330228806,-1.011832594871521,-0.4971269369125366,-0.04256974905729294,0.6388823390007019,30.578901290893555,-11.523581504821777,39.2030029296875,0
342,3420101,0.012710069306194782,-0.006793506909161806,-1.0412602424621582,0.5157405138015747,-0.26020359992980957,-0.07284451276063919,30.084657669067383,-10.053242683410645,40.0672607421875,0
343,3430283,0.03139825165271759,-0.04993077740073204,-1.010804295539856,0.2640937864780426,-0.1207909882068634,0.7160040140151978,29.533334732055664,-8.854986190795898,40.77753448486328,0
344,3440308,-0.021426325663924217,-0.0804295465350151,-1.020132064819336,0.27904650568962097,0.27748942375183105,-0.10487613826990128,31.082685470581055,-10.38349437713623,40.08489990234375,0
345,3450177,0.00890906061977148,0.05451229587197304,-0.9905089139938354,-0.05231107026338577,0.3175387382507324,0.4170457720756531,30.636001586914062,-9.377891540527344,37.99177169799805,0
346,3460056,-0.021283503621816635,0.02839677222073078,-0.9840278029441833,0.5455962419509888,-0.08056724071502686,-0.6302422285079956,29.93075942993164,-9.96957778930664,41.406517028808594,0
347,3469976,-0.04209143668413162,-0.026900989934802055,-0.9990196824073792,0.24907036125659943,-0.710301399230957,-0.316604882478714,30.415189743041992,-10.162588119506836,38.971683502197266,0
348,3480179,-0.040429022163152695,-0.003866774495691061,-1.0286904573440552,0.398383229970932,0.08426902443170547,0.11843829602003098,29.876407623291016,-9.939332008361816,40.386573791503906,0
349,3489947,-0.007486396003514528,-0.03435235098004341,-0.9938446283340454,-0.7506211996078491,0.26696863770484924,0.14461348950862885,29.379491806030273,-8.08491325378418,41.481712341308594,0
350,3499831,0.001238023629412055,0.07710015028715134,-0.986258327960968,-0.1889457255601883,0.45762377977371216,0.9937980771064758,30.707195281982422,-11.137735366821289,41.225894927978516,0
351,3510201,0.034294310957193375,-0.07635308802127838,-1.031326413154602,0.3529503345489502,0.10454270988702774,-1.5533472299575806,28.509464263916016,-8.126791954040527,40.32086944580078,0
352,3520007,-0.01880844496190548,-0.07067658752202988,-1.004329800605774,-0.8030356764793396,0.3004606068134308,-0.3498089909553528,29.376388549804688,-9.934590339660645,39.3883171081543,0
353,3529985,0.013091851957142353,0.0003783163847401738,-0.9991414546966553,-0.04435967281460762,-0.4466281831264496,0.18749485909938812,31.250003814697266,-11.353489875793457,41.176788330078125,0
354,3539962,-0.026055485010147095,0.00810211431235075,-0.997229814529419,1.0786278247833252,-1.389914870262146,-0.018710296601057053,30.604427337646484,-10.798230171203613,40.462852478027344,0
355,3549962,-0.008476661518216133,-0.03228383883833885,-1.0101381540298462,0.4079170227050781,0.6952105164527893,0.8639217019081116,28.57921028137207,-10.041545867919922,39.45326232910156,0
356,3559960,-0.050858572125434875,0.14014074206352234,-1.0122108459472656,-0.24546173214912415,-0.28193217515945435,-0.3869924545288086,30.83461570739746,-9.744217872619629,40.054378509521484,0
357,3569900,-0.0751982182264328,0.02378370799124241,-1.0539463758468628,0.1707674115896225,0.962354302406311,-0.054847702383995056,28.652618408203125,-11.326953887939453,40.14273452758789,0
358,3579833,0.0810638889670372,-0.046385884284973145,-0.9669634103775024,-0.27953094244003296,-0.7030447125434875,-0.5302778482437134,30.80170440673828,-7.4671630859375,39.68999481201172,0
359,3590149,-0.03506573289632797,0.013385745696723461,-1.0032895803451538,-0.3518775403499603,0.4195910692214966,-0.33946824073791504,30.684001922607422,-9.694581031799316,39.764984130859375,0
360,3599895,-0.048041943460702896,0.03538918495178223,-1.0177291631698608,-0.813459575176239,0.1922326683998108,0.06543934345245361,29.748619079589844,-8.316169738769531,39.762596130371094,0
361,3609856,0.04225312918424606,0.03433495759963989,-0.978076159954071,0.11239716410636902,-0.08104217797517776,0.005074146669358015,30.13809585571289,-10.324225425720215,38.98501205444336,0
362,3619852,-0.02833513543009758,-0.013533541932702065,-1.0607507228851318,0.6945827603340149,0.11526670306921005,0.45535123348236084,28.961181640625,-11.22614860534668,40.47787857055664,0
363,3629874,-0.033751919865608215,-0.023039035499095917,-0.9776812791824341,0.16058462858200073,-0.14325252175331116,-0.19636142253875732,31.48551368713379,-11.874366760253906,39.2159423828125,0
364,3640031,-0.09100411832332611,-0.012387777678668499,-1.0582222938537598,0.8528551459312439,-0.9357731342315674,0.42182204127311707,29.622568130493164,-8.836071014404297,40.7006950378418,0
365,3650064,0.09928466379642487,-0.024930797517299652,-1.0223984718322754,0.26403677463531494,-0.09995733201503754,-1.1741451025009155,30.986425399780273,-8.731781959533691,40.72030258178711,0
366,3660114,-0.13159438967704773,0.016883453354239464,-1.0161415338516235,-0.5766880512237549,-0.16237550973892212,0.4921770393848419,29.359243392944336,-12.082575798034668,40.64939880371094,0
367,3669909,0.006398065946996212,-0.07825451344251633,-0.9990764856338501,0.08018656075000763,0.5352537035942078,-0.9879200458526611,31.42852783203125,-9.272415161132812,40.22831726074219,0
368,3680023,0.022230537608265877,-0.0013104673707857728,-0.9790765643119812,-0.5129408240318298,0.8329418897628784,-0.04816221445798874,30.941102981567383,-9.387051582336426,40.02728271484375,0
369,3689792,0.11452879011631012,0.1081378236413002,-0.9824573993682861,0.07661481946706772,0.22088129818439484,-0.540917694568634,29.24209213256836,-11.754337310791016,39.38914108276367,0
370,3700151,0.03949519246816635,0.03998204693198204,-1.0172057151794434,0.7029504776000977,0.5071963667869568,0.475510835647583,29.733427047729492,-9.02364730834961,39.69770812988281,0
371,3709949,-0.03715404123067856,-0.03078438900411129,-0.9988449215888977,0.3004569709300995,-0.2752585709095001,-0.6072468757629395,29.805959701538086,-10.579899787902832,39.338436126708984,0
372,3720227,-0.01909809187054634,0.05699440836906433,-0.9895761013031006,0.394599050283432,0.12546998262405396,0.5283105969429016,30.39679527282715,-11.230350494384766,40.02802276611328,0
373,3730200,-0.09822595864534378,-0.04614976420998573,-0.9977172613143921,0.5295527577400208,0.04751882702112198,-0.21393907070159912,32.45671081542969,-9.991254806518555,41.736724853515625,0
374,3739964,-0.01812482438981533,0.08979988098144531,-0.9940657615661621,-0.5472015142440796,0.9477329254150391,0.05769084766507149,30.282732009887695,-10.4483060836792,41.684295654296875,0
375,3749917,-0.04325258359313011,-0.0006485717603936791,-1.0095165967941284,-0.6657887101173401,-0.3344683349132538,1.2636888027191162,29.536561965942383,-8.878015518188477,40.4855842590332,0
376,3759854,-0.023612599819898605,-0.04311753809452057,-0.9948692321777344,-0.4386521577835083,-1.2000150680541992,0.2887416481971741,30.55672836303711,-10.429965019226074,39.93307113647461,0
377,3769887,0.0007223971770144999,0.009457622654736042,-0.9850672483444214,-0.07388852536678314,0.4942637085914612,-0.7958186268806458,31.289419174194336,-8.275375366210938,38.61275100708008,0
378,3780212,0.0671035423874855,0.01738017611205578,-0.9974330067634583,-0.34521546959877014,0.35175371170043945,0.7602148056030273,27.30010414123535,-10.745867729187012,40.331912994384766,0
379,3789921,0.023491311818361282,0.010211947374045849,-1.027148723602295,0.4190985858440399,0.35539135336875916,0.1908269226551056,31.097759246826172,-9.701593399047852,38.444053649902344,0
380,3799786,-0.11019115895032883,0.030125867575407028,-0.9981473684310913,-0.38546523451805115,0.47021225094795227,-0.5035812258720398,29.78098487854004,-9.442071914672852,38.91519546508789,0
381,3809864,-0.01569291204214096,0.0710214301943779,-1.0068838596343994,-0.6906607151031494,0.27840906381607056,-0.3169322907924652,30.455825805664062,-10.75277328491211,38.21806716918945,0
382,3820125,-0.06405725330114365,0.02177610993385315,-0.9843676686286926,0.04243770241737366,-0.007888064719736576,-0.7491385340690613,29.333553314208984,-11.838483810424805,42.436279296875,0
383,3830005,-0.0424162931740284,-0.045598529279232025,-0.9885749816894531,-0.23304776847362518,-0.41006994247436523,-0.08422107249498367,29.328746795654297,-10.794379234313965,39.330406188964844,0
384,3840168,-0.10211405903100967,0.07257721573114395,-1.0109504461288452,0.6913209557533264,-0.8939271569252014,0.002747145015746355,29.069826126098633,-9.696928024291992,39.92827224731445,0
385,3850006,0.04354919493198395,-0.03872271254658699,-1.0233465433120728,0.31371065974235535,-0.9937674403190613,-0.5413482785224915,29.130090713500977,-10.785311698913574,39.775089263916016,0
386,3860090,-0.0005355121102184057,-0.023760825395584106,-1.0054360628128052,-0.7302005290985107,0.07080527395009995,-0.8528169989585876,30.926286697387695,-10.230695724487305,38.09964370727539,0
387,3870105,0.0011476707877591252,0.022898636758327484,-0.9931690096855164,-0.08935556560754776,0.21970516443252563,-0.3216022253036499,29.905771255493164,-10.662036895751953,40.66874694824219,0
388,3879957,0.013573006726801395,-0.01926230825483799,-0.9852738380432129,0.5236273407936096,-0.534601628780365,-0.40694954991340637,28.107437133789062,-9.475231170654297,39.711429595947266,0
389,3889980,-0.016733532771468163,-0.08121997117996216,-0.9898812174797058,0.17046914994716644,0.3161316215991974,0.13988879323005676,31.849136352539062,-8.37761402130127,41.777530670166016,0
390,3899914,0.020544040948152542,0.08874468505382538,-0.9851057529449463,-0.2996451258659363,0.4277729392051697,0.9685189723968506,29.674665451049805,-9.398160934448242,39.4643440246582,0
391,3909844,-0.015329048968851566,-0.05977345630526543,-0.9623310565948486,0.039027221500873566,0.41203799843788147,-0.3922569155693054,29.82634162902832,-11.014472961425781,41.65297317504883,0
392,3920055,0.04564055800437927,0.01018283050507307,-1.008425235748291,-0.3325350284576416,-0.3954879343509674,0.14229148626327515,29.761207580566406,-9.429234504699707,38.9715690612793,0
393,3930045,-0.028864311054348946,-0.03534474968910217,-1.0086171627044678,0.6076232194900513,0.934623122215271,-0.29156193137168884,28.719284057617188,-10.10506820678711,39.49768829345703,0
394,3939992,0.029219703748822212,0.08193562924861908,-1.0095036029815674,-0.09264793246984482,0.9726718664169312,0.47309038043022156,30.870126724243164,-11.086088180541992,40.66361618041992,0
395,3949974,-0.038307834416627884,0.05125652253627777,-1.0156563520431519,0.11729370802640915,0.34454837441444397,0.11183274537324905,30.67501449584961,-8.29022216796875,38.81863021850586,0
396,3959754,-0.002720784628763795,-0.04567764326930046,-0.9680361151695251,0.14430640637874603,0.19196532666683197,0.058336034417152405,29.23637580871582,-8.906089782714844,38.573734283447266,0
397,3970097,0.0250263512134552,-0.026106666773557663,-1.007284164428711,0.2979182302951813,-0.09685434401035309,0.8748476505279541,29.035724639892578,-10.34335708618164,38.83305358886719,0
398,3979908,-0.11764801293611526,0.01188573893159628,-1.0102150440216064,-0.022613083943724632,-0.12631355226039886,-0.4361426532268524,28.982601165771484,-10.411652565002441,39.632144927978516,0
399,3990121,0.034461282193660736,0.034030091017484665,-0.9988141655921936,-0.37687182426452637,-0.43475696444511414,-0.26920822262763977,28.89643096923828,-8.41666030883789,40.04068374633789,0
400,3999891,0.01470343116670847,-0.008910833857953548,-0.9756282567977905,0.07487228512763977,-0.3751605749130249,0.31543615460395813,29.691667556762695,-8.989778518676758,39.944580078125,0
401,4009528,-0.062481481581926346,0.05341773480176926,-0.9972920417785645,0.6087170243263245,0.18284012377262115,-0.2512880861759186,31.936147689819336,-9.29899787902832,40.12528610229492,0
402,4019952,0.130820631980896,-0.017458900809288025,-1.0224976539611816,0.6117587685585022,-0.2887238562107086,-0.36677947640419006,30.273500442504883,-10.620716094970703,41.543766021728516,0
403,4030073,0.019717194139957428,-0.010643966495990753,-1.014857530593872,0.1297796368598938,-0.2757474184036255,-1.0532265901565552,30.609619140625,-9.242796897888184,40.10048294067383,0
404,4039718,-0.00871484074741602,0.03162332624197006,-0.9763456583023071,-0.32921984791755676,0.51667320728302,0.2859894931316376,30.510496139526367,-9.32225227355957,40.312496185302734,0
405,4050076,0.00035924793337471783,0.05202793329954147,-1.006308674812317,-0.028490498661994934,-0.15714183449745178,-0.11048978567123413,30.007352828979492,-8.545040130615234,41.9914665222168,0
406,4059886,-0.03424186632037163,-0.023976417258381844,-0.9686805605888367,0.33371859788894653,-0.13468539714813232,0.8436169028282166,30.72391700744629,-8.940767288208008,40.344234466552734,0
407,4069881,0.12908658385276794,0.06657344847917557,-0.9851207137107849,0.4668867290019989,0.11074968427419662,0.11999151110649109,30.280412673950195,-11.038960456848145,40.275264739990234,0
408,4080034,0.009721935726702213,0.03221672400832176,-0.9883521199226379,0.09750878065824509,-0.17456653714179993,0.16125786304473877,29.50881004333496,-8.259861946105957,41.888221740722656,0
409,4090180,0.018320094794034958,-0.0028501490596681833,-1.0049463510513306,0.6831762194633484,0.26827284693717957,-0.7750668525695801,30.421953201293945,-9.812146186828613,39.59796905517578,0
410,4099924,0.011312155984342098,-0.09003202617168427,-1.00229012966156,-0.5001935958862305,0.40394559502601624,-0.1383204311132431,30.466983795166016,-8.456323623657227,39.856910705566406,0
411,4109995,-0.057063028216362,-0.01928456872701645,-0.9853305220603943,-0.11127997189760208,-0.16575324535369873,0.21736152470111847,31.862770080566406,-8.972009658813477,40.489524841308594,0
412,4119861,0.04547655209898949,-0.002734554000198841,-0.9811652302742004,-0.6595472693443298,0.6777072548866272,1.1712372303009033,31.269742965698242,-12.18884563446045,39.57758331298828,0
413,4130136,0.0005879347445443273,-0.06430500000715256,-1.0141465663909912,-0.1611400544643402,0.3546605110168457,0.17628058791160583,30.702985763549805,-9.830498695373535,39.60468292236328,0
414,4139994,-0.041666146367788315,0.057655103504657745,-0.9746198058128357,0.3244485557079315,0.32734552025794983,0.20089706778526306,28.57353401184082,-11.44245433807373,39.43842697143555,0
415,4149994,-0.10411297529935837,-0.08715631067752838,-0.9856080412864685,-1.1062887907028198,-0.05330386385321617,0.09777895361185074,29.288297653198242,-9.258275032043457,39.659332275390625,0
416,4160084,0.04425524175167084,0.05927358567714691,-1.0173723697662354,-0.7183331847190857,-0.08627977222204208,0.06320198625326157,30.779115676879883,-10.856223106384277,40.776058197021484,0
417,4170058,0.025804726406931877,-0.052161216735839844,-0.9805176258087158,-0.08245284855365753,-0.595962643623352,-0.4334826171398163,30.729209899902344,-10.916329383850098,39.618900299072266,0
418,4180032,0.04294779896736145,-0.08857625722885132,-0.9977200627326965,0.23449060320854187,0.01953708380460739,1.0884212255477905,29.673728942871094,-11.264039039611816,39.13676452636719,0
419,4189917,-0.06093982979655266,-0.0820290818810463,-1.0356576442718506,0.6777016520500183,-0.41182538866996765,0.42249569296836853,32.025577545166016,-8.165731430053711,40.48700714111328,0
420,4200014,-0.026271909475326538,-0.007308209780603647,-0.9902184009552002,-0.3281923532485962,0.147126242518425,0.8921331167221069,29.141002655029297,-10.360647201538086,37.48890686035156,0
421,4209943,-0.056332603096961975,0.02237027883529663,-1.0089867115020752,0.048433247953653336,-0.29355475306510925,0.8479947447776794,31.34223175048828,-9.9837007522583,41.092838287353516,0
422,4220038,-0.0176592655479908,0.06711132824420929,-0.9876629114151001,0.07232396304607391,0.8344218134880066,-0.20828205347061157,30.054065704345703,-9.5558500289917,41.389503479003906,0
423,4229859,0.017892515286803246,0.02039046213030815,-1.0252537727355957,-0.4275452196598053,-0.2619706392288208,-0.37706121802330017,28.40096664428711,-8.858929634094238,41.397945404052734,0
424,4240087,0.020180506631731987,0.011062740348279476,-0.9830944538116455,0.38974615931510925,0.000715600501280278,-0.776074230670929,29.68895721435547,-9.079307556152344,38.77056121826172,0
425,4249969,0.023198101669549942,0.002081934828311205,-1.0039441585540771,-0.2413676381111145,0.11084882915019989,-0.2933145761489868,28.343202590942383,-10.622424125671387,39.84077453613281,0
426,4260030,-0.03935830667614937,-0.08917468786239624,-0.9632861614227295,-0.16554096341133118,-0.4169943630695343,0.07440228015184402,29.1123046875,-10.223069190979004,40.274593353271484,0
427,4270047,0.004269501194357872,-0.04668208956718445,-1.0057047605514526,-0.41828376054763794,-0.35879915952682495,0.10430604219436646,30.400653839111328,-11.333066940307617,40.124000549316406,0
428,4279892,-0.05506307631731033,0.015240838751196861,-1.0106086730957031,0.4136492609977722,-0.6594780683517456,-0.9655722379684448,29.797706604003906,-9.264646530151367,39.42348098754883,0
429,4289904,0.12945589423179626,-0.022162895649671555,-0.9871471524238586,0.48085659742355347,0.3842625021934509,0.4238220453262329,29.44993019104004,-11.262195587158203,40.072078704833984,0
430,4300096,-0.07751134037971497,-0.057796161621809006,-1.0341097116470337,0.5416898131370544,0.5126005411148071,0.7730275988578796,29.99342918395996,-9.981815338134766,40.92575454711914,0
431,4310278,0.04153149947524071,-0.08786959201097488,-1.0146018266677856,0.38049954175949097,-0.5248234272003174,0.055817726999521255,30.49142074584961,-10.208300590515137,40.17551040649414,0
432,4319816,0.016699297353625298,0.019775254651904106,-0.9827489852905273,0.04431799799203873,0.6416193246841431,0.18019640445709229,29.923320770263672,-11.489336967468262,40.612850189208984,0
433,4330083,0.07480328530073166,0.007963458076119423,-0.9742663502693176,-0.14718016982078552,-0.13961097598075867,-0.18287648260593414,31.48110580444336,-11.219403266906738,39.779972076416016,0
434,4340044,-0.03300273045897484,0.0341716967523098,-0.9838299751281738,0.6588307023048401,0.2134723663330078,0.8266850113868713,30.359201431274414,-10.51413631439209,41.44955062866211,0
435,4350136,0.04631919413805008,-0.09135636687278748,-1.0091055631637573,0.6365888118743896,0.1452740579843521,-0.09092080593109131,29.366865158081055,-10.985066413879395,40.61677551269531,0
436,4359969,-0.03822099044919014,-0.016049014404416084,-0.9765861630439758,0.5757591128349304,0.14763227105140686,-0.29533734917640686,28.842561721801758,-11.459794998168945,41.30889129638672,0
437,4369805,0.008040857501327991,-0.022933354601264,-0.9849986433982849,-1.1330214738845825,-0.8861789107322693,0.4832158088684082,27.462005615234375,-10.718734741210938,40.18202590942383,0
438,4380063,0.015091292560100555,-0.057738520205020905,-0.9688752293586731,0.18103136122226715,0.4198642075061798,1.0991629362106323,29.76990509033203,-9.685707092285156,40.06486892700195,0
439,4389881,-0.037613704800605774,0.0427415668964386,-0.980640709400177,-0.0899517610669136,0.2396984100341797,0.12082664668560028,30.523151397705078,-12.05586051940918,38.25181579589844,0
440,4400190,-0.022774113342165947,0.032048653811216354,-1.021582007408142,0.38390329480171204,0.4360138177871704,-0.21491803228855133,30.072599411010742,-10.356730461120605,41.909542083740234,0
441,4409807,-0.14674584567546844,-0.02374286949634552,-0.9687482714653015,-0.9097664952278137,0.026860570535063744,-0.3705636262893677,29.977855682373047,-9.533316612243652,39.93032455444336,0
442,4420204,0.05292409285902977,0.0022448815871030092,-0.9894320964813232,-0.9844423532485962,-0.370354562997818,-0.15039069950580597,31.17601776123047,-10.29118537902832,41.57204055786133,0
443,4429777,0.0853375643491745,0.05140713229775429,-1.0197350978851318,0.12425016611814499,0.6794799566268921,-0.42937877774238586,31.588607788085938,-10.939142227172852,40.444026947021484,0
444,4439877,-0.0032325468491762877,0.06821557879447937,-1.003994107246399,-0.17219747602939606,0.4613458812236786,-0.01612882874906063,28.969043731689453,-11.211222648620605,39.89867401123047,0
445,4450053,-0.056695397943258286,-0.01791979931294918,-0.9930776357650757,-0.09430155158042908,-0.4423140585422516,-0.5451077818870544,28.721282958984375,-9.81406307220459,40.302276611328125,0
446,4459711,-0.019041482359170914,0.03228200599551201,-0.9943415522575378,1.0460385084152222,0.2971614599227905,-0.3958836495876312,31.59425163269043,-11.311112403869629,41.483985900878906,0
447,4469917,-0.07558765262365341,0.0030865769367665052,-0.9969930052757263,-1.1275321245193481,0.01973489485681057,-0.05382755398750305,29.612287521362305,-10.009563446044922,39.99524688720703,0
448,4480126,0.011542793363332748,0.033520445227622986,-1.0014452934265137,-0.9030485153198242,-0.616753339767456,0.42315778136253357,31.38642692565918,-9.70999526977539,40.22039031982422,0
449,4490118,-0.03644760325551033,-0.010638504289090633,-0.9883450865745544,0.39726945757865906,-0.2668286859989166,-0.7209553718566895,30.04995346069336,-9.598579406738281,41.338218688964844,0
450,4499968,-0.012590120546519756,0.1384233832359314,-1.011821985244751,-0.05761784315109253,-0.2731437683105469,0.3398455083370209,30.146591186523438,-10.880683898925781,41.65884780883789,0
451,4509886,-0.01750057563185692,-0.02766084484755993,-0.9994598627090454,-0.48311182856559753,0.20664973556995392,-0.6291085481643677,29.293272018432617,-9.025023460388184,39.887733459472656,0
