seq,time_us,ax,ay,az,gx,gy,gz,mx,my,mz,drop_flag
0,0,0.05040597543120384,0.028398342430591583,-0.9793344140052795,0.02752569131553173,-0.3170711398124695,-0.3388381004333496,30.27588653564453,-9.050024032592773,39.37147521972656,0
1,9751,-0.0116622569039464,0.029159072786569595,-0.9954407811164856,0.4174038767814636,-0.9121349453926086,1.210434913635254,29.611553192138672,-11.838123321533203,39.45590591430664,0
2,20197,0.03769571706652641,-0.05936276912689209,-0.9792787432670593,0.010454225353896618,-0.14133401215076447,0.34825438261032104,29.961267471313477,-9.194242477416992,41.473976135253906,0
3,29854,-0.021334655582904816,-0.0002284722140757367,-0.9702562093734741,-0.7332546710968018,-0.025057252496480942,0.24278755486011505,31.124387741088867,-9.792954444885254,40.43368148803711,0
4,39693,-0.02176116593182087,-0.021276848390698433,-0.9719006419181824,-0.19701038300991058,0.2554764151573181,0.057398755103349686,30.669946670532227,-9.539073944091797,40.562896728515625,0
5,49839,0.011860756203532219,0.007004590705037117,-1.0049725770950317,0.3710893988609314,0.5424673557281494,0.4677410423755646,28.4903564453125,-9.694785118103027,37.871150970458984,0
6,59883,-0.0007585044950246811,-0.0025852485559880733,-0.9741697907447815,0.5289788246154785,-0.8338074088096619,0.1925526261329651,30.3577823638916,-9.596644401550293,39.310001373291016,0
7,69767,0.055539973080158234,0.08669072389602661,-1.0407770872116089,-0.0216846764087677,0.5134998559951782,0.46189725399017334,29.47100067138672,-9.240860939025879,40.434906005859375,0
8,79973,0.02310551144182682,-0.038793835788965225,-0.9894747734069824,-0.03574278578162193,0.8874948024749756,0.00711065111681819,28.831676483154297,-10.549842834472656,41.97941970825195,0
9,89857,0.044983554631471634,0.044442318379879,-1.002794861793518,-0.2784251570701599,0.4616731107234955,-0.3831300139427185,30.264942169189453,-10.821884155273438,41.27945327758789,0
10,100205,-0.014485557563602924,-0.024161560460925102,-1.0394026041030884,-0.532156229019165,-0.6568377017974854,-0.7437376379966736,29.641483306884766,-9.577299118041992,40.50236892700195,0
11,110054,-0.06801088899374008,0.046514417976140976,-1.023344874382019,0.13609585165977478,0.1228216215968132,-0.9130837321281433,28.95093536376953,-10.38359546661377,41.70501708984375,0
12,120234,0.07187262922525406,-0.01833411119878292,-1.0049816370010376,0.3458121716976166,0.5279191732406616,-0.3472640812397003,29.8909854888916,-11.33194637298584,38.83073806762695,0
13,130117,0.04451833292841911,-0.006896556355059147,-1.013105034828186,0.4891067445278168,0.756916344165802,-0.008023141883313656,30.817224502563477,-10.067976951599121,39.64159393310547,0
14,139984,-0.0448690690100193,0.0049036112613976,-0.9974747896194458,-0.24777984619140625,0.22080369293689728,-1.1225546598434448,30.392650604248047,-9.902848243713379,40.65476989746094,0
15,150075,-0.01668037474155426,-0.08423042297363281,-1.0151222944259644,0.19706140458583832,0.5197916626930237,0.14739196002483368,29.720657348632812,-10.4154634475708,41.08051300048828,0
16,159982,-0.08056207746267319,-0.004130717366933823,-1.0296034812927246,0.862898588180542,1.537899136543274,-0.08998709172010422,29.235849380493164,-11.45139217376709,39.51882553100586,0
17,170338,-0.05134302005171776,0.015196974389255047,-1.0250766277313232,0.3232540786266327,-0.3703899085521698,0.16291938722133636,30.116472244262695,-9.008545875549316,39.44245147705078,0
18,180036,-0.0321272648870945,-0.03832203894853592,-0.9938247799873352,-0.14554443955421448,-0.08357518911361694,-0.39214658737182617,27.637847900390625,-8.36778450012207,42.52344512939453,0
19,190121,-0.04206806421279907,0.06980212777853012,-0.9985917210578918,-0.1174626275897026,-0.2826912999153137,0.6972529888153076,31.575977325439453,-11.230549812316895,38.88616180419922,0
20,199956,0.07473734021186829,-0.007026941515505314,-0.9780233502388,0.04541414976119995,0.06310420483350754,-0.04365416243672371,29.66737174987793,-9.589703559875488,41.1832275390625,0
21,209838,-0.016392644494771957,-0.012775702401995659,-0.9873479604721069,-0.19010090827941895,0.4611850678920746,-0.6292055249214172,30.883758544921875,-8.928373336791992,40.06333923339844,0
22,220080,0.013258041813969612,0.01639551855623722,-0.9774893522262573,-0.14107713103294373,-0.2897179126739502,-0.9776835441589355,29.51590919494629,-11.26686954498291,40.22011184692383,0
23,229914,0.04081349074840546,-0.015976550057530403,-1.0275086164474487,0.5900392532348633,-0.5794024467468262,0.6198545098304749,28.023839950561523,-10.43635368347168,39.01496505737305,0
24,239971,-0.06172676384449005,0.0028938318137079477,-0.9737750887870789,-0.6085667610168457,0.2876149117946625,0.05842103436589241,29.272348403930664,-12.07917594909668,38.93408203125,0
25,249677,-0.05848890170454979,-0.008621945045888424,-1.0431970357894897,-0.01815294474363327,-0.7130628824234009,0.2915748953819275,28.690404891967773,-8.892404556274414,39.92506790161133,0
26,259667,-0.01610945165157318,-0.03134584054350853,-0.9824112057685852,-0.007471488323062658,0.19793376326560974,0.06323713809251785,30.64394760131836,-10.980408668518066,39.69434356689453,0
27,269769,-0.012409425340592861,0.034794289618730545,-1.02786386013031,-0.19088302552700043,-0.47268253564834595,0.1471933275461197,31.903606414794922,-11.525969505310059,39.78697204589844,0
28,279970,0.03733742609620094,0.012600334361195564,-1.0007539987564087,-0.27479422092437744,-0.42856502532958984,0.4132149815559387,30.63750648498535,-10.829312324523926,40.661869049072266,0
29,289900,-0.02684471383690834,-0.0053479853086173534,-1.0405247211456299,0.2671452462673187,-0.28898581862449646,-0.7757611274719238,28.453031539916992,-10.184426307678223,40.19089126586914,0
30,299783,-0.03248858079314232,-0.02318221889436245,-0.9970094561576843,-0.21250587701797485,0.9754086136817932,0.27250176668167114,28.96388053894043,-10.543874740600586,41.29086685180664,0
31,309848,-0.015380940400063992,-0.008571995422244072,-0.9863297343254089,0.38465332984924316,-0.11747102439403534,-0.7270947098731995,32.90311050415039,-8.889394760131836,39.433204650878906,0
32,320036,-0.06910406053066254,-0.0239220280200243,-0.9943729639053345,-0.4947936534881592,0.04221820458769798,-0.0522935725748539,31.68904685974121,-11.309178352355957,40.55302047729492,0
33,329706,0.011624920181930065,0.03422532230615616,-0.9931744337081909,-0.13212566077709198,0.7884403467178345,0.03547518700361252,30.015581130981445,-10.782211303710938,38.04746627807617,0
34,339928,-0.10414821654558182,-0.02363554947078228,-0.9913297295570374,-0.2476038634777069,1.1149958372116089,-0.3731243908405304,28.60234832763672,-9.96107292175293,39.995548248291016,0
35,350039,-0.019039800390601158,-0.031530510634183884,-0.9763408899307251,0.06492751836776733,-0.14382673799991608,0.8498072028160095,30.058767318725586,-9.443018913269043,40.714237213134766,0
36,360208,0.007437358610332012,0.007943585515022278,-1.0020389556884766,0.3394613564014435,0.6166476607322693,0.6087888479232788,29.969900131225586,-10.400431632995605,39.30073928833008,0
37,370004,0.05241164565086365,0.04038523510098457,-0.9959861040115356,0.1274489164352417,-1.04035484790802,-0.2479143887758255,28.433067321777344,-10.396777153015137,41.23344039916992,0
38,380225,0.011905407533049583,-0.04183165729045868,-0.9985166192054749,0.10393836349248886,0.1955087035894394,-0.38461780548095703,29.21865463256836,-9.907951354980469,40.944847106933594,0
39,389862,0.0646045133471489,-0.03024604544043541,-0.9856983423233032,-1.1182063817977905,-0.5393007397651672,0.45904994010925293,29.39392852783203,-10.250354766845703,41.606231689453125,0
40,399932,0.0023076313082128763,0.04512294381856918,-0.9738078713417053,-0.5760046243667603,0.14674845337867737,0.43102461099624634,29.241771697998047,-11.049321174621582,38.691612243652344,0
41,410046,0.09968902170658112,0.03999274596571922,-1.0419529676437378,-0.41499069333076477,-0.8155245780944824,0.30510592460632324,30.54431915283203,-11.153613090515137,40.132652282714844,0
42,419863,0.032118506729602814,-0.030026841908693314,-1.0215975046157837,-0.5330561399459839,-0.018012940883636475,-0.5508586168289185,29.569684982299805,-8.348088264465332,39.57982635498047,0
43,430001,0.0031926485244184732,0.07784431427717209,-0.9950631260871887,0.015121759846806526,-0.3928271234035492,0.06886685639619827,30.0842227935791,-11.599326133728027,39.40094757080078,0
44,439973,-0.04380544275045395,-0.009244292974472046,-1.0055243968963623,0.488714337348938,0.31978124380111694,0.09540700912475586,29.215133666992188,-9.709686279296875,39.399131774902344,0
45,450263,0.05414574593305588,-0.028318263590335846,-0.9926512837409973,-0.4233998954296112,0.5432002544403076,-0.052253447473049164,30.087831497192383,-10.459624290466309,41.211334228515625,0
46,459958,-0.06203233823180199,-0.07698981463909149,-0.9760704636573792,0.5213022232055664,-0.6103276610374451,-0.3805569112300873,29.351587295532227,-9.80968952178955,40.75928497314453,0
47,469984,0.02723587676882744,-0.016468729823827744,-1.000344157218933,0.1996847242116928,1.1239372491836548,0.3403848707675934,29.740890502929688,-9.146306037902832,39.31321716308594,0
48,480076,0.040634602308273315,-0.018445901572704315,-0.9861927032470703,-0.6490648984909058,0.026162121444940567,0.1055423766374588,30.041854858398438,-11.419572830200195,39.43539810180664,0
49,489951,0.0012627107789739966,0.02203802764415741,-0.9697051048278809,0.5827581882476807,0.3793945014476776,0.8648778796195984,29.25257682800293,-8.640719413757324,39.92291259765625,0
50,499925,-0.0033407420851290226,0.036103080958127975,-1.011983036994934,-0.3947480320930481,-0.04562109336256981,-0.037296272814273834,29.966703414916992,-10.532442092895508,40.69322967529297,0
51,509776,0.0112681332975626,-0.10164040327072144,-0.9571869373321533,0.07833429425954819,0.36343666911125183,-0.10653573274612427,31.38121223449707,-7.611698150634766,39.94448471069336,0
52,519930,0.11299382150173187,-0.0023830130230635405,-1.0455340147018433,-0.2548693120479584,-0.6741478443145752,0.3080575168132782,31.670087814331055,-10.209596633911133,40.11351013183594,0
53,530008,0.07529877126216888,0.051101814955472946,-0.9886204600334167,-0.30458012223243713,0.6752585172653198,0.7455277442932129,29.988733291625977,-9.503018379211426,39.06616973876953,0
54,540232,0.07195322215557098,0.023639380931854248,-1.0083544254302979,-1.161568522453308,-1.113735556602478,0.6253300309181213,30.918399810791016,-9.837026596069336,38.690208435058594,0
55,550142,0.01850976049900055,-0.06588216871023178,-0.996645450592041,0.6750777363777161,-0.48264849185943604,0.3761659860610962,29.475482940673828,-10.534217834472656,39.68728256225586,0
56,560217,-0.12027592211961746,0.030039599165320396,-1.021381139755249,0.27349063754081726,-0.7019565105438232,0.10158079862594604,29.359521865844727,-9.509750366210938,40.707645416259766,0
57,569967,0.07222198694944382,0.028425903990864754,-1.01963210105896,0.4459480941295624,0.1091247946023941,-1.103243112564087,29.842334747314453,-10.683695793151855,39.502647399902344,0
58,579790,0.043193269520998,-0.05485086143016815,-1.001457929611206,0.12954090535640717,-0.34062322974205017,0.24735760688781738,30.032779693603516,-9.177099227905273,40.655460357666016,0
59,590026,-0.05105610564351082,-0.012707547284662724,-1.032144546508789,-0.0867946520447731,1.360451102256775,0.11431193351745605,30.315156936645508,-9.68713665008545,39.29105758666992,0
60,599998,0.0014068789314478636,0.022975696250796318,-1.013803243637085,0.13053379952907562,0.18327975273132324,-0.31968387961387634,30.165517807006836,-9.519796371459961,39.47593688964844,0
61,609936,-0.023172885179519653,0.03035443276166916,-1.009320616722107,0.053277697414159775,-0.2763928174972534,0.7735146284103394,30.588850021362305,-11.716096878051758,40.03559875488281,0
62,620078,0.15043003857135773,-0.06911350786685944,-1.025688648223877,0.24216234683990479,0.013208174146711826,0.3204748034477234,29.58491325378418,-10.982283592224121,38.77539825439453,0
63,630171,-0.036648694425821304,-0.03792400658130646,-1.002253770828247,0.262599915266037,-0.6442493796348572,-0.15694554150104523,30.0560302734375,-9.028281211853027,38.97455978393555,0
64,640215,0.026883358135819435,0.012284902855753899,-0.9825741052627563,-0.12100095301866531,-0.09593081474304199,-0.4369366466999054,32.208580017089844,-10.28339958190918,38.91352462768555,0
65,649944,-0.0047333454713225365,0.040772903710603714,-1.000110387802124,0.36007624864578247,-0.34505197405815125,-0.48707354068756104,31.145124435424805,-10.09235668182373,40.842044830322266,0
66,660035,-0.00536440871655941,-0.014393933117389679,-1.0052598714828491,-0.30165135860443115,-0.48167961835861206,0.3137449622154236,31.864459991455078,-10.48276424407959,38.88121795654297,0
67,669767,0.046634871512651443,-0.013993445783853531,-1.0343133211135864,-0.030708642676472664,-0.03426891565322876,-0.030179927125573158,29.80589485168457,-10.853928565979004,39.92046356201172,0
68,679916,-0.07660219818353653,-0.047154173254966736,-1.0163118839263916,0.7612898945808411,-0.07629967480897903,0.1344766765832901,30.01019287109375,-9.79376220703125,40.59897232055664,0
69,689687,0.024325508624315262,-0.03163859248161316,-0.9974843859672546,-0.5005349516868591,-0.33150115609169006,-0.41561681032180786,28.710426330566406,-10.828878402709961,38.897377014160156,0
70,700076,-0.07322542369365692,-0.03786633163690567,-0.9893497228622437,-0.2527152895927429,-0.5583304762840271,-0.21131585538387299,30.820178985595703,-12.280692100524902,39.23432922363281,0
71,710162,0.006322737783193588,-0.1091746836900711,-0.994627058506012,-0.2242714762687683,-0.27769914269447327,0.03076016902923584,30.677949905395508,-9.318700790405273,40.8146858215332,0
72,719652,-0.01269114762544632,0.03913067653775215,-0.99532550573349,-0.31000953912734985,0.07336928695440292,-0.06766987591981888,29.3350887298584,-9.263592720031738,39.238285064697266,0
73,730097,-0.044834036380052567,0.057769231498241425,-0.9703518748283386,-0.14136366546154022,-0.29158687591552734,0.06551084667444229,31.535850524902344,-10.563438415527344,41.67966842651367,0
74,739984,-0.014187799766659737,0.024669526144862175,-0.9875142574310303,-0.8956903219223022,-0.48422887921333313,0.20180951058864594,28.840904235839844,-8.023650169372559,39.35136413574219,0
75,750377,-0.02999284863471985,0.011712168343365192,-0.9835752844810486,-0.24906453490257263,0.0027774509508162737,-0.6232818961143494,29.217374801635742,-9.94495677947998,41.30432891845703,0
76,760028,-0.038326751440763474,0.022272104397416115,-1.0032763481140137,-0.21042881906032562,-0.6095717549324036,0.8189486265182495,31.367769241333008,-11.56948471069336,39.78574752807617,0
77,769826,0.012386387214064598,0.004622922744601965,-0.999030590057373,0.44602715969085693,-0.13133728504180908,-0.5118385553359985,30.89508628845215,-10.010136604309082,38.66352462768555,0
78,779931,0.11169137060642242,-0.0704277753829956,-0.990135133266449,-0.025764180347323418,0.424868643283844,-0.4512559175491333,31.700693130493164,-8.486266136169434,38.543941497802734,0
79,789718,0.015168371610343456,0.06499259918928146,-0.9955782294273376,0.06215674802660942,0.10797172784805298,-0.026207949966192245,29.2565975189209,-10.415445327758789,39.635013580322266,0
80,799974,0.015539532527327538,-0.06681489944458008,-0.9722002744674683,0.022648058831691742,0.6843348741531372,-0.7074297070503235,31.364912033081055,-10.085267066955566,40.87002182006836,0
81,810086,-0.01005522906780243,0.05059196799993515,-0.9798287749290466,0.42218518257141113,-0.21825474500656128,0.3387022316455841,30.509464263916016,-7.568031311035156,37.17704391479492,0
82,820152,0.07360316067934036,0.0479290746152401,-1.0129719972610474,0.26032236218452454,0.33483389019966125,-0.5750401020050049,29.111846923828125,-8.960627555847168,39.0587043762207,0
83,830000,-0.06386731564998627,0.07937175780534744,-1.0105180740356445,0.3263247609138489,-0.010521985590457916,-0.8590349555015564,30.769405364990234,-10.297065734863281,38.46873092651367,0
84,840252,-0.05336947739124298,0.01956850476562977,-1.0079213380813599,0.017480382695794106,0.10295561701059341,0.009035127237439156,30.695127487182617,-8.706849098205566,38.34723663330078,0
85,850048,-0.0032410146668553352,-0.0034729831386357546,-0.9982200264930725,-0.84989333152771,0.10846087336540222,-0.03732297942042351,30.634721755981445,-9.087944030761719,41.11128234863281,0
86,859637,-0.04028938710689545,0.034907303750514984,-1.0092146396636963,-0.6093956828117371,-0.8078005909919739,0.298420250415802,28.641284942626953,-11.699634552001953,38.29948425292969,0
87,869761,-0.05474550276994705,0.013554053381085396,-0.9896643757820129,-0.26786792278289795,0.9669528007507324,-0.18729180097579956,30.962337493896484,-11.123058319091797,39.79343032836914,0
88,879824,-0.04786020517349243,0.041870418936014175,-1.0051270723342896,-0.5878503322601318,0.14593324065208435,-0.3620741069316864,28.55356788635254,-9.206086158752441,40.10833740234375,0
89,890152,0.0044484310783445835,-0.003161581000313163,-0.9767745137214661,-0.1415143758058548,0.5971710085868835,0.1820012629032135,28.342283248901367,-11.019387245178223,39.391117095947266,0
90,899908,-0.013546232134103775,0.07511447370052338,-0.9788666367530823,0.1682615578174591,0.12671977281570435,-0.19954459369182587,29.925966262817383,-11.471819877624512,38.835723876953125,0
91,909927,-0.123110331594944,0.025721605867147446,-1.0237420797348022,0.12820646166801453,0.8942521214485168,-0.34548521041870117,30.24488639831543,-10.20400333404541,39.29775619506836,0
92,919946,0.006334804464131594,-0.007043209858238697,-0.9851022958755493,-0.0946287289261818,-0.39446377754211426,0.3418143689632416,30.786394119262695,-11.027361869812012,40.92280578613281,0
93,929858,0.04137001931667328,-0.02569768764078617,-0.963222086429596,0.4126501977443695,0.41903629899024963,0.12371589243412018,28.82978057861328,-11.54183292388916,39.1048698425293,0
94,939814,-0.04825851693749428,-0.04192659631371498,-1.017747163772583,-0.4243049621582031,-1.006455421447754,-0.3933045566082001,30.922969818115234,-9.589133262634277,38.574371337890625,0
95,949845,0.07365982234477997,-0.016884613782167435,-0.9689077138900757,-0.40427568554878235,0.8007217645645142,-0.1428801715373993,31.760473251342773,-9.908820152282715,39.66362380981445,0
96,959956,-0.052021779119968414,0.006297913379967213,-1.0198183059692383,0.5588987469673157,0.04026074334979057,-1.0226917266845703,29.280824661254883,-10.979046821594238,39.37422180175781,0
97,969833,0.03543056175112724,-0.002174224006012082,-1.0014830827713013,-0.296600878238678,-0.7343488335609436,-0.5759057402610779,30.1661434173584,-10.816803932189941,40.31380844116211,0
98,980063,-0.05718095600605011,-0.028293441981077194,-1.0043236017227173,0.4192085266113281,0.08693893998861313,-1.1813726425170898,29.762897491455078,-9.424829483032227,39.90480422973633,0
99,990032,-0.05985548719763756,-0.08187476545572281,-0.995887041091919,-0.7145377397537231,0.8249421119689941,0.23285646736621857,29.80805015563965,-10.289287567138672,39.33921432495117,0
100,1000103,-0.005511474329978228,0.0027941842563450336,-0.9886666536331177,0.005707000382244587,0.24030376970767975,0.12409084290266037,29.77338981628418,-9.095574378967285,40.40745162963867,0
101,1009917,0.08527235686779022,0.05216459929943085,-0.990882396697998,0.8270969986915588,-0.04252064600586891,-0.11681675910949707,31.797273635864258,-8.871431350708008,39.027442932128906,0
102,1019972,0.04978394880890846,0.006708473898470402,-1.0049086809158325,0.21518957614898682,0.012761612422764301,-0.6217877268791199,30.082361221313477,-9.061452865600586,40.206642150878906,0
103,1029766,0.016149427741765976,0.10537335276603699,-1.0030879974365234,0.619016706943512,-0.17623528838157654,-0.672330379486084,29.409818649291992,-10.454224586486816,39.88806915283203,0
104,1040049,0.016651548445224762,-0.09277278184890747,-1.0074577331542969,-0.5046988129615784,-0.08996344357728958,0.31583523750305176,29.1591796875,-9.740438461303711,40.26498794555664,0
105,1049826,-0.02089175581932068,0.017465559765696526,-1.0016535520553589,0.13836024701595306,-1.034742832183838,-0.09169112890958786,29.667579650878906,-11.201248168945312,40.3298225402832,0
106,1059880,-0.005477264057844877,-0.04239361733198166,-0.9999440908432007,-0.47028833627700806,-0.37420400977134705,0.6852598786354065,29.688701629638672,-10.969223022460938,39.32024002075195,0
107,1070078,-0.03422441706061363,-0.036749858409166336,-1.0438698530197144,-0.22409461438655853,0.5472962260246277,-0.23620495200157166,29.815101623535156,-10.382675170898438,39.38797378540039,0
108,1080148,-0.0003308781888335943,0.003372316248714924,-1.0421231985092163,-0.49422624707221985,0.29784488677978516,-0.06007108837366104,26.868408203125,-11.052663803100586,41.12501525878906,0
109,1089849,-0.04954765364527702,0.030779285356402397,-0.9903466701507568,-0.2758551239967346,0.8209365010261536,-0.22139376401901245,28.054180145263672,-8.315524101257324,40.17258834838867,0
110,1100067,-0.021578442305326462,0.06192417070269585,-0.9800413846969604,-0.08105529844760895,-0.24948884546756744,-0.5033712983131409,30.075355529785156,-11.238940238952637,41.21415328979492,0
111,1109978,0.07564865797758102,0.03886175900697708,-0.9584386348724365,0.3231383264064789,0.6140890717506409,0.4017447829246521,31.90935516357422,-12.124974250793457,38.794403076171875,0
112,1120012,-0.031446173787117004,0.06015755981206894,-0.997634768486023,-0.5708200335502625,-0.8840636014938354,0.7250939607620239,29.714202880859375,-10.38236141204834,41.270179748535156,0
113,1129907,0.060830455273389816,-0.014566268771886826,-0.9980255365371704,-0.8961939215660095,0.06909279525279999,-0.14094989001750946,31.2751522064209,-9.650014877319336,40.812744140625,0
114,1139744,0.0016019571339711547,-0.022390639409422874,-0.9857223033905029,1.0226266384124756,-0.9335414171218872,0.24206238985061646,31.79239845275879,-9.9898042678833,41.572784423828125,0
115,1149806,0.01270297635346651,-0.02547631785273552,-1.014388084411621,-0.19048701226711273,-0.06696314364671707,0.1054309755563736,30.93656349182129,-9.920869827270508,39.71028137207031,0
116,1160012,-0.01972266472876072,-0.05654488503932953,-0.9758567214012146,0.31197357177734375,0.17769382894039154,0.8527900576591492,30.704511642456055,-10.50410270690918,39.4158821105957,0
117,1170270,-0.03553303703665733,-0.012747260741889477,-1.0182416439056396,0.08472366631031036,-0.3290769159793854,0.10048841685056686,30.92228126525879,-9.4075288772583,39.30011749267578,0
118,1179986,0.0776955783367157,-0.03109566681087017,-1.022403359413147,-0.05088544636964798,-0.7949143052101135,-0.09239184111356735,29.861299514770508,-9.400830268859863,38.89873504638672,0
119,1189661,0.006903262343257666,-0.0008896903018467128,-0.9534072279930115,0.05144466459751129,-0.14420263469219208,0.6009712219238281,28.696321487426758,-10.520395278930664,39.9582405090332,0
120,1199803,0.02915019355714321,0.02835397981107235,-0.9921945929527283,0.1595020741224289,0.23148536682128906,-0.19803614914417267,30.77659797668457,-9.516975402832031,39.01482391357422,0
121,1210085,-0.05174655467271805,-0.0013299190904945135,-1.0027395486831665,-0.4030440151691437,0.770797610282898,-0.1965041607618332,28.781679153442383,-10.104039192199707,39.5756950378418,0
122,1219915,-0.013290842063724995,-0.03010283038020134,-0.9993586540222168,0.8618581891059875,0.21158380806446075,0.4152289628982544,29.395404815673828,-10.857786178588867,41.9858512878418,0
123,1229850,0.02744637243449688,0.018658868968486786,-1.0359433889389038,-0.7023681402206421,0.41058656573295593,0.24888966977596283,30.745590209960938,-9.316803932189941,40.44130325317383,0
124,1239839,0.015473622828722,-0.06843023002147675,-0.9683857560157776,-0.4686726927757263,0.15650591254234314,0.4490392506122589,29.840736389160156,-10.660865783691406,39.04647445678711,0
125,1250030,0.06751822680234909,-0.0113161476328969,-1.004851222038269,-0.003132159123197198,0.6238910555839539,0.5274339914321899,28.829936981201172,-8.219213485717773,39.27145004272461,0
126,1259902,-0.013870361261069775,-0.038211673498153687,-1.0016224384307861,0.5149461030960083,0.1087382584810257,0.1381838619709015,30.386199951171875,-11.60153865814209,39.46206283569336,0
127,1269910,0.022278856486082077,-0.08078604191541672,-0.9957056641578674,0.25687772035598755,-0.27211469411849976,-0.3197452425956726,28.70233917236328,-10.64184284210205,38.84001159667969,0
128,1279948,0.0003725291171576828,-0.006258804351091385,-0.9787023067474365,-0.4636196196079254,0.04610646888613701,0.3853400647640228,28.607736587524414,-11.289539337158203,39.56644821166992,0
129,1289918,-0.012634484097361565,-0.04293166846036911,-1.0196465253829956,-0.2986301779747009,0.10020036995410919,0.22747136652469635,30.07435417175293,-10.64637565612793,38.65216827392578,0
130,1300152,0.07018504291772842,0.024902908131480217,-0.9928666949272156,-0.5576358437538147,0.020849227905273438,-0.0228758342564106,32.352394104003906,-7.610159397125244,40.793418884277344,0
131,1309971,0.06459891051054001,-0.049730509519577026,-1.0109989643096924,1.0353626012802124,1.3747901916503906,0.5305029153823853,30.182994842529297,-9.583268165588379,41.02261734008789,0
132,1319870,-0.029308835044503212,-0.03939489647746086,-0.993995726108551,-0.275604248046875,0.2863480746746063,-0.2736084759235382,30.947223663330078,-11.315238952636719,40.39754867553711,0
133,1329774,-0.0033725069370120764,-0.021605566143989563,-1.0096873044967651,0.11020100861787796,0.633820652961731,-0.6504371166229248,28.94452667236328,-10.370115280151367,40.44343948364258,0
134,1339994,-0.05044642090797424,0.038619089871644974,-0.9917997717857361,0.2142971009016037,-0.47210970520973206,0.5022622346878052,30.57042121887207,-10.379104614257812,40.351985931396484,0
135,1349595,-0.09513246268033981,0.0016190723981708288,-1.0428262948989868,0.30937862396240234,0.5007086396217346,0.044989582151174545,29.618865966796875,-13.04564094543457,40.182151794433594,0
136,1360273,0.022571051493287086,0.10972770303487778,-0.9726214408874512,0.051488615572452545,-0.2242969274520874,-0.31116753816604614,30.411653518676758,-9.27238941192627,38.5316047668457,0
137,1370109,-0.012179560959339142,-0.009766978211700916,-0.9901845455169678,-0.275583952665329,-0.7041900753974915,0.4579308032989502,30.59228515625,-8.614791870117188,41.4604606628418,0
138,1379971,-0.0020334352739155293,0.0846688374876976,-0.9888378381729126,0.028461456298828125,-0.3310497999191284,-0.12373225390911102,29.444320678710938,-9.26018238067627,40.79092025756836,0
139,1390345,0.02020387537777424,0.013666357845067978,-1.01873779296875,0.5839034914970398,0.006688665132969618,-0.09245028346776962,28.463035583496094,-10.73667049407959,40.75211715698242,0
140,1399821,-0.04089068993926048,-0.1104266569018364,-1.0316202640533447,-0.7171181440353394,-0.0751570612192154,-0.8895764946937561,30.95233154296875,-8.826488494873047,39.41823196411133,0
141,1410023,0.002662859857082367,0.06542717665433884,-1.0055313110351562,0.7789946794509888,0.281978964805603,0.39969924092292786,31.458669662475586,-11.675800323486328,40.55583953857422,0
142,1420027,-0.025032827630639076,0.011050122790038586,-1.0162909030914307,-0.6811515092849731,-0.22643999755382538,0.4805169403553009,29.498676300048828,-10.655722618103027,40.49365997314453,0
143,1429973,-0.017646346241235733,-0.012257060967385769,-1.004385232925415,-0.3815743923187256,-0.5210558772087097,0.426970511674881,31.896398544311523,-9.64830207824707,44.06127166748047,0
144,1440094,0.032699696719646454,0.06427038460969925,-1.0150290727615356,-0.6055808663368225,-0.49798932671546936,0.22581307590007782,30.081064224243164,-8.97770881652832,40.959407806396484,0
145,1450111,0.004030255135148764,-0.01802765019237995,-0.9913139939308167,0.46797293424606323,-0.33123376965522766,-0.07514027506113052,31.36149787902832,-8.998485565185547,40.207305908203125,0
146,1460273,-0.013847928494215012,-0.056500013917684555,-1.0124943256378174,-0.5673389434814453,-0.0015554034616798162,0.7782160043716431,29.259456634521484,-10.793793678283691,39.250022888183594,0
147,1469920,0.030695276334881783,0.0019024278735741973,-1.0423685312271118,-0.13488337397575378,-0.26647141575813293,0.0899318978190422,28.217884063720703,-9.821467399597168,39.844886779785156,0
148,1480050,-0.05015480890870094,0.004673307295888662,-1.0217394828796387,-0.019830195233225822,-0.3023201525211334,0.4210704565048218,30.9489803314209,-10.735237121582031,40.231327056884766,0
149,1490001,-0.09191163629293442,-0.02646193653345108,-0.9816148281097412,0.8874995708465576,-0.20515349507331848,-0.3413998484611511,30.111425399780273,-9.946250915527344,39.6632080078125,0
150,1499983,-0.08894447237253189,-0.04417700320482254,-0.9659668207168579,0.34894654154777527,-0.3584374189376831,0.29647648334503174,31.367534637451172,-10.880313873291016,40.495849609375,0
151,1509948,0.008050677366554737,-0.02879202738404274,-0.9564440846443176,0.027862463146448135,0.13621477782726288,0.49610352516174316,29.725664138793945,-9.225086212158203,40.34634780883789,0
152,1519812,-0.0386708602309227,0.025823742151260376,-0.9866589903831482,0.37085023522377014,-0.09373240917921066,0.744433581829071,30.180686950683594,-10.247774124145508,38.92255401611328,0
153,1529764,-0.05745870620012283,-0.049844857305288315,-1.0133740901947021,0.6796694993972778,-0.10986070334911346,0.12996333837509155,30.889488220214844,-12.51716423034668,42.10251235961914,0
154,1539939,0.06040937080979347,0.0649433508515358,-0.9638568758964539,0.17540141940116882,-0.23800359666347504,0.20142215490341187,31.150365829467773,-10.112411499023438,41.08928680419922,0
155,1550197,-0.08251117914915085,-0.02119545452296734,-1.0048658847808838,0.016551293432712555,-0.028563575819134712,-0.3236108720302582,30.8939151763916,-10.53808307647705,40.15745162963867,0
156,1560145,0.01149585098028183,0.021337734535336494,-1.028059959411621,-0.49716970324516296,-0.14351637661457062,0.7598630785942078,28.443687438964844,-10.992016792297363,41.13507080078125,0
157,1569824,0.047352615743875504,-0.03784525394439697,-0.9968419075012207,-0.10681799054145813,0.09575776010751724,-0.3217342793941498,31.46772575378418,-9.981173515319824,41.345706939697266,0
158,1580109,0.006472115404903889,0.028713053092360497,-1.0455514192581177,0.047568537294864655,-0.4414028525352478,-0.3800632953643799,30.429298400878906,-11.205558776855469,39.045997619628906,0
159,1589585,0.06659498065710068,0.029643531888723373,-1.001418113708496,-0.3001837432384491,0.6806712746620178,-0.48716482520103455,30.488658905029297,-10.186393737792969,40.20647048950195,0
160,1600155,-0.06262565404176712,-0.05178229883313179,-0.9869739413261414,0.7712122201919556,0.7099249958992004,-0.25391146540641785,31.988780975341797,-9.325023651123047,40.2746696472168,0
161,1609937,-0.05331183224916458,-0.031193241477012634,-1.0149402618408203,-0.3438446521759033,-0.3805190324783325,0.47442734241485596,29.475927352905273,-11.415348052978516,38.57517623901367,0
162,1620134,-0.04417206346988678,0.09857004135847092,-0.9927469491958618,-0.013556507416069508,0.2252572625875473,0.2510809004306793,28.281618118286133,-11.309529304504395,39.82168960571289,0
163,1629594,0.020648935809731483,-0.03680120408535004,-1.002144455909729,0.8027799129486084,-0.18186327815055847,-0.38843563199043274,31.457096099853516,-11.894070625305176,39.97711944580078,0
164,1640045,0.03830145299434662,-0.05953023210167885,-1.0020906925201416,-0.2404112070798874,-0.2855183482170105,0.16101446747779846,29.449731826782227,-11.564080238342285,41.1639518737793,0
165,1650177,0.0073176175355911255,-0.02447843737900257,-1.0050907135009766,0.31101247668266296,-0.11616263538599014,-0.045178771018981934,30.478858947753906,-9.107799530029297,39.809329986572266,0
166,1660274,-0.09626176208257675,-0.012866199016571045,-1.0098754167556763,-0.4520602524280548,0.7021352052688599,0.10165891796350479,29.95928192138672,-9.773763656616211,39.50564956665039,0
167,1670049,0.05703498050570488,-0.034480515867471695,-0.9889236092567444,-0.34462371468544006,-0.12187708914279938,-0.4560790956020355,30.042573928833008,-7.932545185089111,39.23039245605469,0
168,1680306,0.05991281196475029,-0.0745408684015274,-1.0113662481307983,-0.35465338826179504,-0.07879424840211868,0.7324198484420776,28.4566593170166,-10.72447395324707,40.00400161743164,0
169,1690133,0.09523159265518188,-0.07013935595750809,-0.98747718334198,0.39031505584716797,0.42035049200057983,0.03155895695090294,29.784194946289062,-9.527485847473145,39.28136444091797,0
170,1699820,0.03646409139037132,0.00403564190492034,-1.009505033493042,-0.037615008652210236,-0.11779717355966568,0.7402670383453369,27.344131469726562,-10.024369239807129,40.53061294555664,0
171,1709999,-0.03442135080695152,-0.08630078285932541,-0.9763565063476562,0.5495663285255432,1.097856044769287,0.4667082130908966,30.759342193603516,-9.389189720153809,41.07377624511719,0
172,1720118,-0.006976911798119545,-0.03948017582297325,-0.9976150989532471,-0.07983144372701645,-0.4685114324092865,-0.08463414758443832,29.32823371887207,-9.69766902923584,38.86960983276367,0
173,1729995,0.025710783898830414,0.045111168175935745,-0.9715564846992493,0.5123952031135559,-0.8924413323402405,-0.23575139045715332,28.6665096282959,-11.744020462036133,38.086265563964844,0
174,1739753,-0.08636060357093811,0.09576039016246796,-0.9918493032455444,0.38873550295829773,0.5026755928993225,0.01885693520307541,29.912565231323242,-9.970270156860352,38.8730583190918,0
175,1750231,0.01204656157642603,0.03179161995649338,-0.9998972415924072,0.29452279210090637,0.15192456543445587,-0.0002584875328466296,28.590648651123047,-9.493263244628906,42.401573181152344,0
176,1759803,-0.01723046787083149,-0.033814460039138794,-0.9633432626724243,-0.5956640839576721,-0.015009444206953049,0.30100512504577637,29.582414627075195,-9.26451587677002,41.20541000366211,0
177,1769983,-0.041691262274980545,0.008991062641143799,-1.0235017538070679,0.1798112839460373,0.4031634032726288,0.725548505783081,30.3561954498291,-8.466035842895508,41.428428649902344,0
178,1780116,-0.039143405854701996,0.0019174612825736403,-1.0336905717849731,-0.069621741771698,0.0245958361774683,1.0244128704071045,31.152559280395508,-10.127415657043457,42.660457611083984,0
179,1789848,-0.005875336937606335,-0.03528119623661041,-0.9666755795478821,-0.5335372090339661,-0.6491382718086243,0.22581201791763306,30.311016082763672,-10.410122871398926,37.124916076660156,0
180,1800089,0.025075001642107964,0.020204920321702957,-1.0239801406860352,-0.06277403235435486,0.14313600957393646,-0.412295937538147,29.398252487182617,-9.424509048461914,39.641666412353516,0
181,1809903,-0.04759093374013901,-0.011005167849361897,-1.020895004272461,-0.43697044253349304,-1.0099126100540161,-0.1359698474407196,31.86985206604004,-10.586210250854492,40.60221481323242,0
182,1819790,0.0745447501540184,0.004199622198939323,-1.0091935396194458,0.6354495286941528,-0.060523804277181625,1.1168951988220215,29.615482330322266,-10.793068885803223,38.69514846801758,0
183,1829981,-0.004570131655782461,-0.004254682920873165,-0.9944305419921875,0.6762845516204834,-1.1548489332199097,-0.44498714804649353,28.702281951904297,-9.010520935058594,40.35927963256836,0
184,1839980,-0.017168328166007996,0.04945007711648941,-1.0238550901412964,-0.14615784585475922,-0.5912114977836609,-0.5461534261703491,30.481348037719727,-9.8408784866333,39.82111740112305,0
185,1849967,-0.053419943898916245,-0.033990807831287384,-1.0116428136825562,0.041369758546352386,-0.1373123824596405,0.013874156400561333,30.768007278442383,-11.77347183227539,38.233856201171875,0
186,1859984,0.028886761516332626,-0.008597876876592636,-0.9818889498710632,-0.32125577330589294,-0.828719437122345,-1.0101470947265625,31.143251419067383,-11.667078018188477,40.31414794921875,0
187,1869968,-0.03952976316213608,-0.016806291416287422,-0.9621829986572266,-0.4291618764400482,0.27961471676826477,-0.08176905661821365,29.582372665405273,-10.646921157836914,39.8387336730957,0
188,1880298,-0.03263014927506447,0.025716865435242653,-0.9934260845184326,0.4899959862232208,-0.029003994539380074,-0.3257485330104828,31.374685287475586,-10.851211547851562,41.768699645996094,0
189,1889916,0.0759696215391159,0.016182096675038338,-0.9652732610702515,-0.25607606768608093,0.08272791653871536,0.3015241026878357,28.28447914123535,-10.457099914550781,41.0411491394043,0
190,1899978,0.01479335967451334,0.008434412069618702,-0.9957921504974365,0.1806628704071045,-0.27727916836738586,-0.4844439923763275,30.74433135986328,-10.120817184448242,38.8739128112793,0
191,1910153,-0.02182028256356716,-0.042743343859910965,-1.0147746801376343,0.6273967623710632,-0.27929091453552246,-0.332015722990036,29.558032989501953,-8.94867992401123,39.75727081298828,0
192,1920046,0.006152027286589146,0.015709592029452324,-0.978206992149353,-0.5305341482162476,-0.6943294405937195,-0.3484087884426117,29.0881404876709,-8.648466110229492,39.98956298828125,0
193,1929864,0.03806605190038681,-0.06279325485229492,-0.9917196035385132,0.8061250448226929,-0.24909010529518127,0.07047786563634872,31.846824645996094,-9.58137321472168,39.33864212036133,0
194,1940077,0.018739644438028336,-0.03279223293066025,-1.013200283050537,0.8005790710449219,0.002127919578924775,-0.24693846702575684,29.706430435180664,-12.323490142822266,39.54793167114258,0
195,1950294,-0.010797413066029549,-0.043699610978364944,-1.0109113454818726,0.16516993939876556,-0.45894238352775574,-0.40411168336868286,30.56011390686035,-9.8526029586792,41.663578033447266,0
196,1959975,0.009153288789093494,-0.0702688917517662,-1.0100239515304565,-0.24236798286437988,0.07404982298612595,0.7257876992225647,28.333942413330078,-9.538190841674805,38.318939208984375,0
197,1969786,-0.0012070327065885067,0.002129235537722707,-0.9713437557220459,-0.27724969387054443,0.335477739572525,0.09473814815282822,30.598337173461914,-10.53588581085205,40.73502731323242,0
198,1980005,-0.057155292481184006,0.035253044217824936,-1.0530346632003784,0.05963180959224701,0.6846197247505188,-0.1769159883260727,30.6793212890625,-9.705571174621582,40.094322204589844,0
199,1989785,6.947376823518425e-05,0.06527647376060486,-1.0061557292938232,0.5732703804969788,0.2060004621744156,-0.12513527274131775,29.927228927612305,-10.267501831054688,41.33897399902344,0
200,1999957,-0.025732707232236862,-0.019641010090708733,-0.9934746623039246,-0.8525300025939941,-0.0674358531832695,0.08226405084133148,31.887014389038086,-8.747064590454102,39.549835205078125,0
201,2009926,-0.00899084284901619,-0.026888037100434303,-1.011070728302002,-0.4466210603713989,0.1955975890159607,-0.19207705557346344,30.017751693725586,-9.249266624450684,41.810035705566406,0
202,2019776,0.07180719077587128,0.014418178237974644,-1.0170397758483887,-0.5443711876869202,-0.9442330598831177,-1.1599133014678955,28.50302505493164,-11.382658004760742,40.650733947753906,0
203,2029846,0.039853546768426895,0.015502272173762321,-1.0052345991134644,0.04185603931546211,0.2173900306224823,-0.22121241688728333,30.128076553344727,-10.850810050964355,40.614662170410156,0
204,2040209,-0.05549556016921997,-0.03415576368570328,-0.9842864274978638,-0.39797770977020264,-0.08575267344713211,0.27829450368881226,29.993616104125977,-11.601997375488281,40.94582748413086,0
205,2049967,-0.01001044549047947,0.004653815645724535,-0.9964876174926758,0.7198666930198669,0.4770233929157257,-0.2842012941837311,30.052385330200195,-10.366584777832031,42.462825775146484,0
206,2059759,0.09023390710353851,0.00769682414829731,-1.0005578994750977,0.04033350199460983,0.5027135610580444,-0.31003469228744507,31.03394317626953,-11.207836151123047,41.411720275878906,0
207,2070134,0.00914025865495205,-0.02034095861017704,-0.995896577835083,0.48999011516571045,-0.5696004033088684,-0.18203014135360718,30.63190269470215,-11.034819602966309,41.171180725097656,0
208,2080019,-0.08105047047138214,0.051272764801979065,-0.9845490455627441,-0.32079073786735535,0.40295007824897766,0.3890911340713501,28.96734046936035,-8.16878890991211,40.7002067565918,0
209,2089846,-0.04331918805837631,-0.03662391006946564,-0.9849469065666199,0.23697267472743988,0.7333486676216125,0.36255860328674316,31.601119995117188,-9.74626636505127,39.576541900634766,0
210,2100110,0.02627304010093212,0.08360458165407181,-1.0126687288284302,0.21001815795898438,-1.1527609825134277,0.5360104441642761,29.5340633392334,-9.439518928527832,39.563934326171875,0
211,2109957,0.035239171236753464,-0.10178037732839584,-1.0047980546951294,0.01330812182277441,-0.394972562789917,0.0355370007455349,30.039058685302734,-8.546913146972656,39.52043533325195,0
212,2120222,0.06804521381855011,-0.0375523641705513,-0.9815751910209656,0.22639621794223785,-0.08808690309524536,0.25515955686569214,31.592836380004883,-10.71502685546875,39.88214874267578,0
213,2129999,-0.027569983154535294,0.027806395664811134,-0.9883602261543274,0.27280154824256897,0.5323315858840942,0.425490140914917,30.22732925415039,-10.978456497192383,40.55363464355469,0
214,2140026,0.05701902136206627,-0.034980956465005875,-1.0063767433166504,-0.08061141520738602,-0.08660200983285904,-0.21294890344142914,30.84189224243164,-8.805644989013672,40.37588882446289,0
215,2149900,0.018106592819094658,0.008773216977715492,-0.9828447699546814,0.2807886600494385,0.048266731202602386,0.42233648896217346,28.507673263549805,-10.003894805908203,39.38007736206055,0
216,2160072,0.0841670110821724,-0.03374958783388138,-1.0119197368621826,0.07225720584392548,0.2208976298570633,0.3578636944293976,29.440210342407227,-10.616390228271484,39.61681365966797,0
217,2170229,0.08288783580064774,0.028782617300748825,-0.9939379692077637,-0.7469429969787598,0.1984558254480362,-0.8989617228507996,29.353628158569336,-9.408461570739746,39.87816619873047,0
218,2180122,-0.0033219868782907724,-0.00808153860270977,-0.9689474701881409,0.7260838150978088,0.25503721833229065,0.21659508347511292,31.663175582885742,-8.706851959228516,38.08970260620117,0
219,2189920,0.051151324063539505,0.016458138823509216,-1.0073004961013794,0.22619475424289703,0.4005330204963684,-0.22877423465251923,30.64516830444336,-11.631317138671875,39.54173278808594,0
220,2200081,-0.03211887553334236,-0.01656978949904442,-1.002447247505188,-0.7020952701568604,-0.6197412610054016,0.501009464263916,29.462732315063477,-10.43930721282959,41.791934967041016,0
221,2210033,0.06794629991054535,0.0016664102440699935,-0.9948247075080872,0.8859050869941711,-0.27453500032424927,-0.44812893867492676,30.891387939453125,-9.61780834197998,38.7119140625,0
222,2220058,-0.024250824004411697,-0.06802279502153397,-1.0124529600143433,-0.0336996354162693,0.39949455857276917,-0.36565983295440674,29.38239860534668,-9.252711296081543,39.807106018066406,0
223,2229977,0.09536291658878326,0.04473954811692238,-1.0000762939453125,-0.25275948643684387,0.8198272585868835,0.8918792605400085,28.19045639038086,-10.806066513061523,39.37688446044922,0
224,2240208,-0.0866045281291008,-0.0816885232925415,-0.9904865026473999,0.22870828211307526,-0.512882649898529,-0.7322187423706055,31.424707412719727,-8.969695091247559,40.10719299316406,0
225,2249939,-0.04132596775889397,0.03142787516117096,-0.9721825122833252,1.0491529703140259,-0.9354275465011597,1.2925753593444824,32.655853271484375,-10.217666625976562,39.764774322509766,0
226,2260340,0.0919613465666771,-0.006436073686927557,-1.0193629264831543,0.2312745600938797,0.0069401147775352,0.22846537828445435,29.703371047973633,-6.627575874328613,39.802120208740234,0
227,2270103,-0.0739002674818039,0.04342946410179138,-1.035582184791565,0.5566049814224243,-0.4811154007911682,-1.1066575050354004,31.667034149169922,-10.994756698608398,39.2617301940918,0
228,2280105,-0.014024760574102402,-0.02120870165526867,-0.9367344379425049,-0.22140373289585114,-0.2929724156856537,-0.4675060212612152,31.42696762084961,-9.634330749511719,40.631778717041016,0
229,2290010,-0.002333653625100851,-0.01977459527552128,-1.0309280157089233,0.1754533350467682,0.8654065728187561,-0.7465970516204834,30.372520446777344,-11.227572441101074,40.83778381347656,0
230,2300241,-0.0028328534681349993,-0.05760256573557854,-0.9803670644760132,-0.064862921833992,0.6791278719902039,0.02268562652170658,31.349027633666992,-11.100866317749023,40.0952262878418,0
231,2310120,-0.020717404782772064,-0.038772862404584885,-1.0036102533340454,-0.296660453081131,-0.33461010456085205,-0.5064921975135803,29.881025314331055,-8.121087074279785,40.28196334838867,0
232,2319655,0.011876867152750492,0.06103666499257088,-1.0161665678024292,-0.012833228334784508,0.5963324904441833,-0.05939916521310806,30.134660720825195,-9.836240768432617,41.525211334228516,0
233,2330225,-0.0010513345478102565,0.09592030942440033,-1.0029191970825195,0.3888213634490967,-0.7134904861450195,-0.20806501805782318,28.84377670288086,-11.202230453491211,40.30474090576172,0
234,2340049,-0.04210367053747177,-0.038264233618974686,-0.9776231050491333,-0.5150020718574524,-0.31894364953041077,1.0027074813842773,31.165538787841797,-9.867317199707031,40.77851104736328,0
235,2350228,0.024436602368950844,0.033385299146175385,-1.0039900541305542,0.2393283247947693,-0.061481744050979614,-0.7329118251800537,28.06040382385254,-9.33131217956543,40.73051071166992,0
236,2360098,0.046956125646829605,-0.009696830064058304,-1.0130811929702759,-0.5348580479621887,0.02848416194319725,0.38443902134895325,29.269441604614258,-8.196532249450684,38.717655181884766,0
237,2369972,0.013584718108177185,-0.012392046861350536,-1.003670334815979,0.1277521848678589,0.8480197787284851,0.29095011949539185,29.129070281982422,-10.649857521057129,40.15196228027344,0
238,2380228,0.10299167782068253,-0.008471580222249031,-0.9866435527801514,0.4144718647003174,0.0422610305249691,-0.3190312683582306,30.743738174438477,-9.062041282653809,39.31257629394531,0
239,2389907,-0.05918453633785248,-0.026151690632104874,-0.979649543762207,-0.40115752816200256,0.9930612444877625,0.34117287397384644,30.477588653564453,-9.504384994506836,41.17002868652344,0
240,2400045,0.013358857482671738,-0.0717497244477272,-0.9919700026512146,0.9668687582015991,0.549677848815918,0.18677161633968353,29.525405883789062,-8.979747772216797,39.6924934387207,0
241,2409976,-0.08227089792490005,0.004488662350922823,-1.0248991250991821,0.8234201073646545,0.976048469543457,0.6803052425384521,30.24908447265625,-11.458189964294434,40.24430847167969,0
242,2420109,0.08976689726114273,-0.04504496604204178,-1.0192391872406006,0.29764437675476074,-0.472173810005188,0.07594472914934158,30.15715217590332,-9.086063385009766,41.26628494262695,0
243,2430075,0.0081651471555233,-0.0496293380856514,-1.024552583694458,0.5677107572555542,0.4088450074195862,-0.24000684916973114,30.98345375061035,-9.80053997039795,38.07354736328125,0
244,2440072,-0.005343982949852943,0.04372808709740639,-0.9759173393249512,-0.11523718386888504,-0.023425284773111343,-0.5463359355926514,29.491125106811523,-9.68314266204834,39.58708953857422,0
245,2449956,-0.020454807206988335,-0.011494922451674938,-1.0025646686553955,0.059680912643671036,-0.5052673816680908,1.3555893898010254,29.05084228515625,-10.869522094726562,40.67409896850586,0
246,2459992,0.007938823662698269,0.06617633253335953,-1.0153114795684814,0.24876870214939117,-0.5585165023803711,-0.33798596262931824,30.237220764160156,-9.663812637329102,38.926124572753906,0
247,2469780,-0.09004849940538406,-0.027952613309025764,-1.043715476989746,0.22081193327903748,-0.2122490257024765,-1.415052890777588,29.071908950805664,-11.595797538757324,39.13945007324219,0
248,2479906,-0.14322225749492645,-0.01385733112692833,-1.0081101655960083,0.20554310083389282,0.6284306645393372,-0.3518325984477997,29.893138885498047,-10.99560546875,40.551177978515625,0
249,2489623,0.017896130681037903,0.09104561805725098,-0.9809412956237793,0.021954303607344627,-0.7649272084236145,0.021172059699892998,29.33737564086914,-9.366812705993652,38.96254348754883,0
250,2500059,-0.013851914554834366,0.04990589618682861,-1.0110119581222534,0.2581652104854584,0.5597869157791138,0.246673122048378,29.511056900024414,-7.832123756408691,40.30659103393555,0
251,2510015,-0.17883214354515076,-0.06455720216035843,-1.0030096769332886,-0.1049065887928009,0.7238490581512451,0.7379564642906189,30.42920684814453,-8.638909339904785,39.54928207397461,0
252,2519751,-0.04245232790708542,-0.002186502330005169,-1.0090610980987549,-0.2325625866651535,0.7059736847877502,0.9384016394615173,30.515321731567383,-10.681134223937988,42.044944763183594,0
253,2530074,0.013327258639037609,0.015157611109316349,-0.9899371862411499,0.6635242104530334,0.22035792469978333,-0.6230584979057312,27.046485900878906,-9.616158485412598,39.910552978515625,0
254,2540038,-0.04058140143752098,-0.02965542860329151,-0.9873154759407043,-0.0016426312504336238,0.289573073387146,0.35998332500457764,30.21445655822754,-10.864751815795898,39.962501525878906,0
255,2549885,0.04005780443549156,0.019056718796491623,-1.0060280561447144,-0.7004061341285706,0.4633873701095581,0.7196451425552368,31.001922607421875,-9.226234436035156,39.883094787597656,0
256,2560157,-0.04003780335187912,-0.06277427077293396,-0.97114098072052,0.08071190118789673,-0.2575080692768097,0.08948849886655807,29.40262794494629,-10.15148639678955,40.57916259765625,0
257,2570140,0.006353002041578293,-0.03056470863521099,-0.9919888973236084,0.2634700834751129,0.389305979013443,1.258443832397461,32.193111419677734,-10.1871919631958,39.178279876708984,0
258,2580175,-0.06699851900339127,-0.031168073415756226,-1.0074200630187988,1.2279833555221558,0.7231186628341675,0.057294804602861404,30.513479232788086,-12.03261947631836,40.24428939819336,0
259,2590085,-0.032558172941207886,0.032272256910800934,-1.0316417217254639,-0.3305858373641968,-0.3742777705192566,0.3141739070415497,31.34288787841797,-9.094491958618164,41.39613723754883,0
260,2599847,-0.09343794733285904,0.030158838257193565,-1.018088698387146,0.33611977100372314,-0.6955674290657043,-0.33751899003982544,28.99558448791504,-9.918148040771484,40.38990020751953,0
261,2609781,0.009853947907686234,0.03565659746527672,-1.0347344875335693,-0.26651790738105774,-0.5367485880851746,-0.43341299891471863,32.023826599121094,-10.474821090698242,40.1090202331543,0
262,2619871,-0.06465557217597961,-0.0100685590878129,-1.0331149101257324,0.1225748062133789,-0.32112789154052734,-0.40777748823165894,29.338932037353516,-10.101752281188965,39.63123321533203,0
263,2630041,-0.028772922232747078,0.03752950206398964,-1.0371363162994385,0.2850969731807709,0.11372166872024536,0.08530645072460175,31.539772033691406,-10.088827133178711,37.78863525390625,0
264,2639902,0.012160277925431728,0.03557600453495979,-0.9881951212882996,0.7310787439346313,0.9435773491859436,-0.08524670451879501,29.485734939575195,-10.40272331237793,42.058204650878906,0
265,2649905,0.0028724961448460817,-0.031454071402549744,-0.9647838473320007,-0.35008856654167175,0.34324467182159424,-0.06229429692029953,28.228519439697266,-11.486591339111328,39.69002151489258,0
266,2659855,-0.036854829639196396,0.03668273240327835,-0.9955949187278748,-0.4716563820838928,-0.7408119440078735,0.09229505807161331,28.711402893066406,-9.563016891479492,38.91454315185547,0
267,2670070,0.00893465243279934,-0.07269421219825745,-0.9965187311172485,0.7972287535667419,-1.2280263900756836,-1.3287887573242188,30.248180389404297,-10.960087776184082,40.456016540527344,0
268,2679813,-0.10810930281877518,0.01500150840729475,-1.0038319826126099,0.1733904480934143,-0.13808852434158325,0.5603704452514648,30.197431564331055,-10.606338500976562,42.88550567626953,0
269,2690261,0.023687882348895073,-0.10894493758678436,-0.988963782787323,0.3178240656852722,0.4735637605190277,0.513474702835083,29.705957412719727,-11.301313400268555,41.09922409057617,0
270,2699824,0.010018851608037949,0.06489359587430954,-0.9969555735588074,0.25499871373176575,0.11959788203239441,0.8662533760070801,29.84052848815918,-11.160477638244629,39.5131721496582,0
271,2710096,-0.0067483969032764435,-0.08829417824745178,-1.0117207765579224,0.39994412660598755,-0.149016872048378,-0.4297644793987274,30.491559982299805,-10.123720169067383,41.86000442504883,0
272,2719995,-0.09515396505594254,-0.01554042287170887,-0.9691163897514343,0.46835148334503174,-0.46880728006362915,-0.16676388680934906,29.48627281188965,-10.220307350158691,41.384986877441406,0
273,2730192,0.11037079244852066,-0.10813075304031372,-1.002668023109436,0.2857913076877594,0.6853466033935547,0.20141533017158508,31.338415145874023,-9.009370803833008,40.54667663574219,0
274,2740084,-0.01538056693971157,0.08015996962785721,-1.0354747772216797,-0.5595540404319763,-0.6459605693817139,0.728789746761322,30.470279693603516,-9.532190322875977,41.040985107421875,0
275,2749889,0.029441814869642258,-0.05084572359919548,-1.01577627658844,-0.4087269604206085,-0.07335923612117767,0.3637751638889313,30.031570434570312,-9.444276809692383,38.69011688232422,0
276,2760178,-0.03510376438498497,-0.022478798404335976,-1.0101054906845093,0.11479891836643219,-0.2727050483226776,0.6966234445571899,31.300386428833008,-9.627880096435547,40.054542541503906,0
277,2769883,-0.0581352636218071,0.004195606801658869,-0.9783490300178528,-0.053177740424871445,0.688240647315979,0.29981905221939087,29.553359985351562,-11.920062065124512,40.00141143798828,0
278,2779808,-0.016188086941838264,-0.0004155189963057637,-0.9997367262840271,-0.6011621356010437,0.19992665946483612,-0.688180148601532,29.625411987304688,-11.298951148986816,41.67455291748047,0
279,2789903,-0.01889442279934883,0.05098019912838936,-0.9933608770370483,-0.3355230391025543,0.6052365303039551,-0.1041744276881218,29.786819458007812,-11.369997024536133,39.78619384765625,0
280,2799705,-0.098334901034832,-0.05285675823688507,-0.9927821159362793,0.2890271246433258,0.5030239820480347,-0.029034221544861794,31.655649185180664,-11.104506492614746,41.7087287902832,0
281,2809766,0.06849279254674911,0.10352656245231628,-1.0179966688156128,-0.5509992241859436,0.7034353613853455,0.26361119747161865,28.853118896484375,-10.494708061218262,38.46737289428711,0
282,2820052,0.06497201323509216,0.034192830324172974,-1.0548107624053955,-0.4503953456878662,-0.5822217464447021,0.45578643679618835,29.469388961791992,-9.11173152923584,37.96015548706055,0
283,2829947,-0.029296135529875755,-0.02807728387415409,-0.9988112449645996,-0.28456297516822815,0.3165358603000641,-1.0558478832244873,29.29673194885254,-10.141487121582031,39.44801330566406,0
284,2839959,0.031136121600866318,-0.009994077496230602,-1.0234401226043701,-0.05993448570370674,0.06446882337331772,0.03792447969317436,30.091894149780273,-11.253631591796875,39.47772216796875,0
285,2849849,-0.10218265652656555,-0.05465206131339073,-0.9900649189949036,0.48580318689346313,0.009546692483127117,-0.30753853917121887,30.761764526367188,-9.23908805847168,38.28293991088867,0
286,2860008,0.013526205904781818,0.0023534786887466908,-1.0127657651901245,0.25181105732917786,-0.546754002571106,0.49209409952163696,29.71764373779297,-8.866571426391602,39.52284240722656,0
287,2870312,0.006242530886083841,0.022425860166549683,-0.9885315299034119,0.5621758103370667,-0.030219191685318947,0.6182342767715454,27.658954620361328,-9.536516189575195,42.75917053222656,0
288,2880143,-0.007478239480406046,0.013086261227726936,-1.0101903676986694,0.14901845157146454,-0.8191233277320862,-0.0651334598660469,30.132144927978516,-9.362335205078125,39.81110382080078,0
289,2890262,0.020083269104361534,-0.06026766821742058,-0.9815872311592102,-0.41928163170814514,-0.20263923704624176,-0.46672555804252625,29.883031845092773,-9.983604431152344,40.303855895996094,0
290,2899852,-0.06431549787521362,0.005911509972065687,-0.9726559519767761,-0.4121890962123871,-0.0376182459294796,0.31040167808532715,28.85484504699707,-11.770834922790527,40.685306549072266,0
291,2909851,-0.017634032294154167,0.011866338551044464,-1.0299397706985474,-0.47307682037353516,0.6318811178207397,1.4283937215805054,31.375158309936523,-10.461126327514648,39.14771270751953,0
292,2919852,0.0839526504278183,0.011417049914598465,-1.0021172761917114,-0.5633699297904968,-0.10710526257753372,0.19261059165000916,29.78863525390625,-10.487162590026855,40.77757263183594,0
293,2929705,0.03359260782599449,-0.06958463788032532,-1.0186413526535034,-0.4188532829284668,0.2225017547607422,1.3581722974777222,31.313642501831055,-10.616255760192871,40.390098571777344,0
294,2939872,-0.017304331064224243,-0.1177874431014061,-1.03367018699646,0.6994963884353638,-0.6222749948501587,-0.4783789813518524,31.117341995239258,-10.924888610839844,39.51505661010742,0
295,2950336,-0.012383108958601952,0.06201497092843056,-1.0185661315917969,0.16329364478588104,-0.557191014289856,-0.6305959224700928,28.745344161987305,-12.09132194519043,40.60932540893555,0
296,2959957,0.042462095618247986,0.06163319945335388,-1.0218133926391602,0.7305570244789124,-0.4766131043434143,-0.15351174771785736,30.634689331054688,-11.100872039794922,40.37839126586914,0
297,2969966,0.02844775654375553,-0.06851451098918915,-0.9669092297554016,0.37495577335357666,-0.13845546543598175,0.6078019142150879,29.939685821533203,-9.858778953552246,39.810386657714844,0
298,2979954,0.012083252891898155,0.006806754972785711,-1.0232245922088623,-0.4963979721069336,0.8680849075317383,0.8366541266441345,30.18737030029297,-7.612963676452637,39.97616195678711,0
299,2990038,-0.03608709201216698,-0.0005829077563248575,-0.9993691444396973,-0.2143212854862213,0.5245742797851562,-0.045681267976760864,29.66266632080078,-10.49010944366455,40.30514907836914,0
300,2999802,-0.06799337267875671,-0.08620942384004593,-1.0176376104354858,0.8729528784751892,-0.7240822911262512,-0.4319861829280853,30.435253143310547,-10.07901668548584,39.941139221191406,0
301,3009886,0.009376359172165394,0.06658385694026947,-0.992103099822998,-0.5845241546630859,-0.35684844851493835,-0.9528651237487793,30.891756057739258,-9.777263641357422,40.42145538330078,0
302,3020121,-0.010088736191391945,0.017095446586608887,-0.9908589720726013,-0.25272753834724426,-0.49767088890075684,-0.15866011381149292,28.992586135864258,-11.292305946350098,39.79463195800781,0
303,3029957,-0.02741342782974243,-0.05431479960680008,-1.0255733728408813,0.38970690965652466,-0.3647921085357666,-0.4851054549217224,30.14752960205078,-9.334125518798828,39.2054328918457,0
304,3039630,0.029661664739251137,-0.0629558190703392,-1.0194976329803467,-0.3268586993217468,0.5522552132606506,1.0959266424179077,29.757631301879883,-9.707509994506836,38.179473876953125,0
305,3049861,-0.06632965058088303,-0.03093588538467884,-1.0172698497772217,-0.24853423237800598,-0.8283098936080933,-0.19602130353450775,29.598730087280273,-9.911893844604492,40.49352264404297,0
306,3059794,-0.023097757250070572,0.05995114520192146,-0.9873436093330383,-0.0582658089697361,0.700018584728241,-0.6838883757591248,29.15487289428711,-9.213576316833496,41.393699645996094,0
307,3070181,-0.031701963394880295,0.04018808901309967,-0.9778051376342773,-0.6228204965591431,0.727297306060791,-0.07066664099693298,28.913402557373047,-10.876677513122559,39.80154037475586,0
308,3079899,0.08450136333703995,0.023412125185132027,-1.0121663808822632,0.2587520480155945,-0.26954054832458496,0.2417755424976349,29.115158081054688,-10.146991729736328,39.418758392333984,0
309,3090193,-0.07622627168893814,0.020056260749697685,-1.0001342296600342,0.36043721437454224,0.7030733823776245,0.3602517545223236,28.773038864135742,-9.56444263458252,41.648807525634766,0
310,3100129,-0.08793222904205322,0.008337466046214104,-0.9756965041160583,-0.06250610947608948,0.6471395492553711,-0.3886064887046814,29.264524459838867,-10.10512638092041,40.43614959716797,0
311,3110141,-0.022829880937933922,0.014694435521960258,-1.0086742639541626,-0.10020526498556137,-0.40603405237197876,-0.5204758644104004,30.44210433959961,-10.372977256774902,41.149436950683594,0
312,3120224,0.028904924169182777,0.0060446374118328094,-1.0190274715423584,-0.1026264876127243,-1.29298996925354,-0.43258270621299744,30.458953857421875,-9.912014961242676,39.21944808959961,0
313,3129865,-0.05737312138080597,0.03551448509097099,-1.0520360469818115,0.5702484250068665,-0.5201576352119446,-0.11958181858062744,29.199337005615234,-10.2821683883667,40.537391662597656,0
314,3140160,-0.006224591284990311,-0.011938145384192467,-1.0290895700454712,-1.020368218421936,0.5344896912574768,-0.5092068910598755,29.534202575683594,-11.664376258850098,40.19527053833008,0
315,3149980,0.1225694790482521,-0.06938233971595764,-0.9675734043121338,-0.20980392396450043,-0.8577371835708618,-0.2819720506668091,29.067962646484375,-9.94990348815918,40.472755432128906,0
316,3160013,-0.007107111159712076,-0.00989177729934454,-1.0289536714553833,-0.1105675920844078,0.22391028702259064,-0.28904223442077637,29.641902923583984,-10.084242820739746,39.730228424072266,0
317,3170224,-0.08781836181879044,-0.11846049875020981,-1.0061793327331543,-0.5748875141143799,-1.1524205207824707,0.12238459289073944,26.973247528076172,-9.91909408569336,40.004180908203125,0
318,3180150,0.034709569066762924,-0.002597206272184849,-1.031287431716919,0.22377148270606995,0.3561573922634125,-0.03165755420923233,29.59841537475586,-10.418622970581055,42.22600555419922,0
319,3190238,-0.02643505111336708,-0.007539082784205675,-1.0126235485076904,0.6405673027038574,0.474185973405838,-0.9935052394866943,30.323936462402344,-9.194750785827637,39.878318786621094,0
320,3200046,0.11217701435089111,0.017998352646827698,-1.027796983718872,0.4784071147441864,0.26685667037963867,-0.017038654536008835,30.433761596679688,-11.770709991455078,38.718326568603516,0
321,3209893,0.042775172740221024,-0.02707958221435547,-0.9835621118545532,0.18146613240242004,-0.907124400138855,-0.4285490810871124,29.261432647705078,-9.383413314819336,39.389801025390625,0
322,3219785,-0.041047610342502594,-0.0783349871635437,-0.9993604421615601,-0.7332736253738403,0.20282761752605438,0.05182214453816414,29.5057373046875,-8.155448913574219,39.65424346923828,0
323,3230087,-0.04180388152599335,0.022419413551688194,-0.9866291880607605,-0.8465306758880615,0.6034665107727051,-0.8811578750610352,28.245336532592773,-9.092350959777832,39.3395881652832,0
324,3239979,0.05689471587538719,-0.07752475142478943,-0.9933998584747314,0.03582935780286789,-0.16089585423469543,0.7312341332435608,29.04744529724121,-10.131561279296875,40.007991790771484,0
325,3250091,-0.08001136779785156,0.04317038506269455,-1.0084717273712158,-0.028889169916510582,0.326987624168396,-0.13514547049999237,30.085786819458008,-9.853964805603027,40.51858901977539,0
326,3260129,-0.06079026311635971,-0.06206076219677925,-0.9739795923233032,0.6668350100517273,-0.6926311254501343,0.6293866038322449,29.61806297302246,-11.271794319152832,40.33863830566406,0
327,3269867,-0.02433854341506958,-0.05352769047021866,-0.962753415107727,-0.5438345670700073,-0.6297440528869629,0.20463863015174866,30.35152816772461,-8.602808952331543,39.650726318359375,0
328,3279726,-0.0859149843454361,0.025279860943555832,-0.9983188509941101,-0.7088780999183655,0.9325474500656128,-0.7082626223564148,28.852773666381836,-8.374156951904297,39.91764831542969,0
329,3289861,-0.02515239827334881,-0.07522045820951462,-1.024037480354309,-0.423365980386734,-0.8652319312095642,-0.8527982831001282,30.234495162963867,-10.414013862609863,39.084739685058594,0
330,3300036,0.06329979747533798,0.02638733945786953,-1.02223801612854,-0.7231076955795288,-0.28005582094192505,-0.9870392680168152,30.880746841430664,-8.60596752166748,39.81972122192383,0
331,3310306,0.07471154630184174,0.027334637939929962,-0.972195029258728,0.5948309898376465,0.5323150157928467,0.18856261670589447,30.9224853515625,-10.570487976074219,37.56269836425781,0
332,3320104,0.005013450980186462,0.04635205492377281,-0.9632098078727722,0.1496657133102417,0.5446746349334717,0.3673665225505829,29.30045509338379,-10.049036979675293,41.75984573364258,0
333,3329989,-0.01751077175140381,0.12916922569274902,-0.9817845225334167,0.9163841605186462,0.758030116558075,0.11654259264469147,30.46831512451172,-10.341024398803711,38.648414611816406,0
334,3339933,0.029908834025263786,0.04041837155818939,-1.020003080368042,-0.13021953403949738,0.2743833661079407,0.021123085170984268,30.53184700012207,-9.783393859863281,40.57486343383789,0
335,3349862,-0.08249340206384659,-0.03413534536957741,-0.991484522819519,0.14858928322792053,-0.3193393349647522,0.3281540274620056,29.932950973510742,-10.142406463623047,39.839759826660156,0
336,3359953,-0.07181700319051743,0.009978124871850014,-0.9858607649803162,0.06576210260391235,0.5363208055496216,-0.7623652219772339,29.707748413085938,-10.778020858764648,40.258628845214844,0
337,3370194,0.02079874649643898,0.009271047078073025,-0.9757936000823975,0.4725632071495056,0.36079689860343933,0.702552318572998,30.364559173583984,-9.987936019897461,40.64464569091797,0
338,3380131,0.06603685766458511,0.029749153181910515,-0.9610669612884521,-0.12172570079565048,0.0739360824227333,1.1303911209106445,29.94468116760254,-10.0694580078125,40.055423736572266,0
339,3389836,-0.020599743351340294,-0.05780922621488571,-1.0274125337600708,-0.5242800712585449,0.0024103117175400257,0.18559233844280243,30.820924758911133,-8.555221557617188,40.10227584838867,0
340,3400234,-0.02539820969104767,-0.03556087613105774,-0.9586698412895203,1.0109456777572632,0.1001897007226944,1.1583834886550903,32.78010177612305,-10.104408264160156,39.568382263183594,0
341,3409990,0.0008092307834886014,0.015847716480493546,-1.0107762813568115,0.6622577905654907,-0.2762007713317871,0.8591437339782715,28.528343200683594,-9.577611923217773,41.016075134277344,0
342,3419810,0.025690535083413124,-0.012920464389026165,-1.0247743129730225,0.9747830033302307,-0.2531522810459137,-0.12972457706928253,28.786598205566406,-11.711030960083008,40.60662078857422,0
343,3429933,0.05206231400370598,0.003765038913115859,-0.9652129411697388,0.7457068562507629,-0.009866110049188137,0.6699202060699463,31.446643829345703,-9.064271926879883,39.029842376708984,0
344,3439809,0.0006741532124578953,0.007594314403831959,-0.9879347681999207,-0.10383797436952591,0.38272297382354736,0.289944589138031,30.75021743774414,-10.055069923400879,40.07662582397461,0
345,3449829,-0.0091560622677207,-0.06291373819112778,-0.9940500259399414,0.12596741318702698,0.867163896560669,-0.9321633577346802,29.411270141601562,-8.548661231994629,39.89822769165039,0
346,3460050,-0.013575103133916855,-0.031846605241298676,-1.017361044883728,-0.0339982770383358,0.18029341101646423,-0.13398617506027222,30.887910842895508,-10.936111450195312,39.07643127441406,0
347,3469891,0.049441758543252945,-0.030452733859419823,-0.9914145469665527,0.16869458556175232,0.7735467553138733,0.20454496145248413,28.077978134155273,-11.350123405456543,40.55984115600586,0
348,3479830,0.0072225602343678474,-0.03337055444717407,-0.9772800207138062,-0.8720913529396057,-0.2781667411327362,0.12312422692775726,30.769317626953125,-10.465331077575684,38.85233688354492,0
349,3489891,0.03107822872698307,-0.000502830371260643,-1.024482011795044,-0.10968265682458878,-0.24088411033153534,0.940483033657074,31.035850524902344,-9.73192024230957,40.85257339477539,0
350,3500012,-0.06125010922551155,-0.0822584480047226,-1.0102936029434204,-0.37169891595840454,-0.11967258900403976,0.23430326581001282,32.432830810546875,-11.43040657043457,38.49992370605469,0
351,3510018,0.021004673093557358,0.021733880043029785,-0.9991841316223145,0.06789005547761917,-1.1938421726226807,-0.19031375646591187,30.940433502197266,-8.21664810180664,41.184852600097656,0
352,3520070,0.01830538548529148,0.005496788304299116,-1.0088591575622559,0.6135939955711365,-0.2566432058811188,0.010770113207399845,30.42729949951172,-9.806292533874512,40.58953857421875,0
353,3530008,-0.044225845485925674,-0.0678025484085083,-0.9789131879806519,0.4831472933292389,0.06435573101043701,-0.6124008893966675,29.16478729248047,-10.777166366577148,39.62234115600586,0
354,3539839,-0.05249938741326332,0.09819217026233673,-0.9912868738174438,0.022940203547477722,0.09483492374420166,0.777256429195404,29.016414642333984,-10.616641998291016,41.44706344604492,0
355,3549913,-0.020114390179514885,-0.06228458508849144,-0.9985620379447937,-0.7541443705558777,-0.04980701953172684,-0.42949262261390686,32.398311614990234,-12.153902053833008,41.28518295288086,0
356,3560043,0.034674350172281265,-0.0006280507077462971,-0.9765657186508179,0.01097811944782734,-0.23867490887641907,0.30271703004837036,29.384199142456055,-9.623719215393066,39.61323547363281,0
357,3570165,-0.043451566249132156,-0.01029903069138527,-1.0349829196929932,0.21925024688243866,0.9124333262443542,-0.06335047632455826,29.63750457763672,-11.19204330444336,40.843421936035156,0
358,3580032,0.04392903670668602,0.002896594349294901,-1.0286864042282104,0.3938724994659424,-0.5141022205352783,0.4389229714870453,29.877704620361328,-8.414426803588867,40.13063049316406,0
359,3589699,0.02210552804172039,-0.03294321522116661,-1.0200917720794678,1.2547681331634521,0.43267467617988586,0.2169899195432663,29.652305603027344,-9.497779846191406,41.41085433959961,0
360,3600068,0.04395828768610954,-0.14093486964702606,-0.9499910473823547,0.07161787897348404,0.6843449473381042,-1.1148130893707275,29.44681167602539,-9.67821979522705,39.75795364379883,0
361,3609940,-0.0721721351146698,-0.014683716930449009,-0.9906240701675415,0.1868874579668045,-0.6812013387680054,0.6014350652694702,28.585737228393555,-6.450153827667236,38.544307708740234,0
362,3619847,0.027855955064296722,-0.05193082615733147,-1.008134365081787,0.3816293478012085,0.5574173927307129,0.47721463441848755,30.293725967407227,-9.713759422302246,40.1372184753418,0
363,3630070,0.0004646961169783026,0.05541740730404854,-0.9978939890861511,0.5203336477279663,-0.20517048239707947,-0.4156317114830017,27.87225914001465,-9.201004028320312,39.90206527709961,0
364,3640012,-0.012414521537721157,0.03588605672121048,-0.9905470609664917,-0.482128769159317,-0.5523204207420349,-0.17948000133037567,30.77749252319336,-8.610454559326172,40.43158721923828,0
365,3649736,-0.023421496152877808,0.0027169373352080584,-0.9682302474975586,-0.40457457304000854,-0.851732075214386,0.6122255325317383,27.417095184326172,-10.749513626098633,39.1557502746582,0
366,3660048,0.004401540383696556,0.03370697796344757,-1.0187649726867676,0.3834565579891205,-0.49351802468299866,0.9799935221672058,30.183273315429688,-10.585514068603516,38.74324035644531,0
367,3669861,-0.0516909696161747,0.021758347749710083,-1.0310554504394531,0.32075393199920654,-0.5795312523841858,-0.2724454998970032,29.166107177734375,-9.759493827819824,41.615447998046875,0
368,3679838,0.08119667321443558,0.06940507143735886,-1.0116775035858154,0.916391134262085,0.05935882776975632,0.5208593010902405,29.980316162109375,-10.28311538696289,41.933265686035156,0
369,3689808,0.046765439212322235,-0.08471333235502243,-1.0013476610183716,-0.11096340417861938,0.6619018912315369,-0.12817414104938507,31.24912452697754,-9.394187927246094,40.97935104370117,0
370,3699834,-0.05303765460848808,0.07605431228876114,-1.0602384805679321,0.3308202028274536,-0.3766638934612274,-0.23011784255504608,29.330902099609375,-10.649796485900879,39.971412658691406,0
371,3710010,-0.0526357963681221,0.04649659991264343,-1.0110000371932983,0.4651361405849457,-0.06362545490264893,0.9241057634353638,30.93754768371582,-9.478075981140137,38.947227478027344,0
372,3719740,0.014025382697582245,0.06577256321907043,-1.0059105157852173,0.3234659433364868,-0.5723298788070679,0.07857996225357056,30.45745277404785,-10.067145347595215,38.81351852416992,0
373,3730029,0.060370393097400665,0.011140363290905952,-0.991802990436554,0.009061498567461967,-0.8485957384109497,0.3555825352668762,31.167844772338867,-9.95975399017334,39.626102447509766,0
374,3740112,-0.06198066473007202,0.01121661625802517,-0.990509569644928,0.4088604748249054,0.024066653102636337,0.28991952538490295,31.187488555908203,-10.396222114562988,41.50871658325195,0
375,3749855,0.030652139335870743,-0.0023917818907648325,-0.9841781258583069,1.0230845212936401,-0.02106349729001522,-0.2964785397052765,30.290546417236328,-9.73474407196045,40.47542190551758,0
376,3760010,0.04113302379846573,-0.06397879868745804,-1.017772912979126,0.587348997592926,0.3688247501850128,0.5663894414901733,31.01150131225586,-10.480573654174805,39.58323287963867,0
377,3770154,-0.047934263944625854,0.009109249338507652,-1.0050641298294067,0.0212703924626112,-0.1912977695465088,0.9067762494087219,29.655254364013672,-10.562362670898438,40.223079681396484,0
378,3779950,-0.007050948683172464,0.05141855403780937,-0.9660027027130127,-0.5395975112915039,-0.5071261525154114,-0.2264184206724167,30.521892547607422,-10.863603591918945,39.92485046386719,0
379,3789967,0.01999538764357567,0.07857517153024673,-1.0530728101730347,0.2887580692768097,0.32703274488449097,0.15996049344539642,30.233463287353516,-9.20625114440918,39.62007141113281,0
380,3800089,-0.00799929816275835,0.03943103551864624,-1.0117570161819458,1.0476415157318115,-0.03729506954550743,-0.33779376745224,29.21607780456543,-9.207563400268555,39.7060661315918,0
381,3809994,-0.02835259400308132,0.09973140805959702,-0.999265193939209,0.36610686779022217,-0.18165825307369232,0.7016575336456299,30.25509262084961,-9.443603515625,41.00590133666992,0
382,3820203,-0.15115712583065033,0.0005058300448581576,-0.9802175164222717,-0.11484095454216003,0.12334225326776505,0.5027164220809937,28.64747428894043,-9.543882369995117,39.983497619628906,0
383,3830025,-0.07676709443330765,0.021855324506759644,-0.9900827407836914,0.12836788594722748,-0.19771601259708405,-1.0347895622253418,30.50132942199707,-10.124675750732422,41.73272705078125,0
384,3840080,-0.031736865639686584,-0.10347139090299606,-0.9643329381942749,0.5519077181816101,-0.14848193526268005,0.34262099862098694,28.035547256469727,-9.615599632263184,38.26066970825195,0
385,3849925,0.017896290868520737,0.04349622502923012,-1.0131230354309082,0.10067719221115112,0.641254186630249,0.6420736908912659,30.734067916870117,-10.091562271118164,41.79045486450195,0
386,3859669,-0.04317793250083923,-0.012482751160860062,-1.0195112228393555,0.021678708493709564,0.6868904232978821,1.0602384805679321,30.34427833557129,-10.05575942993164,40.5172004699707,0
387,3869780,0.0005815713084302843,0.0006643914384767413,-1.0111850500106812,-0.4711151421070099,-0.5672603845596313,-0.3028281033039093,28.424560546875,-9.876834869384766,39.67612075805664,0
388,3880078,-0.0004441037308424711,0.016475239768624306,-0.9945449829101562,-0.07830317318439484,1.2225078344345093,-0.11652728170156479,27.615842819213867,-8.472352027893066,39.8445930480957,0
389,3889825,-0.024536343291401863,-0.03644753620028496,-1.0016164779663086,-0.18833667039871216,-0.1893395036458969,-0.25530195236206055,28.577625274658203,-9.45842456817627,41.73027038574219,0
390,3900173,0.02559974603354931,-0.14803507924079895,-1.0000982284545898,-0.12275151908397675,-0.5379930138587952,-0.8257771730422974,30.124540328979492,-12.535883903503418,38.87344741821289,0
391,3909788,-0.00023955819779075682,0.026798449456691742,-0.9660238027572632,-0.4117487967014313,1.3397053480148315,-0.6497505903244019,28.145856857299805,-10.645858764648438,39.651329040527344,0
392,3919982,-0.09974681586027145,-0.017254602164030075,-1.0115044116973877,-0.7303834557533264,0.7063915133476257,0.27837052941322327,30.45111846923828,-8.418070793151855,40.111446380615234,0
393,3930042,0.003861970966681838,0.05569691210985184,-1.0087659358978271,-0.33799299597740173,0.24313285946846008,0.5122359395027161,28.574552536010742,-10.615318298339844,40.253849029541016,0
394,3940110,-0.02380356378853321,-0.03725455701351166,-0.9898462891578674,0.27096134424209595,0.3828977644443512,0.22478561103343964,31.29478645324707,-10.530641555786133,39.663719177246094,0
395,3950161,0.009848667308688164,-0.034229081124067307,-1.0209977626800537,-0.5261982679367065,0.06444771587848663,-0.26173391938209534,28.918638229370117,-9.616199493408203,41.866634368896484,0
396,3960001,-0.016763130202889442,0.005860984791070223,-1.006746768951416,0.2622697055339813,-0.35795244574546814,-0.2225004881620407,28.45452308654785,-11.847774505615234,39.783084869384766,0
397,3969895,-0.048027053475379944,0.04562423750758171,-0.9762133359909058,-0.9227267503738403,-0.036246709525585175,0.3071107268333435,29.814023971557617,-10.451411247253418,38.59466552734375,0
398,3979981,0.014373090118169785,-0.06328608095645905,-0.9911694526672363,0.03973571956157684,-0.7379372715950012,-0.3338410556316376,29.807621002197266,-9.51511001586914,39.576107025146484,0
399,3989809,-0.024026138707995415,0.025882815942168236,-1.0082533359527588,-0.4750065207481384,-0.045643553137779236,-0.14927423000335693,29.977991104125977,-11.394651412963867,39.821712493896484,0
400,3999926,0.036885716021060944,0.025019127875566483,-0.9816595315933228,-0.6757617592811584,0.2216554582118988,0.6353706121444702,28.008079528808594,-10.337423324584961,40.749717712402344,0
401,4010180,0.0023030699230730534,0.010686461813747883,-1.006271481513977,0.015780949965119362,0.014640191569924355,-0.8062987923622131,31.016027450561523,-10.813419342041016,39.8925895690918,0
402,4020426,0.004678505472838879,0.018451925367116928,-1.0236979722976685,-0.034679003059864044,0.26764270663261414,-0.34409695863723755,30.988861083984375,-10.650233268737793,39.37468719482422,0
403,4030157,0.006479418370872736,0.012489804066717625,-1.0212397575378418,0.1553913652896881,0.2960910499095917,1.0380194187164307,29.536283493041992,-8.464276313781738,38.50315856933594,0
404,4040062,-0.04447154328227043,0.057439979165792465,-1.013471245765686,0.3786695897579193,0.035131338983774185,-1.1491351127624512,32.45353698730469,-8.661096572875977,39.69154739379883,0
405,4049930,-0.0048772296868264675,0.0012536387657746673,-0.998936116695404,-0.26524558663368225,0.23899224400520325,0.3702077269554138,28.68546485900879,-10.457120895385742,37.601043701171875,0
406,4059774,0.01632508635520935,0.022382421419024467,-0.9768363833427429,-1.0318121910095215,0.4991759955883026,-0.8299835920333862,31.282848358154297,-9.307683944702148,38.359352111816406,0
407,4070005,0.05547896400094032,0.03306984156370163,-1.0372774600982666,-0.4175340533256531,0.27361035346984863,0.18479059636592865,29.24955940246582,-10.944228172302246,41.4824104309082,0
408,4080105,0.008490976877510548,0.010511073283851147,-1.041859745979309,-0.04526449367403984,-1.0023694038391113,0.0390019454061985,29.11005973815918,-10.667299270629883,39.72652816772461,0
409,4090058,0.05567312613129616,-0.0737149715423584,-1.0430923700332642,0.24150557816028595,-0.2393578737974167,-0.05227551981806755,29.896577835083008,-9.503021240234375,40.82147216796875,0
410,4100090,0.06392201036214828,0.01231461949646473,-1.0211793184280396,0.25473934412002563,-0.1905389130115509,0.14134825766086578,30.005695343017578,-9.669946670532227,41.03187561035156,0
411,4110098,0.045573923736810684,-0.08927500247955322,-0.9676744341850281,0.622234046459198,-0.3249693512916565,0.10422996431589127,30.984912872314453,-9.772035598754883,39.43247604370117,0
412,4119863,-0.050325509160757065,0.020971236750483513,-1.0035685300827026,-0.9146557450294495,0.649378776550293,-0.056958455592393875,30.68497085571289,-10.713835716247559,40.37680435180664,0
413,4129792,0.008425034582614899,-0.017371857538819313,-1.05997896194458,-0.6089376211166382,0.16473014652729034,0.21585781872272491,31.03340721130371,-12.00829792022705,38.12702941894531,0
414,4140215,0.011289686895906925,-0.018851473927497864,-0.9987011551856995,0.3913172781467438,-0.2019960880279541,-0.06476665288209915,29.81838607788086,-9.86323356628418,40.92262649536133,0
415,4150195,-0.023193728178739548,0.004077549558132887,-1.0116546154022217,0.14297564327716827,0.051961809396743774,-0.9911978840827942,30.31684112548828,-9.744640350341797,38.255619049072266,0
416,4160153,-0.018398746848106384,-0.04630300775170326,-1.0360058546066284,0.013148353435099125,-0.7120792865753174,-0.7967333793640137,28.265241622924805,-11.181819915771484,39.75686264038086,0
417,4169989,-0.06880839914083481,-0.09797762334346771,-1.0106879472732544,0.14487139880657196,0.004535469692200422,-0.5053325891494751,29.86159324645996,-10.844937324523926,38.78401184082031,0
418,4180183,-0.05643834173679352,-0.019802477210760117,-0.9700212478637695,-0.3469234108924866,-0.21123740077018738,0.7722431421279907,29.34882164001465,-10.912405967712402,39.98057556152344,0
419,4190085,0.04487096145749092,-0.0057729920372366905,-1.0084688663482666,-0.5314174294471741,-0.6126648783683777,-0.3115788698196411,31.41644859313965,-10.780182838439941,40.26103973388672,0
420,4199901,-0.009511961601674557,-0.05922611430287361,-1.0041272640228271,0.4871852695941925,-0.37121284008026123,-0.6850884556770325,29.933908462524414,-8.36806583404541,38.92395782470703,0
421,4209961,-0.02682456001639366,0.016222529113292694,-0.9822497963905334,-0.7131312489509583,-0.7623311281204224,-0.00171401328407228,30.35528564453125,-9.909497261047363,41.99391174316406,0
422,4219954,-0.045347828418016434,0.004058940336108208,-0.9925267100334167,-0.6950165629386902,0.43385377526283264,-0.6793439984321594,29.205562591552734,-9.284476280212402,41.32051086425781,0
423,4230181,0.024548549205064774,-0.029904933646321297,-0.9957649111747742,0.6459453105926514,-0.023172767832875252,-0.2370002269744873,30.08278465270996,-11.537376403808594,40.05742263793945,0
424,4239921,0.015120625495910645,-0.05344037339091301,-0.9905157685279846,0.2701854407787323,-1.2785040140151978,-0.11335984617471695,29.96102523803711,-10.461908340454102,41.42848205566406,0
425,4249780,-0.0040244776755571365,0.05293957144021988,-1.023919939994812,0.49462559819221497,-0.15846440196037292,-1.1457874774932861,29.343990325927734,-8.43803596496582,41.79429626464844,0
426,4259978,0.0241407360881567,0.004517824854701757,-0.9951308369636536,0.6028001308441162,-0.29416197538375854,-0.5509442687034607,29.294401168823242,-11.114713668823242,40.600547790527344,0
427,4269813,-0.0493917353451252,-0.0346502922475338,-1.0177220106124878,-0.008108310401439667,0.09330601990222931,0.4632129371166229,29.240304946899414,-8.7703218460083,40.102325439453125,0
428,4279945,0.038239333778619766,-0.10913579165935516,-1.0332623720169067,0.06570172309875488,0.4934738874435425,0.5060731768608093,28.611677169799805,-10.866886138916016,41.13905715942383,0
429,4290065,0.07661837339401245,0.016818424686789513,-0.9778730869293213,-0.991736888885498,-0.36387741565704346,0.309027761220932,30.52542495727539,-9.803794860839844,40.20501708984375,0
430,4299880,0.07087158411741257,-0.011244604364037514,-1.0055994987487793,-0.0007540790247730911,-1.0975736379623413,0.0021864643786102533,30.560409545898438,-10.721443176269531,39.5261116027832,0
431,4310125,-0.00922204740345478,0.02482817880809307,-1.0314271450042725,-0.10562604665756226,-0.6560373902320862,0.43945708870887756,30.964412689208984,-11.087718963623047,39.080657958984375,0
432,4320204,-0.001957296160981059,0.00014240373275242746,-1.0125701427459717,0.29858627915382385,-0.6808478236198425,-0.14257489144802094,30.621135711669922,-10.49690055847168,40.76730728149414,0
433,4330037,0.04663529619574547,-0.04584662616252899,-0.9950499534606934,0.007430368103086948,-1.172998309135437,0.38718676567077637,28.568729400634766,-9.307854652404785,38.114498138427734,0
434,4340177,0.012994564138352871,-0.00847138836979866,-1.007107138633728,0.3729369044303894,-0.6423563957214355,-0.30420804023742676,30.604766845703125,-12.176321029663086,40.01602554321289,0
435,4350198,0.026302389800548553,0.049329277127981186,-1.0362448692321777,-0.7899708151817322,-1.02315092086792,1.6927844285964966,30.44000244140625,-8.703503608703613,40.59588623046875,0
436,4360149,-0.00036472396459430456,-0.03417716175317764,-1.0177518129348755,-0.7699711918830872,0.7484972476959229,-0.7108713388442993,30.65610122680664,-11.141044616699219,38.54011917114258,0
437,4370046,-0.0051185074262320995,-0.0006664329557679594,-0.987471342086792,-0.14074376225471497,0.7332166433334351,0.0983535647392273,29.205610275268555,-10.496335983276367,39.43421173095703,0
438,4379900,-0.03631048649549484,-0.001933111110702157,-1.000440001487732,0.3423684239387512,0.914351224899292,-0.08647631108760834,29.784753799438477,-10.381550788879395,40.181514739990234,0
439,4390179,0.03204672783613205,0.03998145833611488,-0.9635432362556458,0.09176591038703918,-0.053397662937641144,1.0394985675811768,30.943714141845703,-10.388357162475586,40.78828048706055,0
440,4399885,0.06905636191368103,0.03795016184449196,-1.001847743988037,-1.3770086765289307,0.11359097808599472,-0.29080039262771606,30.356321334838867,-10.267996788024902,40.135833740234375,0
441,4410118,0.005946587771177292,-0.0151902474462986,-0.981256902217865,-0.377799928188324,-0.04553532972931862,0.6303305625915527,29.598285675048828,-9.684385299682617,39.37685775756836,0
442,4420185,-0.0997953787446022,0.05425423011183739,-0.983019232749939,-0.5460752248764038,-0.2653487026691437,0.15210409462451935,28.989416122436523,-8.790645599365234,40.304805755615234,0
443,4430168,-0.049008965492248535,0.018194539472460747,-0.9954915046691895,0.6174049377441406,-0.1326940804719925,0.38748180866241455,28.29926109313965,-9.186887741088867,39.80099105834961,0
444,4439874,-0.07179699093103409,-0.017285771667957306,-0.9797841310501099,-0.726455569267273,-0.09445741027593613,1.052915334701538,29.98118782043457,-11.232322692871094,39.98131561279297,0
445,4449830,0.03584257513284683,0.047528646886348724,-1.0144050121307373,0.24324601888656616,-0.4940662980079651,-0.27090421319007874,28.950838088989258,-10.390342712402344,39.076778411865234,0
446,4459996,0.0060151671059429646,0.006613764446228743,-0.9882636666297913,-1.1933395862579346,1.098439335823059,0.25327175855636597,29.37003517150879,-9.586066246032715,40.332740783691406,0
447,4469772,0.035630326718091965,0.008480322547256947,-1.0034959316253662,0.39820921421051025,0.6664979457855225,1.0447887182235718,29.483850479125977,-11.416272163391113,37.80190658569336,0
448,4480281,-0.019446592777967453,-0.0384347029030323,-1.0035008192062378,-0.9038048982620239,-0.4169411063194275,0.3050609529018402,29.899934768676758,-9.048864364624023,39.7875862121582,0
449,4490071,0.13822640478610992,-0.028666077181696892,-0.9972278475761414,-0.9473294019699097,-0.10644897073507309,-0.03526153042912483,30.505462646484375,-9.915453910827637,39.57279968261719,0
450,4499993,-0.0018933360697701573,0.005813172552734613,-1.0070326328277588,0.3871707320213318,0.5439420342445374,0.049590349197387695,29.366172790527344,-10.18564224243164,39.57260513305664,0
451,4510088,-0.10678986459970474,-0.01542116329073906,-1.0040539503097534,-0.1664603054523468,-0.0024832701310515404,-0.651572585105896,29.82170295715332,-8.918164253234863,37.74015808105469,0
452,4520057,0.03490828350186348,-0.027930742129683495,-0.9797506928443909,-0.45872601866722107,0.27527183294296265,0.9101297855377197,30.486860275268555,-12.029546737670898,40.903343200683594,0
453,4529869,-0.008757536299526691,0.0009494238765910268,-0.9956758618354797,1.5922471284866333,1.1647663116455078,0.1117740347981453,30.30008888244629,-9.881471633911133,40.018470764160156,0
454,4540055,0.06280965358018875,0.049828656017780304,-1.0211294889450073,-0.2734299600124359,0.025045298039913177,0.3694932162761688,30.37371826171875,-11.171497344970703,40.08619689941406,0
455,4549895,-0.0816926509141922,-0.04197299852967262,-1.0282412767410278,-0.2600339353084564,0.10439763218164444,0.30388492345809937,29.819730758666992,-9.809423446655273,39.8373908996582,0
456,4559915,-0.01036808080971241,0.054635461419820786,-0.9713945984840393,0.655540943145752,0.4450787901878357,-0.6172547340393066,30.637414932250977,-10.403197288513184,39.35361862182617,0
457,4569818,-0.035320013761520386,-0.029981685802340508,-1.0012394189834595,-0.1444915235042572,0.3783445656299591,-0.8220327496528625,30.252792358398438,-10.33421802520752,39.988868713378906,0
458,4580073,-0.014971724711358547,-0.03747321292757988,-0.9819037318229675,0.7388530373573303,-0.3644014596939087,0.23186013102531433,30.892736434936523,-10.435944557189941,40.45671463012695,0
459,4589980,0.04071800038218498,0.04413152486085892,-0.9960120320320129,0.1463668793439865,-0.0780428797006607,-0.12969852983951569,29.76869010925293,-8.494246482849121,40.88644027709961,0
460,4599777,0.03498890623450279,-0.025004617869853973,-1.014225959777832,0.1648414582014084,0.16590075194835663,0.3538047969341278,29.06098747253418,-11.386815071105957,40.65093994140625,0
461,4609711,0.01188744604587555,-0.016860786825418472,-0.992671549320221,0.21728305518627167,0.37240907549858093,-0.5231711864471436,30.104639053344727,-8.274951934814453,41.72699737548828,0
462,4620157,-0.08448817580938339,-0.015606914646923542,-0.9867038130760193,0.25929951667785645,0.3765130341053009,-0.1862434297800064,29.570362091064453,-8.460220336914062,40.73452377319336,0
463,4629766,-0.04928632080554962,0.01763550378382206,-1.0071219205856323,-0.04832089692354202,0.17516247928142548,-1.0856194496154785,29.376911163330078,-11.28204345703125,40.140132904052734,0
464,4640216,0.04796957969665527,-0.012332800775766373,-0.9980443716049194,-0.024944443255662918,0.12692077457904816,-0.3810731768608093,29.675968170166016,-10.577596664428711,41.270320892333984,0
465,4650034,-0.026023341342806816,0.002309299074113369,-0.9857613444328308,-0.33738964796066284,0.4400450885295868,-0.058070968836545944,28.953088760375977,-9.057304382324219,38.426109313964844,0
466,4659829,-0.03210802003741264,-0.05106227472424507,-1.0323117971420288,0.10878434777259827,0.8537055850028992,0.40250274538993835,29.013755798339844,-10.248650550842285,39.60818862915039,0
467,4670245,-0.02306387387216091,-0.05524706840515137,-0.9771866202354431,-0.023519570007920265,-0.00011785495735239238,0.6583678722381592,28.648649215698242,-8.824660301208496,39.15974044799805,0
468,4680016,0.07074146717786789,0.024999016895890236,-0.9968498945236206,0.15162748098373413,-0.8939909338951111,0.7864257097244263,29.675289154052734,-10.397528648376465,37.752593994140625,0
469,4690302,0.039730630815029144,0.0626152753829956,-0.9609315395355225,-0.2564333975315094,-0.27292144298553467,-0.23219871520996094,28.92591667175293,-9.358343124389648,39.916873931884766,0
470,4699978,-0.04005881026387215,0.02223961614072323,-0.9855189323425293,-0.33656445145606995,0.46746110916137695,0.13107198476791382,29.143701553344727,-9.912826538085938,39.11062240600586,0
471,4710083,0.09348659962415695,-0.02023351937532425,-0.9607657790184021,-0.33814486861228943,-0.6540012955665588,-0.50367671251297,29.269731521606445,-11.071608543395996,41.03859329223633,0
472,4720074,-0.11395972222089767,-0.015629421919584274,-1.0147840976715088,-0.7785535454750061,0.6790459156036377,0.44582101702690125,29.599082946777344,-10.1675443649292,41.90004348754883,0
473,4730048,-0.028102781623601913,0.08542367815971375,-0.9766661524772644,0.7104548215866089,-0.7983277440071106,0.023927202448248863,31.456764221191406,-8.817483901977539,40.720619201660156,0
474,4739937,-0.008238089270889759,-0.02073279768228531,-1.0069222450256348,0.1592044234275818,0.40051600337028503,1.3272689580917358,29.268999099731445,-10.350281715393066,39.86918258666992,0
475,4750134,0.04629402235150337,0.06580325216054916,-0.9892154335975647,-0.6794436573982239,-0.4772941470146179,0.04559778794646263,30.58823013305664,-10.560893058776855,40.2828254699707,0
476,4760129,-0.019110899418592453,0.02663932554423809,-1.0001027584075928,0.5120390057563782,0.35158443450927734,0.7288327217102051,29.079448699951172,-11.359580039978027,39.57882308959961,0
477,4770094,-0.007062047719955444,0.04487885534763336,-1.044299840927124,-0.008624006062746048,0.191114142537117,-1.2510522603988647,28.279890060424805,-8.77413558959961,39.83116912841797,0
478,4780228,0.039287175983190536,0.012995188124477863,-1.0030021667480469,-0.7338603734970093,-0.5184856057167053,0.09224946051836014,31.036344528198242,-11.791234016418457,39.15767288208008,0
479,4790080,0.09027496725320816,-0.043926361948251724,-0.9988670945167542,0.10021346807479858,0.0322963148355484,-0.23535509407520294,29.798818588256836,-9.82680606842041,38.300533294677734,0
480,4800101,0.06210532411932945,-0.008161455392837524,-0.9903109073638916,0.1111631914973259,-0.6420432329177856,-0.11147484928369522,29.228839874267578,-9.233016967773438,39.14637756347656,0
481,4809959,-0.03899501636624336,-0.0639159306883812,-0.9737513661384583,0.46067944169044495,0.1480129063129425,0.5516176819801331,28.843307495117188,-10.237014770507812,39.74142074584961,0
482,4820365,-0.005522281397134066,0.01209737453609705,-0.9721493721008301,-1.3362600803375244,0.31122779846191406,1.2498180866241455,29.812700271606445,-8.146270751953125,38.89600372314453,0
483,4829745,0.12545882165431976,0.028189919888973236,-0.9670202732086182,0.7643551230430603,0.40931862592697144,0.6124535202980042,27.65228271484375,-9.37568187713623,38.790435791015625,0
484,4840019,0.021553916856646538,0.009200679138302803,-0.9899644255638123,-0.3550710380077362,0.22079582512378693,0.13526733219623566,31.331552505493164,-9.812849044799805,40.29947280883789,0
485,4850187,-0.049562785774469376,-0.038884978741407394,-0.9879671335220337,-0.29956868290901184,-0.5040642023086548,0.5574924349784851,30.93895149230957,-9.76624584197998,39.901729583740234,0
486,4860061,0.002807613927870989,0.041986025869846344,-1.0139199495315552,-0.8493944406509399,-0.30059462785720825,0.21361114084720612,29.77691078186035,-9.76424503326416,39.96211242675781,0
487,4869841,0.018955854699015617,-0.004140378441661596,-1.013725757598877,-0.5083937048912048,-0.23980508744716644,-0.29291051626205444,30.59003448486328,-9.204051971435547,39.47548294067383,0
488,4880092,0.03331012278795242,0.00316530279815197,-0.9805684685707092,0.19827018678188324,0.47508445382118225,0.4747236967086792,29.186429977416992,-10.08997917175293,40.05070114135742,0
489,4890298,-0.070957712829113,0.0014686500653624535,-1.0227385759353638,-0.034381717443466187,-0.5754454135894775,-0.5937073826789856,31.278743743896484,-10.857218742370605,38.866634368896484,0
490,4900106,0.021300984546542168,0.013654221780598164,-1.01998770236969,-1.0704604387283325,-0.005801009014248848,0.3820992708206177,30.769285202026367,-9.512645721435547,40.04528045654297,0
491,4909948,0.029634250327944756,0.02465209551155567,-0.996105432510376,-0.201825812458992,0.06163188815116882,-0.21653738617897034,30.823427200317383,-10.280698776245117,40.372711181640625,0
492,4920137,-0.09711943566799164,-0.010732448659837246,-0.989539384841919,0.44439271092414856,-0.09343912452459335,0.02410794608294964,29.389883041381836,-10.282333374023438,42.53612518310547,0
493,4929935,0.07818981260061264,-0.04245388135313988,-1.0120590925216675,-0.2900922894477844,-0.2225314974784851,-0.1745670735836029,29.98541831970215,-11.985048294067383,39.58563232421875,0
494,4939729,-0.015515862964093685,0.02346435934305191,-1.005476474761963,-0.7030082941055298,0.8409125804901123,-0.2618675231933594,29.505748748779297,-9.72588062286377,40.66001510620117,0
495,4949895,0.07292500138282776,0.07327941805124283,-0.9914753437042236,0.1611558049917221,-0.8460376858711243,-0.773237943649292,31.537641525268555,-10.69635009765625,39.40846252441406,0
496,4959941,-0.10308957099914551,0.018444843590259552,-1.0409032106399536,-0.13859589397907257,-0.5917704701423645,0.36743414402008057,31.19219970703125,-10.106804847717285,39.73981475830078,0
497,4970183,0.04364718869328499,0.09562063217163086,-0.9746578335762024,-0.01905573345720768,-0.7865762114524841,0.19402778148651123,31.543712615966797,-9.68437385559082,40.220760345458984,0
498,4980054,0.05002056434750557,-0.021879669278860092,-0.9778746962547302,0.11935357004404068,-0.7909678220748901,0.1280338168144226,30.110515594482422,-11.242236137390137,41.1829833984375,0
499,4990041,0.04837064445018768,-0.004290417768061161,-1.0124247074127197,1.4311630725860596,-0.11725904792547226,0.38563117384910583,28.563304901123047,-10.345558166503906,38.66244125366211,0
500,4999813,-0.07886897772550583,0.055505432188510895,-0.9875611662864685,0.3258652985095978,-0.3891622722148895,0.9404290914535522,29.109941482543945,-9.503033638000488,41.5610237121582,0
501,5010075,-0.04154464602470398,-0.04317722097039223,-0.9901880025863647,-0.36221829056739807,-0.07057515531778336,0.4325466752052307,30.31032371520996,-7.308050155639648,40.38893508911133,0
502,5019859,-0.02064891904592514,0.033573541790246964,-0.9924558401107788,-0.33937036991119385,0.16837002336978912,-1.3364129066467285,30.504718780517578,-9.10820484161377,40.349388122558594,0
503,5029856,0.05296178162097931,0.049081966280937195,-0.9999510645866394,-0.09343738108873367,-1.0315577983856201,0.31338194012641907,30.137027740478516,-10.77084732055664,39.8355712890625,0
504,5039838,-0.02005227841436863,0.08859718590974808,-0.9944108128547668,0.1529603898525238,-0.22348587214946747,-0.06602627038955688,30.584928512573242,-7.988415718078613,41.83319854736328,0
505,5050152,-0.017577234655618668,0.04020300135016441,-0.9781149625778198,0.8422884941101074,0.06218138337135315,-0.6396616101264954,28.6943359375,-9.538549423217773,40.091121673583984,0
506,5060271,0.11851657927036285,0.016521427780389786,-0.9856573939323425,-0.4562625288963318,0.10116884857416153,-0.041772130876779556,28.21538734436035,-8.998856544494629,37.98506164550781,0
507,5069735,0.08265497535467148,0.00288514350540936,-0.9812127351760864,1.0119868516921997,0.3516967296600342,0.053354412317276,28.717397689819336,-9.799118041992188,39.48240280151367,0
508,5079940,-0.03576282039284706,0.07044733315706253,-0.9943322539329529,-0.7875908613204956,-0.15831004083156586,0.4512103199958801,29.61009979248047,-10.07533073425293,39.359619140625,0
509,5089877,-0.0008871404570527375,-0.011054057627916336,-0.9805053472518921,-0.1387791484594345,-0.4262569844722748,0.6697241067886353,28.01492691040039,-9.561342239379883,40.247764587402344,0
510,5100232,0.1235264241695404,-0.06822763383388519,-0.9959631562232971,-0.2800155580043793,-0.2503190338611603,0.39993205666542053,29.482938766479492,-8.824728965759277,38.89060592651367,0
511,5110080,0.020941676571965218,0.03919406235218048,-0.9743438363075256,0.44445961713790894,-0.554182767868042,-0.4043784737586975,28.480527877807617,-9.633797645568848,40.28812026977539,0
512,5120057,-0.03338012471795082,0.0018220444908365607,-0.975156843662262,-0.5089269280433655,-0.06865213811397552,0.7506282329559326,31.08147430419922,-9.299077987670898,39.18778991699219,0
513,5130057,0.040914252400398254,0.03182370588183403,-0.9987546801567078,-0.3203062117099762,0.1997661143541336,0.6187343001365662,28.465784072875977,-9.420964241027832,40.80072784423828,0
514,5139979,-0.00877084955573082,0.025312867015600204,-0.9929840564727783,-0.298922598361969,0.12594863772392273,-0.1606626659631729,30.150026321411133,-7.963408946990967,38.46241760253906,0
515,5149953,0.02489745430648327,0.0070224846713244915,-0.9840818643569946,0.7703046202659607,-0.5050567984580994,-0.012591643258929253,29.63161849975586,-9.532369613647461,39.036399841308594,0
516,5160007,0.022433653473854065,0.01928836479783058,-1.0026923418045044,-0.456051766872406,-0.02735440991818905,0.16213688254356384,29.854211807250977,-8.105822563171387,42.35512924194336,0
517,5170131,0.016567522659897804,0.03345954045653343,-1.0204390287399292,0.21359434723854065,-0.6632201075553894,-0.5695037841796875,29.2117919921875,-10.603964805603027,39.884029388427734,0
518,5180183,-0.08747502416372299,0.026604847982525826,-1.0052025318145752,-0.1596115231513977,-0.4691961109638214,0.7757106423377991,29.324012756347656,-9.039819717407227,41.114803314208984,0
519,5189959,-0.1023821085691452,-0.05483932048082352,-1.0109176635742188,-0.3746843934059143,0.3682917058467865,-0.31804031133651733,29.42496681213379,-11.409623146057129,40.60979080200195,0
520,5199918,0.01761418767273426,0.03715907037258148,-1.0202338695526123,0.40758588910102844,0.09591495245695114,-0.10008039325475693,30.55851173400879,-10.742642402648926,40.2010612487793,0
521,5209905,-0.09845349192619324,-0.13210666179656982,-0.9805794358253479,0.2106306254863739,-0.03980710729956627,-0.21989817917346954,31.159465789794922,-8.576221466064453,39.791622161865234,0
522,5219739,-0.0027914531528949738,-0.00784001313149929,-0.9594141244888306,-0.10078778862953186,-0.7537369728088379,0.2636568546295166,30.36945152282715,-9.833029747009277,38.57874298095703,0
523,5229924,0.06465236097574234,0.057379405945539474,-0.9839916229248047,0.42673158645629883,-0.15612715482711792,-0.30854129791259766,30.42251205444336,-11.752400398254395,38.53499221801758,0
524,5240015,0.07598260045051575,0.06596458703279495,-1.0146554708480835,0.6663857102394104,0.6336421370506287,0.06803659349679947,32.864280700683594,-8.942023277282715,41.10049819946289,0
525,5250071,-0.027875492349267006,-0.028382809832692146,-1.009318470954895,0.005084216129034758,0.052227478474378586,-0.10348329693078995,28.89977264404297,-10.589417457580566,40.07502365112305,0
526,5260139,0.023244544863700867,0.0987105593085289,-0.9967844486236572,0.2807508707046509,0.43664422631263733,0.10795170813798904,31.59721565246582,-9.986971855163574,39.55509567260742,0
527,5269816,0.049821529537439346,0.0778905525803566,-1.0038912296295166,0.22444966435432434,0.039686694741249084,-0.7529436945915222,29.724815368652344,-8.63100528717041,40.76190185546875,0
528,5279968,0.12955112755298615,-0.028395581990480423,-1.014482021331787,-0.05228782817721367,-0.3429166376590729,0.6766941547393799,30.161529541015625,-7.814817428588867,39.342864990234375,0
529,5290143,0.11146437376737595,0.050058331340551376,-0.9959003925323486,0.12325030565261841,0.5207552909851074,-0.3595670759677887,30.009450912475586,-9.275391578674316,40.87351608276367,0
530,5299953,-0.06644978374242783,-0.03449729084968567,-0.974228024482727,1.0143111944198608,-1.1310056447982788,0.24449895322322845,28.25157356262207,-8.267075538635254,39.410064697265625,0
531,5309569,0.02057393081486225,0.07630279660224915,-0.9996492266654968,-0.10837478190660477,-0.2944593131542206,0.6185813546180725,30.205480575561523,-9.830958366394043,39.44343185424805,0
532,5319861,-0.01831081509590149,0.10909992456436157,-0.9905014038085938,0.3771136403083801,-0.6263338923454285,0.5957691669464111,30.552494049072266,-10.002949714660645,38.30779266357422,0
533,5330193,0.07041884958744049,0.007438462693244219,-1.0440598726272583,0.15640024840831757,0.2834344208240509,0.43292051553726196,29.601024627685547,-11.0173921585083,40.10544967651367,0
534,5339988,-0.03271717578172684,-0.027027620002627373,-1.0026683807373047,-0.1369352638721466,0.5914247632026672,-0.18938417732715607,29.961252212524414,-6.574740409851074,39.205299377441406,0
535,5350030,0.06328310072422028,0.02339700050652027,-0.9978060722351074,0.354492723941803,-0.5800409913063049,-0.5927274823188782,29.26600456237793,-7.945120334625244,38.64900588989258,0
536,5360241,0.06630448251962662,-0.020324673503637314,-0.9969003200531006,-0.2968555688858032,0.019951140508055687,-0.19196099042892456,29.919843673706055,-9.264670372009277,38.20768737792969,0
537,5370035,0.043092697858810425,-0.08028488606214523,-0.95094233751297,-0.4997260272502899,0.06983751803636551,0.9334137439727783,30.43824005126953,-10.485536575317383,41.08389663696289,0
538,5379806,-0.02381300926208496,0.012508000247180462,-0.9702315926551819,-0.31742173433303833,-0.14631274342536926,0.12921926379203796,30.794597625732422,-10.572504043579102,40.119693756103516,0
539,5390036,-0.00996788963675499,0.004280823282897472,-0.9681249856948853,-0.015395131893455982,-0.20852802693843842,-0.08170250803232193,29.090499877929688,-9.175801277160645,38.60553741455078,0
540,5400135,0.010249814949929714,0.014416702091693878,-0.9655031561851501,-0.008519962430000305,-0.7334297895431519,-0.317007452249527,30.727569580078125,-10.95193862915039,41.20855712890625,0
541,5410102,0.025349685922265053,-0.014180281199514866,-1.0188652276992798,0.07110239565372467,0.19809480011463165,-0.9588383436203003,29.043739318847656,-9.73294448852539,39.6362190246582,0
542,5420054,0.07789953052997589,0.010242024436593056,-0.9957113265991211,0.32245951890945435,-0.2969292998313904,-0.8590570092201233,30.806318283081055,-7.184563159942627,39.75172805786133,0
543,5430001,0.004005760420113802,-0.030714035034179688,-1.0081404447555542,-0.0022650188766419888,-0.22565719485282898,0.21219056844711304,31.458127975463867,-8.85482120513916,38.70493698120117,0
544,5440089,-0.057095084339380264,-0.03367875888943672,-1.0122160911560059,1.0691345930099487,0.12816095352172852,0.3209175765514374,28.968494415283203,-11.416802406311035,38.92398452758789,0
545,5449982,0.027192318812012672,0.018104400485754013,-1.009141445159912,-0.43785399198532104,0.561850368976593,-0.3734654188156128,30.034635543823242,-10.741950035095215,40.91086196899414,0
546,5459847,0.012507883831858635,0.01985936053097248,-0.9821757674217224,0.52201247215271,0.38167205452919006,-0.3910927474498749,29.312894821166992,-8.551416397094727,39.361839294433594,0
547,5469957,-0.006753783673048019,-0.03853118047118187,-1.0135746002197266,-0.277651846408844,-0.144200399518013,0.1888073831796646,29.0575008392334,-10.026596069335938,39.09340286254883,0
548,5480236,-0.07459365576505661,-0.01893807388842106,-1.0012750625610352,0.8952115178108215,0.570258378982544,-0.43087196350097656,30.237764358520508,-10.48017406463623,38.811485290527344,0
549,5489956,-0.005427188239991665,-0.023828348144888878,-0.9991205334663391,0.09031568467617035,0.3233124017715454,0.14908555150032043,31.430986404418945,-9.060934066772461,38.914306640625,0
550,5500360,0.007741669192910194,-0.065450519323349,-0.9971356391906738,0.44210579991340637,-0.9319766163825989,-0.4335959553718567,31.19585609436035,-9.357527732849121,40.134033203125,0
551,5510244,0.010167884640395641,0.00476192869246006,-1.0096659660339355,-0.1872296780347824,-1.443835973739624,-0.09568750113248825,30.61162757873535,-10.26052474975586,40.339439392089844,0
552,5519977,0.03718682751059532,0.07305896282196045,-1.0209898948669434,0.3475721478462219,-0.1808536797761917,-0.3199191391468048,31.942441940307617,-10.096814155578613,39.407920837402344,0
553,5529877,0.031817734241485596,0.008199443109333515,-0.9818751215934753,0.09993575513362885,0.04037616774439812,-0.2068536877632141,30.71417236328125,-10.540140151977539,39.126705169677734,0
554,5539904,-0.01110212504863739,0.017577029764652252,-1.0365252494812012,-1.275869607925415,0.5772547721862793,0.11407830566167831,28.717744827270508,-9.642680168151855,39.820289611816406,0
555,5549994,0.021145403385162354,-0.055623386055231094,-1.0117696523666382,0.3476448357105255,0.6776820421218872,0.511221706867218,30.18118667602539,-9.307665824890137,38.74847412109375,0
556,5559826,-0.006244955118745565,0.05607376620173454,-1.0168077945709229,0.4309570789337158,0.6160134673118591,-0.608150064945221,28.64617156982422,-10.446996688842773,40.911903381347656,0
557,5570023,0.012287620455026627,-0.06322605907917023,-1.0120539665222168,-0.43857523798942566,0.7177742719650269,0.6137162446975708,29.319665908813477,-9.129342079162598,39.358177185058594,0
558,5580128,-0.04269876331090927,-0.05245285481214523,-0.9722749590873718,0.5046055912971497,0.009965608827769756,-0.9643418788909912,30.09259033203125,-10.571802139282227,37.11049270629883,0
559,5590153,0.056022778153419495,-0.025536730885505676,-0.9668488502502441,0.18005061149597168,0.24509188532829285,-0.35857170820236206,29.816150665283203,-9.895528793334961,39.83616638183594,0
560,5600000,-0.0923028364777565,-0.06033740192651749,-0.9983647465705872,-0.5462912321090698,0.2889356017112732,1.1515806913375854,29.187053680419922,-9.632216453552246,40.18428039550781,0
561,5610238,0.006512532476335764,0.017641928046941757,-1.0386160612106323,-0.514308750629425,0.0845724418759346,-0.08444919437170029,28.968368530273438,-10.39944839477539,39.83301544189453,0
562,5619958,-0.07543075084686279,0.04359301179647446,-1.030542016029358,0.4282005727291107,-0.09282584488391876,-0.030234212055802345,31.691898345947266,-11.059866905212402,38.79977035522461,0
563,5629883,-0.07477522641420364,-0.07663195580244064,-0.9869145750999451,0.3450392484664917,0.5990540385246277,0.9867173433303833,30.498493194580078,-11.006478309631348,39.34992218017578,0
564,5640313,-0.015257107093930244,-0.008386361412703991,-0.9962950348854065,-0.7762897610664368,0.07676305621862411,0.21954883635044098,29.353471755981445,-9.886363983154297,41.42029571533203,0
565,5649955,-0.041146524250507355,0.04125611484050751,-1.0142956972122192,1.049208641052246,0.32862138748168945,0.09170298278331757,30.822608947753906,-9.896154403686523,38.94847869873047,0
566,5659969,-0.08874059468507767,-0.04750383272767067,-1.0196967124938965,0.7738920450210571,-0.6199116706848145,0.28712883591651917,31.855796813964844,-10.953800201416016,40.72798538208008,0
567,5669693,-0.10954903811216354,0.1069205030798912,-1.0175611972808838,0.047418493777513504,0.5128874182701111,1.2348045110702515,28.591026306152344,-8.464872360229492,39.291717529296875,0
568,5679979,0.03169838339090347,-0.055207062512636185,-0.9997431039810181,-0.6543698310852051,0.7944466471672058,-0.9345644116401672,31.35813331604004,-10.00223159790039,38.60684585571289,0
569,5689780,0.018476242199540138,-0.12133336812257767,-1.0279033184051514,0.204623281955719,-0.055291272699832916,-0.0023016557097434998,29.598188400268555,-9.164011001586914,37.92732620239258,0
570,5699691,0.06702367216348648,0.03600040078163147,-1.0283033847808838,-0.0009773075580596924,-0.6194484233856201,0.5519645810127258,29.855600357055664,-9.710079193115234,41.23446273803711,0
571,5709932,-0.009185903705656528,-0.004477391019463539,-1.0179314613342285,0.12110380828380585,0.4892753064632416,0.4064246714115143,27.872344970703125,-10.578442573547363,38.755619049072266,0
572,5719886,0.04123982414603233,0.001126544433645904,-1.0006622076034546,0.4824398159980774,-0.2819470167160034,-0.427913099527359,30.746505737304688,-10.127190589904785,39.31040954589844,0
573,5729875,0.023498255759477615,-0.009904137812554836,-1.027300477027893,-0.2152816206216812,0.30786991119384766,-0.6213549375534058,29.557222366333008,-8.469536781311035,41.35833740234375,0
574,5739975,0.030881857499480247,0.004625930450856686,-1.033931851387024,0.6429135203361511,-0.06704298406839371,1.0656450986862183,28.72894287109375,-11.270394325256348,39.40373229980469,0
575,5749920,0.03891146183013916,0.08415099233388901,-1.0015190839767456,-0.3261462152004242,-0.8562554717063904,0.0050990222953259945,29.933120727539062,-9.645456314086914,42.33171463012695,0
576,5760071,0.007795798126608133,0.08887092769145966,-0.9486223459243774,0.7789803743362427,0.3273979425430298,0.7198653221130371,29.098207473754883,-9.493311882019043,41.96281814575195,0
577,5769944,0.0602385476231575,0.018434889614582062,-1.0079530477523804,0.0049119433388113976,0.03265336900949478,-1.067665934562683,29.642732620239258,-11.277545928955078,38.24732971191406,0
578,5779908,-0.0007421948830597103,0.15915121138095856,-1.0173088312149048,0.586520254611969,0.4503629505634308,-0.2568996846675873,30.986492156982422,-8.67075252532959,40.389862060546875,0
579,5789896,0.06262783706188202,0.002227682853117585,-1.0035507678985596,0.5614302754402161,0.25092390179634094,0.8692819476127625,30.40083122253418,-11.669775009155273,39.23478317260742,0
580,5800299,-0.102648064494133,-0.07988318800926208,-0.983376145362854,0.8623892664909363,-0.1690528243780136,0.4762403964996338,28.421642303466797,-11.360445976257324,38.00302505493164,0
581,5810087,0.07022225111722946,0.02384277619421482,-0.9989380240440369,0.5169579982757568,-0.1128656417131424,0.5551163554191589,29.770662307739258,-9.401813507080078,40.20204162597656,0
582,5819542,0.025853557512164116,0.012150139547884464,-1.0275548696517944,-0.401577353477478,0.06403214484453201,0.23520134389400482,27.027179718017578,-8.288089752197266,40.963836669921875,0
583,5830239,0.05726154148578644,0.022991633042693138,-0.9958145022392273,-0.09444714337587357,-0.7364545464515686,0.4056938886642456,29.666549682617188,-10.47645378112793,40.67416000366211,0
584,5839831,-0.02406003139913082,-0.06944933533668518,-0.9890452027320862,0.09799039363861084,-0.4626142978668213,0.3145142197608948,30.791147232055664,-10.724187850952148,40.43162536621094,0
585,5850150,0.019260955974459648,0.11798382550477982,-1.01701819896698,0.25028786063194275,-0.02235550247132778,0.4181824326515198,29.652732849121094,-9.625872611999512,40.29494094848633,0
586,5859972,-0.055559877306222916,-0.04132901877164841,-0.9907768964767456,0.33668678998947144,0.3505694270133972,-0.8047202229499817,31.62221336364746,-9.183270454406738,40.75519561767578,0
587,5870092,-0.06478467583656311,0.023461297154426575,-0.9923068881034851,0.3268758952617645,0.2113245129585266,0.10915777832269669,29.653287887573242,-10.370597839355469,38.943546295166016,0
588,5879929,-0.016551150009036064,-0.028493192046880722,-1.013999342918396,-0.6317840218544006,-0.26094406843185425,-0.27601897716522217,29.85783576965332,-10.360814094543457,39.36573028564453,0
589,5889928,0.007083951961249113,0.014063073322176933,-0.9893854856491089,-0.832846462726593,-0.5045996308326721,-0.1459265649318695,29.830963134765625,-10.188639640808105,38.34147644042969,0
590,5899907,-0.08007823675870895,0.015143168158829212,-1.0227086544036865,-0.3518736660480499,0.7718305587768555,0.05215100198984146,31.337392807006836,-8.628118515014648,38.81401062011719,0
591,5909803,0.011736072599887848,-0.020644592121243477,-0.9916804432868958,0.2914503514766693,-0.27576541900634766,-0.13861556351184845,31.605159759521484,-9.403684616088867,39.68228530883789,0
592,5919849,0.0062455241568386555,-0.041587796062231064,-0.9865359663963318,-0.1677451878786087,0.5644939541816711,-0.0985163003206253,31.15240478515625,-11.01174259185791,40.63460159301758,0
593,5930048,-0.013110311701893806,0.029570598155260086,-0.9877594709396362,-0.8604788780212402,-0.1913013607263565,0.39412564039230347,29.69919204711914,-10.22709846496582,41.24454879760742,0
594,5940140,-0.08020907640457153,0.017144300043582916,-1.021018624305725,0.02265463024377823,-0.5078305006027222,-0.5613330602645874,31.404054641723633,-10.21701431274414,39.32360076904297,0
595,5950120,-0.015984809026122093,0.03424009308218956,-1.0142416954040527,-0.442781537771225,0.1971060186624527,-0.4767856299877167,31.221803665161133,-11.050447463989258,38.23763656616211,0
596,5959891,0.05925097316503525,-0.06862550973892212,-1.0138022899627686,-0.7708668112754822,-0.31467708945274353,-0.30734142661094666,29.31321144104004,-9.711649894714355,39.573692321777344,0
597,5969877,-0.04125508666038513,-0.021286334842443466,-1.006948471069336,0.09684816002845764,0.349069744348526,-0.18235662579536438,30.127155303955078,-11.682259559631348,39.9736213684082,0
598,5979860,0.015260622836649418,-0.0209562499076128,-1.0264663696289062,0.2261466681957245,0.3823969066143036,-0.543775737285614,29.76630210876465,-9.707517623901367,39.92649841308594,0
599,5990019,-0.004475520458072424,-0.07264592498540878,-0.9889835119247437,-0.39773130416870117,0.37752199172973633,-0.014925516210496426,29.420692443847656,-7.859709739685059,40.465415954589844,0
600,5999983,0.028651626780629158,0.09143656492233276,-1.0061434507369995,-0.08786062151193619,0.6706664562225342,-0.027370795607566833,30.254072189331055,-9.53299617767334,40.6296272277832,0
601,6009806,-0.03705504164099693,0.026618337258696556,-0.9796293377876282,0.49027952551841736,-0.5994733572006226,-0.18318474292755127,30.79737091064453,-11.553494453430176,40.90962600708008,0
602,6019801,0.04960949346423149,-0.03745756298303604,-1.0217229127883911,-0.35118532180786133,0.69487065076828,0.1355864405632019,30.411396026611328,-9.818059921264648,40.645450592041016,0
603,6029799,0.0598500519990921,-0.035677675157785416,-0.9753121137619019,-0.2225857675075531,0.2710863947868347,-0.12248597294092178,27.897939682006836,-11.292388916015625,40.320953369140625,0
604,6039923,-0.03847133368253708,-0.025345955044031143,-0.9887679815292358,-0.359688401222229,-0.6015210151672363,0.05596066638827324,30.709657669067383,-10.89045524597168,39.503353118896484,0
605,6049941,-0.09964059293270111,-0.014798217453062534,-0.9819718599319458,-0.6886972188949585,0.13065309822559357,0.2592487335205078,31.376331329345703,-10.382223129272461,41.133846282958984,0
606,6060210,0.08580205589532852,0.004439337179064751,-1.0025032758712769,-0.17126701772212982,0.7750158309936523,-0.01390783116221428,29.64805793762207,-9.201360702514648,39.56977462768555,0
607,6069825,0.05905482918024063,0.038220759481191635,-0.989978551864624,-0.9646081924438477,0.23541365563869476,-0.15538771450519562,30.59656524658203,-9.102934837341309,39.70619201660156,0
608,6080111,0.022572927176952362,-0.018144983798265457,-1.0212923288345337,-0.7408407330513,-0.07857571542263031,-0.6749666333198547,31.01445960998535,-10.48321533203125,41.61806106567383,0
609,6089909,0.034680575132369995,-0.08313881605863571,-1.0121608972549438,0.6677465438842773,0.14550447463989258,-0.13253404200077057,26.617300033569336,-10.723219871520996,40.356746673583984,0
610,6100070,-0.014024140313267708,-0.09649743139743805,-1.0037282705307007,0.2997758984565735,-0.8893952965736389,-0.17340537905693054,30.377376556396484,-9.378082275390625,39.18165588378906,0
611,6110107,-0.0925242006778717,0.03909578174352646,-1.0395740270614624,1.084631085395813,0.3131498396396637,-0.3499177396297455,28.620601654052734,-8.440873146057129,39.694210052490234,0
612,6119978,0.06930863857269287,0.011469551362097263,-0.9596012234687805,-0.012628350406885147,0.9934029579162598,0.3771562874317169,31.642349243164062,-10.328500747680664,40.888893127441406,0
613,6129881,-0.010323273949325085,0.015638425946235657,-0.9914693832397461,-0.07432299852371216,-0.5781522989273071,-0.2429857850074768,29.881336212158203,-10.219602584838867,40.580509185791016,0
614,6140113,0.03901515156030655,0.0067377518862485886,-0.9648585915565491,0.6861069202423096,-0.08123628795146942,-1.0232048034667969,28.851806640625,-10.34943675994873,40.019813537597656,0
615,6149665,0.03510267660021782,0.0005653086700476706,-1.0247271060943604,-0.3314787745475769,0.1414334625005722,0.18215201795101166,30.962156295776367,-11.469743728637695,40.30528259277344,0
616,6160005,0.06172897294163704,-0.03335518762469292,-1.018039584159851,0.21701259911060333,-0.43377742171287537,-0.4184372127056122,30.712738037109375,-9.35535717010498,41.137908935546875,0
617,6169797,-0.01114149671047926,-0.11400116980075836,-0.9993264079093933,-0.04109723120927811,-0.6454651951789856,-0.02283007837831974,32.37874221801758,-8.931022644042969,40.27455520629883,0
618,6179992,-0.139083594083786,0.04498061537742615,-1.035498857498169,-0.388639897108078,0.39149805903434753,0.3290558457374573,30.153079986572266,-10.692639350891113,37.873661041259766,0
619,6190137,-0.030611637979745865,0.0055043925531208515,-0.9917879104614258,0.7064850330352783,0.43234774470329285,0.03876081481575966,29.28562355041504,-8.412882804870605,38.35922622680664,0
620,6200004,-0.023821774870157242,0.02372291497886181,-0.9863576889038086,0.27446427941322327,0.2564251124858856,-0.023391777649521828,29.58557891845703,-10.805339813232422,39.91477584838867,0
621,6210098,0.05734473466873169,-0.03770117461681366,-0.9979512691497803,-0.1784949153661728,-0.08179431408643723,0.23406709730625153,29.33721160888672,-10.472238540649414,39.33192825317383,0
622,6220044,0.045859504491090775,0.014613332226872444,-0.9956074953079224,0.4415014088153839,-0.1863280087709427,-1.0548714399337769,30.89960479736328,-10.499093055725098,40.01779556274414,0
623,6230122,-0.09511199593544006,0.05293629318475723,-0.9877105355262756,-0.5199089050292969,-0.5704004764556885,-0.33853912353515625,29.181838989257812,-9.911783218383789,39.9430046081543,0
624,6240101,0.03291008248925209,0.02522371895611286,-1.0129806995391846,0.27043962478637695,-0.3570757806301117,0.5872979164123535,29.5882568359375,-11.600276947021484,41.0983772277832,0
625,6249973,0.07477743923664093,0.019492002204060555,-1.0079041719436646,-0.7571771144866943,0.7984607815742493,0.07366883754730225,30.375795364379883,-11.43433952331543,38.25156021118164,0
626,6259956,0.04669437184929848,0.06544435769319534,-0.9820994734764099,-0.065719373524189,0.4207976162433624,0.3382483720779419,28.917747497558594,-8.393492698669434,40.099327087402344,0
