seq,time_us,ax,ay,az,gx,gy,gz,mx,my,mz,drop_flag
0,0,-0.030186306685209274,0.03764099255204201,-0.9995289444923401,-0.04481472447514534,-1.3628432750701904,-1.1695243120193481,29.06548309326172,-9.286670684814453,38.83492660522461,0
1,9919,-0.07469236105680466,0.007432195823639631,-0.9948335289955139,0.36834222078323364,-0.21104741096496582,-0.3562178611755371,28.28667449951172,-11.993021965026855,41.70507049560547,0
2,19856,0.09233821928501129,0.04998117312788963,-0.9902807474136353,-0.05237582325935364,-0.38491472601890564,0.10334677994251251,30.426895141601562,-9.300456047058105,39.39116668701172,0
3,30261,0.009354562498629093,-0.02837708592414856,-0.962618887424469,-0.0499081015586853,0.40549811720848083,0.36735597252845764,29.458717346191406,-11.080771446228027,41.01121139526367,0
4,39807,0.035653844475746155,-0.028756801038980484,-1.0210410356521606,0.29073071479797363,-0.7717514038085938,-0.22853516042232513,30.78436279296875,-11.179730415344238,40.93679428100586,0
5,49996,0.014109994284808636,0.034153226763010025,-0.9499258995056152,-0.19830499589443207,-0.2721504271030426,0.7399101853370667,30.23998260498047,-10.931830406188965,40.1862678527832,0
6,59996,0.0017744613578543067,-0.0049812886863946915,-1.0308066606521606,0.7518595457077026,-0.1261768490076065,0.09761694818735123,29.14544677734375,-10.324021339416504,40.66154479980469,0
7,69901,0.011689811013638973,0.03309444338083267,-1.0085989236831665,0.061488427221775055,0.45639270544052124,0.22071018815040588,29.125341415405273,-9.658540725708008,39.662353515625,0
8,79899,0.027787188068032265,-0.0038542577531188726,-0.9729279279708862,-0.6216132640838623,-0.4577792286872864,0.9295629262924194,29.21245765686035,-10.994569778442383,39.62562561035156,0
9,90146,-0.027957072481513023,-0.07911986112594604,-1.0296859741210938,-0.4182206988334656,-0.6673084497451782,-1.0008327960968018,30.805892944335938,-10.480772018432617,40.376495361328125,0
10,100082,0.06319081038236618,0.06159302592277527,-1.0211111307144165,0.33073318004608154,-0.0016436241567134857,0.7539650797843933,29.29853057861328,-10.243980407714844,39.7275390625,0
11,110156,-0.019954510033130646,-0.017313901335000992,-0.9804648160934448,0.6605893969535828,0.7542693614959717,-0.573462188243866,30.474721908569336,-9.394460678100586,40.101654052734375,0
12,119829,0.012488583102822304,0.026936862617731094,-1.0106925964355469,-0.3054194748401642,1.111579179763794,-0.08661963045597076,30.43194580078125,-8.697449684143066,39.54963684082031,0
13,130206,0.09062817692756653,-0.016606802120804787,-0.9851916432380676,-0.3283573389053345,-0.2870009243488312,0.7906354069709778,31.45787239074707,-9.33450984954834,40.86244201660156,0
14,140029,-0.004157481249421835,-0.03192949295043945,-1.0140302181243896,0.08842290937900543,0.34627559781074524,-0.3918285667896271,30.402677536010742,-9.515884399414062,40.70718765258789,0
15,150124,-0.07582451403141022,-0.04902096837759018,-0.9876695275306702,0.07532021403312683,-0.530221700668335,-0.3442099392414093,30.440338134765625,-9.933176040649414,40.743377685546875,0
16,159971,0.020291505381464958,-0.04403918609023094,-0.9922953248023987,-0.37039175629615784,0.09843771904706955,-0.07613661140203476,28.609895706176758,-11.564909934997559,40.071807861328125,0
17,170124,0.002778375754132867,0.03220120444893837,-0.9643710255622864,-0.1251334249973297,-0.38728269934654236,0.4294090270996094,27.715309143066406,-10.234599113464355,40.44289016723633,0
18,180050,0.06656549125909805,-0.036548055708408356,-0.9963397979736328,-0.09258164465427399,-0.06648822128772736,0.15695276856422424,30.75149154663086,-9.95183277130127,39.06443405151367,0
19,190003,-0.06653910875320435,0.0730816051363945,-1.0165472030639648,-0.22327083349227905,-0.03969334065914154,-0.348796546459198,28.908462524414062,-8.619128227233887,40.310447692871094,0
20,199930,0.06903188675642014,0.011986064724624157,-0.9607601761817932,0.12669779360294342,0.20935429632663727,-0.36962658166885376,30.97697639465332,-11.755706787109375,38.523433685302734,0
21,210012,-0.09132599085569382,0.09009922295808792,-1.0300756692886353,-0.943760335445404,-0.1823481321334839,0.37226834893226624,29.362071990966797,-10.127646446228027,40.624977111816406,0
22,219983,0.0010311101796105504,-0.0970914289355278,-0.9722487926483154,-1.020464539527893,0.4513649344444275,-0.15205608308315277,30.74059295654297,-9.023093223571777,40.70967483520508,0
23,229988,0.0030632554553449154,0.040233537554740906,-0.99253249168396,0.47588860988616943,0.4719620943069458,0.32703742384910583,31.024669647216797,-10.276666641235352,40.685237884521484,0
24,240182,-0.08004534244537354,0.0007491360884159803,-0.9901411533355713,0.4088154435157776,-0.6120262742042542,0.3808278441429138,28.571422576904297,-11.286066055297852,41.41947937011719,0
25,250044,-0.040024347603321075,0.0049029444344341755,-1.0129144191741943,0.2370273470878601,1.1616219282150269,-0.24554240703582764,30.07183074951172,-8.932401657104492,39.597259521484375,0
26,259993,-0.039868831634521484,0.03303532674908638,-0.9974464178085327,0.6328589916229248,-0.471423476934433,0.39377087354660034,28.609060287475586,-10.587149620056152,39.66428756713867,0
27,270271,0.014718051068484783,0.11960551887750626,-1.0345860719680786,-0.1287534385919571,-0.014662179164588451,-0.06005152314901352,29.420495986938477,-10.507837295532227,39.73544692993164,0
28,280053,-0.008749822154641151,-0.10755064338445663,-1.000567078590393,-0.2472594529390335,0.13943947851657867,-0.6145730018615723,29.333810806274414,-10.493447303771973,39.69660186767578,0
29,290046,-0.007352173328399658,-0.0561201348900795,-1.009334683418274,-0.5836459994316101,-0.1937864124774933,-0.11003156751394272,29.364980697631836,-9.056111335754395,38.522239685058594,0
30,299953,0.028673851862549782,0.0347602441906929,-1.0175875425338745,0.1009070873260498,0.029412224888801575,-0.256353497505188,29.218225479125977,-8.783295631408691,39.066566467285156,0
31,310020,0.05129241198301315,-0.058427728712558746,-0.9922276735305786,-0.4239812195301056,-0.16271884739398956,0.02352212555706501,29.734573364257812,-8.996973991394043,41.706356048583984,0
32,319953,0.08391585946083069,0.08379113674163818,-0.9915696978569031,0.6316001415252686,-0.35867074131965637,0.27501240372657776,29.501611709594727,-10.222661018371582,41.50412368774414,0
33,329772,-0.0006507399957627058,-0.09503486007452011,-0.998073935508728,-0.016575537621974945,0.7674981355667114,0.179372176527977,28.400793075561523,-10.071921348571777,40.406951904296875,0
34,340361,-0.03880123049020767,0.04703493043780327,-0.974409818649292,0.5088604092597961,0.5667765140533447,-0.3386412560939789,30.759929656982422,-10.863122940063477,41.33085250854492,0
35,349974,-0.0407693013548851,-0.009527763351798058,-0.973822832107544,-0.5170863270759583,0.9158099889755249,0.31418946385383606,29.82826042175293,-10.69385051727295,41.703433990478516,0
36,359842,-0.04015562683343887,-0.004210402257740498,-1.0316836833953857,-1.6353610754013062,-0.7308147549629211,0.33447328209877014,29.22732925415039,-10.195259094238281,38.18186950683594,0
37,370245,-0.00439048046246171,0.03915943577885628,-0.9992603659629822,0.06946738064289093,0.8594725131988525,0.2467898279428482,29.4425048828125,-9.407033920288086,41.93659210205078,0
38,380059,0.021999875083565712,0.06079627946019173,-0.9983393549919128,0.5297778248786926,0.18681110441684723,0.2311897873878479,30.252429962158203,-10.482182502746582,40.35696029663086,0
39,389888,0.02576536498963833,0.022871021181344986,-1.0364594459533691,-0.20784589648246765,-0.33701255917549133,0.5456958413124084,30.80626678466797,-9.846063613891602,40.55208206176758,0
40,399870,0.02229037508368492,0.07381097972393036,-1.0069397687911987,0.4251759946346283,-0.7679558992385864,-0.09408577531576157,30.512332916259766,-8.355165481567383,39.78554916381836,0
41,409994,-0.09961185604333878,-0.003622456919401884,-0.9810472726821899,-0.9421676993370056,0.4659941792488098,0.20804540812969208,30.506202697753906,-11.308793067932129,40.911529541015625,0
42,419913,-0.008326072245836258,0.0193221066147089,-0.9968984127044678,-0.3689796030521393,0.3958086371421814,0.7560800313949585,30.158443450927734,-10.126150131225586,39.593772888183594,0
43,429964,0.001556476461701095,-0.07912454754114151,-1.0195071697235107,-0.007506502792239189,-0.31462135910987854,0.2604671120643616,30.18829917907715,-12.4878511428833,41.320011138916016,0
44,439864,0.003259200369939208,-0.07119332998991013,-0.99820876121521,0.007535894867032766,-0.3658708930015564,1.1337954998016357,29.58523941040039,-9.473968505859375,39.48392868041992,0
45,449832,-0.0071672238409519196,0.0056401630863547325,-0.9992630481719971,-0.059176966547966,0.3632408678531647,0.4972550570964813,28.686784744262695,-7.842958927154541,40.875328063964844,0
46,459782,0.028681522235274315,0.004889014642685652,-1.0104553699493408,-0.13145016133785248,-0.0058983671478927135,-0.20786479115486145,29.91232681274414,-11.913521766662598,40.53574752807617,0
47,470139,-0.09678930789232254,-0.039443716406822205,-1.0130479335784912,1.2996147871017456,0.22183246910572052,0.6826168298721313,30.88040542602539,-9.591924667358398,40.139976501464844,0
48,479825,0.05090930312871933,0.0025035738945007324,-1.0055207014083862,-0.4848083555698395,0.8821389079093933,0.9966294765472412,28.78289031982422,-8.687122344970703,40.088775634765625,0
49,489812,0.05464464798569679,-0.013126950711011887,-0.9808024764060974,-0.331466943025589,-1.030049443244934,-1.118045687675476,30.73286247253418,-11.83792781829834,40.39642333984375,0
50,500113,0.044390976428985596,0.031360842287540436,-0.9713076949119568,0.30097436904907227,0.19216585159301758,0.6034799814224243,28.294584274291992,-10.031615257263184,38.98870849609375,0
51,509911,0.09964263439178467,0.02316158264875412,-1.008636474609375,-0.2508583068847656,0.07669862359762192,-0.8956537842750549,29.27121925354004,-9.552038192749023,42.140907287597656,0
52,520135,-0.0027608461678028107,0.003334773238748312,-1.0051977634429932,-1.0951026678085327,0.009689091704785824,0.03603087365627289,30.349933624267578,-11.813265800476074,39.33946228027344,0
53,530080,-0.011734512634575367,0.025692250579595566,-1.0098148584365845,0.8114191293716431,-0.4271656572818756,-0.15013514459133148,32.24152755737305,-9.924296379089355,41.45186996459961,0
54,539705,0.055084675550460815,-0.008381782099604607,-1.0186606645584106,0.11044195294380188,-0.5035028457641602,0.20024845004081726,28.792036056518555,-10.999809265136719,41.655765533447266,0
55,549900,-0.043702952563762665,-0.055768512189388275,-1.0488280057907104,-0.35114285349845886,-0.667556643486023,0.12025710940361023,28.829118728637695,-9.451711654663086,38.67603302001953,0
56,560097,0.019208697602152824,-0.0726349875330925,-1.0032780170440674,-0.16556647419929504,0.5345711708068848,0.20544621348381042,27.769283294677734,-11.233746528625488,38.410560607910156,0
57,569994,0.001895938185043633,-0.058875106275081635,-1.0080193281173706,-0.5609656572341919,-0.5249657034873962,-0.24285539984703064,27.489065170288086,-8.623485565185547,38.518394470214844,0
58,579750,-0.06718394160270691,0.05351006239652634,-1.0432852506637573,-0.14536091685295105,-0.3554975986480713,0.31975257396698,28.6514892578125,-10.675164222717285,38.785736083984375,0
59,590296,0.0010428052628412843,-0.049942437559366226,-1.0227395296096802,-0.12437975406646729,0.9976823925971985,0.03743001073598862,30.686416625976562,-10.69573974609375,40.60380935668945,0
60,600129,0.09038999676704407,-0.05241890996694565,-1.0192971229553223,0.042198020964860916,-0.5664034485816956,0.47308671474456787,30.598581314086914,-8.875182151794434,40.286190032958984,0
61,609952,0.03410039842128754,0.08961321413516998,-1.0203698873519897,-0.02173968404531479,-0.06569518893957138,-0.36457136273384094,31.114398956298828,-11.21242618560791,38.860374450683594,0
62,620157,-0.06977660208940506,0.014192446134984493,-1.031815767288208,-0.3073801100254059,0.5010562539100647,-0.12082824856042862,28.910707473754883,-10.799989700317383,40.82890319824219,0
63,629865,0.00199624290689826,-0.0033296034671366215,-0.9818090796470642,-0.1988072544336319,-0.10149593651294708,0.8540757894515991,31.470905303955078,-10.319416999816895,39.65147018432617,0
64,640218,-0.005306496750563383,0.01349133625626564,-1.0111690759658813,1.0353336334228516,-0.1118747889995575,0.04656554013490677,29.815860748291016,-11.225468635559082,39.070716857910156,0
65,650206,-0.051872845739126205,0.063113272190094,-1.0534095764160156,-0.32770055532455444,0.8191860914230347,-0.8201841115951538,29.397605895996094,-9.79155158996582,40.46973419189453,0
66,659807,0.027252377942204475,0.0782698541879654,-0.9725715517997742,-0.2067246288061142,0.7527788877487183,-0.41222983598709106,31.175363540649414,-9.710637092590332,41.16042709350586,0
67,669968,0.02696620114147663,-0.06774711608886719,-0.9901271462440491,0.6373529434204102,-0.09603486210107803,0.4261813163757324,30.65390968322754,-9.715649604797363,40.69390106201172,0
68,680238,-0.06555112451314926,-0.028729014098644257,-0.9998865127563477,0.34330588579177856,-0.591515839099884,-0.0986969918012619,27.781402587890625,-8.53490161895752,40.8503303527832,0
69,690035,0.056272439658641815,-0.057021547108888626,-0.9844034910202026,0.2560427188873291,-0.3883170783519745,-0.01482055988162756,30.19518280029297,-11.045085906982422,38.0216178894043,0
70,699947,-0.024644998833537102,-0.04977705329656601,-1.0059056282043457,-0.4213157892227173,0.3559800684452057,-0.061313845217227936,30.02495002746582,-9.001263618469238,39.723114013671875,0
71,710003,-0.015207692980766296,-0.05590839684009552,-0.9828765988349915,-0.2484392672777176,-0.3093382716178894,-0.2779909074306488,29.938364028930664,-9.698495864868164,42.20223617553711,0
72,720002,0.004923907108604908,-0.03219853341579437,-1.0174245834350586,0.6798814535140991,0.0501098670065403,-0.4526824653148651,30.198650360107422,-9.5634126663208,39.310096740722656,0
73,730345,-0.030252628028392792,0.04340406134724617,-0.9836617708206177,0.5052402019500732,0.1436735838651657,0.5501664876937866,32.91981887817383,-11.510326385498047,40.95244216918945,0
74,739915,-0.06459822505712509,0.013085022568702698,-0.9524490833282471,-0.16020116209983826,-0.07588551193475723,0.010297154076397419,28.735843658447266,-9.248138427734375,40.75566482543945,0
75,749900,0.019257429987192154,-0.08977934718132019,-1.0082873106002808,-0.37684592604637146,0.5441886186599731,0.03427416831254959,29.773807525634766,-10.709651947021484,40.05086135864258,0
76,760131,-0.01702878065407276,0.04946495220065117,-0.9565327763557434,-0.01819433644413948,0.1155456081032753,0.4445689022541046,31.71183204650879,-9.896016120910645,39.99071502685547,0
77,770093,0.028533820062875748,-0.08790057897567749,-1.0059536695480347,0.8700345754623413,-0.09404195845127106,0.2866748571395874,30.30539321899414,-9.36291790008545,39.52398681640625,0
78,779906,0.028701405972242355,-0.004794972483068705,-0.9739038348197937,0.1822347790002823,-0.3172636032104492,-0.4944446086883545,29.8455753326416,-10.304256439208984,41.3497314453125,0
79,789849,-0.10351676493883133,0.07451117038726807,-1.0050666332244873,0.3268561363220215,0.9597381353378296,-0.27861297130584717,29.131860733032227,-9.666765213012695,40.26273727416992,0
80,800079,-0.030549531802535057,-0.035735998302698135,-0.9891434907913208,0.49703291058540344,0.529797375202179,0.16185487806797028,30.951749801635742,-9.252190589904785,40.72548294067383,0
81,809889,-0.027597622945904732,0.017873862758278847,-1.0008198022842407,0.14014171063899994,-0.3098372220993042,-0.14476802945137024,30.09463119506836,-10.301220893859863,38.7086067199707,0
82,820016,0.08380293846130371,-0.0008263216586783528,-0.9859061241149902,-0.23501425981521606,0.37686923146247864,0.07764597237110138,29.594165802001953,-9.655078887939453,39.736961364746094,0
83,829965,0.06337094306945801,-0.06966442614793777,-0.981356680393219,0.15599508583545685,-0.6554802060127258,0.7863348722457886,29.86669158935547,-10.919214248657227,40.12421798706055,0
84,840169,-0.0615866519510746,-0.07415380328893661,-1.0340534448623657,-0.3511669933795929,-0.002190592233091593,0.8431717157363892,30.561176300048828,-9.569829940795898,38.10152053833008,0
85,849972,0.016934163868427277,0.0033981106244027615,-1.0062671899795532,0.022170769050717354,-0.25639885663986206,0.07924649864435196,31.444438934326172,-10.086159706115723,39.9395866394043,0
86,859682,-0.06802920997142792,0.0436311699450016,-1.0333809852600098,0.1345931738615036,0.11809402704238892,-0.4113001525402069,31.314565658569336,-11.377952575683594,39.61277770996094,0
87,869883,0.061448030173778534,-0.05611209571361542,-0.9982402324676514,0.6487173438072205,-0.14340566098690033,0.6679508686065674,31.41129493713379,-10.831364631652832,41.53914260864258,0
88,880022,0.03589366003870964,-0.04397095739841461,-0.9760642647743225,0.13686244189739227,0.2092951387166977,-0.14356502890586853,30.602092742919922,-10.933832168579102,42.04676055908203,0
89,889980,-0.0014828336425125599,0.07442916184663773,-1.0107415914535522,0.14046870172023773,0.004864268004894257,0.10668204724788666,31.948747634887695,-9.133935928344727,38.55619812011719,0
90,900150,0.017935706302523613,0.059669263660907745,-1.0125869512557983,0.7418458461761475,0.9676472544670105,-0.1679299920797348,30.638168334960938,-9.868011474609375,39.78678894042969,0
91,909886,-0.06229456886649132,-0.005387397017329931,-1.0164427757263184,-0.007755164988338947,-1.1085658073425293,0.08167771250009537,28.39723777770996,-9.882535934448242,39.39532470703125,0
92,920045,0.1029675230383873,-0.07170158624649048,-1.0106897354125977,-0.03520238772034645,-0.45310693979263306,-0.037051208317279816,28.43461799621582,-9.600990295410156,40.36048126220703,0
93,930159,-0.03428201377391815,-0.034666918218135834,-1.0067634582519531,-0.4567859470844269,0.07952537387609482,0.8221585750579834,28.6981258392334,-10.654093742370605,42.011497497558594,0
94,940189,0.017395460978150368,-0.08333460241556168,-0.9889175295829773,-0.4463290274143219,0.15864506363868713,-0.3426697552204132,30.695804595947266,-10.708244323730469,40.757354736328125,0
95,950030,-0.05035468935966492,0.021536026149988174,-1.007863163948059,0.6056275367736816,-0.35564568638801575,0.47944551706314087,30.654172897338867,-9.959962844848633,41.284664154052734,0
96,959760,-0.08018843084573746,0.06536635011434555,-0.9781842827796936,-0.43366020917892456,-0.6297491788864136,-0.0512697733938694,29.084117889404297,-11.372223854064941,40.70427703857422,0
97,969913,-0.004882104694843292,0.0214256402105093,-0.9944404363632202,-0.9918790459632874,0.10606104880571365,0.8415626883506775,28.645360946655273,-10.03122329711914,41.31415939331055,0
98,979674,-0.1265808790922165,-0.043108824640512466,-1.0127654075622559,-0.7642832398414612,-0.021746637299656868,-0.0978776142001152,29.929698944091797,-9.937479019165039,39.891021728515625,0
99,989795,-0.02120112255215645,0.018864354118704796,-0.9997386932373047,0.07469996064901352,0.9564636945724487,-0.24771782755851746,30.729248046875,-10.080151557922363,38.01015090942383,0
100,999921,0.03482256457209587,0.031361863017082214,-0.9894298315048218,-0.1218339055776596,-0.13133032619953156,0.08198623359203339,32.038490295410156,-9.526590347290039,39.05142593383789,0
101,1009895,-0.014373881742358208,-0.09566175192594528,-1.017859697341919,0.6327980160713196,0.03652719408273697,-0.9162853360176086,28.30055046081543,-10.928178787231445,40.300819396972656,0
102,1020039,-0.02382809855043888,-0.03531421720981598,-0.9973020553588867,-0.22306092083454132,-1.2142192125320435,-0.12080474942922592,30.83918571472168,-8.964425086975098,40.877403259277344,0
103,1029893,0.0047919913195073605,0.039952050894498825,-1.0332717895507812,0.8078703284263611,0.06473209708929062,-0.15896177291870117,29.778017044067383,-11.195605278015137,39.767147064208984,0
104,1039870,-0.06644195318222046,0.0025501332711428404,-1.0149738788604736,0.02392500638961792,-0.14146879315376282,0.015961285680532455,29.547508239746094,-10.078518867492676,38.49174499511719,0
105,1049938,0.11178333312273026,-0.05029088258743286,-1.0415657758712769,0.2627543807029724,0.1647738367319107,-0.07421562820672989,31.123769760131836,-11.160466194152832,39.661739349365234,0
106,1059931,0.025392038747668266,-0.014915496110916138,-0.9933412671089172,-0.1777050793170929,-0.5594306588172913,0.05615482106804848,29.50639533996582,-10.975851058959961,38.42887496948242,0
107,1070147,-0.007712963968515396,-0.07462503015995026,-1.0063034296035767,-0.41074854135513306,0.49101608991622925,-0.9070028066635132,30.022056579589844,-11.938553810119629,39.658206939697266,0
108,1079731,0.03040536865592003,-0.07498950511217117,-1.0253846645355225,0.30555230379104614,0.12451870739459991,0.1570000797510147,29.857641220092773,-7.961093425750732,39.30915451049805,0
109,1090060,-0.011620801873505116,-0.052917394787073135,-1.0372265577316284,-0.8575999140739441,1.1290842294692993,-1.0895708799362183,28.93367576599121,-10.201531410217285,39.07955551147461,0
110,1100219,-0.06701745837926865,0.07507635653018951,-1.0295485258102417,0.21783949434757233,0.4790502190589905,0.273393839597702,29.417659759521484,-11.380017280578613,39.77644729614258,0
111,1109882,0.09468718618154526,0.08390975743532181,-1.0217149257659912,0.0037704994902014732,0.37599945068359375,0.16641756892204285,29.817140579223633,-9.40368366241455,40.745418548583984,0
112,1119910,-0.07857292890548706,-0.030865011736750603,-1.010722279548645,0.40969139337539673,-0.13763204216957092,-0.13640980422496796,29.532272338867188,-10.690789222717285,42.07322311401367,0
113,1129848,-0.02655896358191967,-0.049089666455984116,-0.9924030303955078,0.14260412752628326,-0.05374019220471382,1.007860541343689,30.33684730529785,-9.408905029296875,40.116634368896484,0
114,1140234,0.042730290442705154,-0.06639769673347473,-0.9641917943954468,0.18357738852500916,0.8557360172271729,-0.8075488805770874,30.446504592895508,-10.223898887634277,39.88063430786133,0
115,1149875,0.06645078957080841,0.0004494090098887682,-1.0044240951538086,-0.3097544312477112,0.1986141800880432,0.1856490820646286,30.766021728515625,-9.094395637512207,41.31840515136719,0
116,1159928,0.10042571276426315,-0.01121995784342289,-1.0303668975830078,0.5323230028152466,0.3067643642425537,-0.05124756321310997,28.734947204589844,-9.969393730163574,39.72706604003906,0
117,1169780,-0.021069414913654327,-0.009482881985604763,-1.0239472389221191,0.39635032415390015,0.27130430936813354,0.3141874670982361,30.089160919189453,-10.80150318145752,42.00668716430664,0
118,1179927,-0.006762354634702206,0.05868048220872879,-1.0052905082702637,-0.1200009435415268,-0.04386720433831215,-0.5915296673774719,28.519397735595703,-10.517350196838379,41.447078704833984,0
119,1190024,0.021610861644148827,0.06555979698896408,-1.024558424949646,0.39126089215278625,0.9338356256484985,0.17705504596233368,28.887052536010742,-10.248754501342773,40.75102615356445,0
120,1200048,0.05139060318470001,-0.023402856662869453,-1.0068550109863281,-0.0001198624522658065,-0.40813520550727844,0.09786737710237503,28.938386917114258,-9.558530807495117,40.09503936767578,0
121,1209990,0.04706769436597824,-0.05627676472067833,-1.0092693567276,0.16750352084636688,-0.9858941435813904,0.2462160289287567,31.1948184967041,-10.125224113464355,39.69196701049805,0
122,1219931,-0.09821191430091858,-0.05728388577699661,-1.023238182067871,-0.47097092866897583,0.29910197854042053,-0.07300174981355667,28.929067611694336,-10.157790184020996,38.1963996887207,0
123,1229986,0.0831369161605835,0.012898694723844528,-0.9986113905906677,0.09579712152481079,-0.05716491863131523,0.517656683921814,28.834192276000977,-10.255261421203613,40.142887115478516,0
124,1239836,0.04483231529593468,0.03824703022837639,-1.022020936012268,-0.5402981042861938,0.046290330588817596,-0.6435467600822449,30.69353485107422,-11.513891220092773,39.582603454589844,0
125,1250075,-0.06480202078819275,-0.012987901456654072,-1.0022735595703125,0.40092456340789795,-0.542273223400116,0.3992275893688202,30.443342208862305,-9.332563400268555,39.188926696777344,0
126,1260218,-0.030512453988194466,0.09541554749011993,-1.0088248252868652,0.11925726383924484,-0.18626141548156738,0.22007080912590027,29.12587547302246,-9.810136795043945,40.71379852294922,0
127,1269724,0.08100251108407974,0.04989388585090637,-1.0111992359161377,-0.2872583866119385,-0.8168266415596008,-1.062420129776001,31.3759765625,-10.1845121383667,40.32794189453125,0
128,1279881,0.012315801344811916,0.013767356984317303,-0.9619429707527161,-0.9223368763923645,-0.0444951094686985,0.6053805947303772,30.188756942749023,-9.877544403076172,42.55183792114258,0
129,1290098,-0.05056072026491165,0.05644841492176056,-1.0225331783294678,-0.5291142463684082,0.07521003484725952,0.04563238471746445,30.565675735473633,-9.113547325134277,41.20193862915039,0
130,1300042,0.007763699162751436,-0.014162723906338215,-0.9749079346656799,0.28988879919052124,-0.4411356449127197,-0.36510923504829407,28.931215286254883,-9.372538566589355,39.985984802246094,0
131,1309891,0.020762551575899124,0.03376554697751999,-0.9943723082542419,-0.3546450734138489,-0.2629096806049347,0.04349241405725479,29.799331665039062,-9.933659553527832,41.813106536865234,0
132,1320359,0.03552879020571709,0.0035764474887400866,-0.9790938496589661,0.07527949661016464,0.21149785816669464,-0.8254809379577637,31.661636352539062,-10.72758674621582,38.484622955322266,0
133,1329714,0.04742537438869476,0.004714084789156914,-1.0331456661224365,-0.6618697047233582,0.4507855474948883,-0.4711894989013672,30.739938735961914,-10.357339859008789,38.31755828857422,0
134,1340232,-0.018798911944031715,-0.12518152594566345,-0.9807499647140503,-0.6540258526802063,0.04831640422344208,-0.49100953340530396,30.290712356567383,-9.187644004821777,39.790199279785156,0
135,1350179,-0.020258232951164246,0.09118640422821045,-0.9822311997413635,0.339321494102478,0.29828307032585144,-0.33569082617759705,29.050518035888672,-9.835341453552246,39.30002975463867,0
136,1360123,-0.012779462151229382,0.010554518550634384,-0.9835559725761414,-0.9058763980865479,-0.5083252191543579,0.05015314370393753,30.061805725097656,-10.888587951660156,39.949249267578125,0
137,1370009,0.005523244850337505,-0.0491078719496727,-0.972911536693573,-0.045095112174749374,0.5087337493896484,0.02630838192999363,30.8021297454834,-8.297985076904297,38.715606689453125,0
138,1379794,0.08220817148685455,0.001856100047007203,-0.9877136945724487,-0.08909479528665543,-0.19664911925792694,0.41951921582221985,29.645099639892578,-10.262947082519531,40.7629508972168,0
139,1389717,0.03016391023993492,-0.014754317700862885,-0.9766507148742676,-0.34045201539993286,-0.6647071242332458,-0.2883132994174957,31.457504272460938,-11.835068702697754,41.85633850097656,0
140,1399907,0.052519503980875015,0.03458334505558014,-0.9861311912536621,-1.1060770750045776,-0.4565545916557312,-0.10319048166275024,30.57960319519043,-8.640348434448242,38.978126525878906,0
141,1410073,-0.02959461510181427,-0.026257909834384918,-0.9879542589187622,0.5336228609085083,-0.14121398329734802,-0.2511778175830841,31.000017166137695,-12.517966270446777,40.17744827270508,0
142,1419966,-0.05899137258529663,-0.06126383692026138,-1.003290057182312,0.5570541024208069,-1.3284006118774414,0.038986802101135254,28.994253158569336,-10.72256088256836,39.37838363647461,0
143,1430075,-0.11482623964548111,0.0238727405667305,-0.9724894165992737,0.6275342106819153,0.11347634345293045,-0.18349747359752655,28.567821502685547,-9.680636405944824,39.84623718261719,0
144,1440041,0.015590725466609001,0.044012442231178284,-1.013901710510254,-0.5271005034446716,-0.2494250386953354,0.4680359959602356,30.0153865814209,-9.969060897827148,40.42828369140625,0
145,1450034,-0.0002331581781618297,-0.011799913831055164,-0.9654720425605774,0.267728716135025,-0.7590463757514954,0.10920973122119904,30.220943450927734,-8.511372566223145,39.74489974975586,0
146,1459812,-0.0531037300825119,-0.09424065053462982,-0.9783135056495667,0.8871206045150757,-0.10835370421409607,0.5767325758934021,27.822893142700195,-9.146862983703613,39.051902770996094,0
147,1469896,0.0043366397731006145,-0.01944846659898758,-0.9901806712150574,0.27024397253990173,0.3407754898071289,-0.15526461601257324,31.127532958984375,-9.8126859664917,39.372779846191406,0
148,1480162,-0.01885763742029667,-0.05138396471738815,-1.0006022453308105,-0.4417406916618347,-0.9285775423049927,0.5378478765487671,29.857276916503906,-9.264313697814941,40.154319763183594,0
149,1490061,-0.030263125896453857,-0.026287568733096123,-0.9622415900230408,0.15196530520915985,0.26084718108177185,-0.255107045173645,29.109027862548828,-11.06557559967041,40.468353271484375,0
150,1499771,-0.026057710871100426,-0.07636665552854538,-1.0069688558578491,-0.563427746295929,-0.4394392967224121,-0.28847047686576843,29.119613647460938,-8.81884479522705,39.17966842651367,0
151,1510048,-0.01501907967031002,0.07885909080505371,-0.9802664518356323,0.19013166427612305,0.10853501409292221,0.8247368931770325,29.68667984008789,-10.191366195678711,40.15375518798828,0
152,1520032,0.08948478102684021,-0.08355775475502014,-0.9813856482505798,-0.0479012168943882,-0.8873282074928284,-0.8241095542907715,30.410768508911133,-10.788960456848145,39.13595199584961,0
153,1530022,-0.07893656194210052,-0.08183028548955917,-0.9822257161140442,0.6774908304214478,0.16079607605934143,-0.3443135619163513,32.84455871582031,-10.322102546691895,40.40519332885742,0
154,1540283,-0.08797626197338104,-0.08118756860494614,-0.9682725667953491,0.2181934416294098,0.4543057978153229,-0.26667264103889465,32.03285217285156,-10.009072303771973,40.374671936035156,0
155,1549950,0.04790407419204712,-0.018896792083978653,-0.9732719659805298,0.49337881803512573,0.4913589656352997,0.5916752219200134,28.000431060791016,-11.35777473449707,42.18012237548828,0
156,1560092,0.06075058877468109,0.012666463851928711,-0.9756647944450378,0.5995641350746155,-0.26108312606811523,-0.3843282461166382,29.27001190185547,-8.186917304992676,41.06827163696289,0
157,1570163,-0.01654887944459915,0.03843608498573303,-0.9683302640914917,0.8374232649803162,0.2207203358411789,0.01166229322552681,30.707799911499023,-10.203798294067383,38.489017486572266,0
158,1579970,-0.10811873525381088,0.008152146823704243,-0.9898079633712769,-0.45083001255989075,0.057283565402030945,-0.22328469157218933,28.859548568725586,-10.889690399169922,40.83808898925781,0
159,1589755,0.05125832185149193,0.02183745615184307,-1.0137025117874146,0.6538523435592651,-0.19271627068519592,-0.18778643012046814,32.92815399169922,-9.841798782348633,40.645469665527344,0
160,1599906,-0.07104609906673431,0.061225831508636475,-0.9788263440132141,-0.01112964004278183,-0.9341132044792175,0.36340785026550293,29.256343841552734,-8.962135314941406,39.725894927978516,0
161,1610231,0.03755081817507744,-0.03255326300859451,-0.9924623966217041,0.176801398396492,0.08511614799499512,-0.5649603009223938,30.47245979309082,-8.842741012573242,38.848388671875,0
162,1620026,0.04060421511530876,0.0010001626797020435,-0.9860556125640869,-0.6140502691268921,-0.3341590464115143,0.31658488512039185,29.81675910949707,-10.929364204406738,40.918128967285156,0
163,1630078,-0.030815891921520233,-0.027708211913704872,-1.0018370151519775,-0.30101093649864197,0.17477944493293762,0.42008182406425476,30.736698150634766,-10.400429725646973,38.02020263671875,0
164,1640037,-0.0715220645070076,0.043960995972156525,-1.0150611400604248,0.4570859372615814,0.33108755946159363,-0.3788209855556488,30.395278930664062,-8.926739692687988,40.603057861328125,0
165,1650003,0.00292475544847548,-0.026655256748199463,-0.9987696409225464,-0.3286168873310089,-0.4499269425868988,-0.22321990132331848,28.76099967956543,-10.01955509185791,41.12681579589844,0
166,1660110,-0.05556615814566612,-0.012682858854532242,-1.0042091608047485,-0.3383259177207947,0.4479258954524994,-0.43411684036254883,30.560380935668945,-10.117227554321289,39.88917541503906,0
167,1670037,0.05183227360248566,-0.014241000637412071,-0.998828649520874,0.16831886768341064,-0.271851509809494,-0.1932588368654251,29.344738006591797,-10.973458290100098,40.24694061279297,0
168,1679867,0.011639553122222424,-0.03381667286157608,-0.9964758157730103,0.6226667165756226,-0.680303692817688,-0.2536364793777466,27.95335578918457,-8.13943862915039,40.11124038696289,0
169,1689839,-0.0601520873606205,-0.01303761824965477,-0.9528525471687317,-0.6429756879806519,0.2605704665184021,0.22267496585845947,32.233306884765625,-10.652725219726562,40.79867935180664,0
170,1700264,0.038773421198129654,0.028545984998345375,-1.018502950668335,-0.3217785358428955,-0.7872884273529053,0.2480221688747406,29.499282836914062,-11.769500732421875,40.46757888793945,0
171,1709977,-0.03414071723818779,-0.00228336313739419,-0.9776015877723694,-0.18649712204933167,0.20597225427627563,0.5366719365119934,29.40874481201172,-10.273496627807617,40.503517150878906,0
172,1719950,-0.06754141300916672,0.08419934660196304,-1.0487548112869263,-0.01671055145561695,-0.4994882345199585,-0.14638808369636536,30.35392189025879,-10.070032119750977,39.94911193847656,0
173,1730002,0.05904337391257286,-0.12092801928520203,-1.0100587606430054,0.21268330514431,-0.09592977911233902,-0.2642694115638733,27.864622116088867,-9.56851863861084,41.03895950317383,0
174,1739929,-0.0247520599514246,-0.12171318382024765,-1.0151978731155396,0.15036115050315857,0.028804434463381767,-0.1722663789987564,29.357994079589844,-9.808919906616211,41.93971252441406,0
175,1750164,-0.03700251877307892,0.07757075875997543,-1.015938401222229,-0.8144034147262573,0.8863497376441956,0.4946168065071106,30.968612670898438,-11.336775779724121,39.57538986206055,0
176,1760285,-0.05452791601419449,0.011396716348826885,-0.9723242521286011,-0.25381746888160706,-0.665917694568634,0.21682244539260864,30.35581398010254,-10.897714614868164,38.73346710205078,0
177,1770034,0.026936793699860573,0.03589531034231186,-1.0054075717926025,0.5554242134094238,0.2655549943447113,0.8167440295219421,30.80877685546875,-9.28411865234375,41.198646545410156,0
178,1779840,0.07965263724327087,0.033278100192546844,-1.0154671669006348,0.3307017982006073,-0.9258676171302795,0.3646600544452667,29.561269760131836,-10.320228576660156,38.43152618408203,0
179,1789863,0.004674249794334173,-0.0013395382557064295,-0.9992520809173584,0.01827293261885643,-0.63309645652771,0.4296444058418274,31.548620223999023,-9.66064739227295,40.7509765625,0
180,1800163,-0.0593925379216671,0.04460309073328972,-1.0322049856185913,-1.191391110420227,-0.15021605789661407,0.04505782574415207,29.956830978393555,-9.337625503540039,39.347068786621094,0
181,1810075,0.007661337498575449,0.02764922007918358,-0.9664644598960876,-0.22395813465118408,0.3254852592945099,-0.3678826093673706,30.233963012695312,-8.3947114944458,40.42629623413086,0
182,1819859,-0.027535509318113327,-0.025732582435011864,-1.0038063526153564,-0.03263626992702484,-0.38551807403564453,0.03599703684449196,29.722604751586914,-11.034170150756836,40.77703857421875,0
183,1829849,0.007380946073681116,-0.055545076727867126,-1.0014551877975464,0.05365575850009918,0.5174794793128967,-1.6947869062423706,31.370088577270508,-11.510730743408203,39.3651237487793,0
184,1840107,-0.06640967726707458,0.025468964129686356,-0.9996651411056519,0.6518758535385132,0.5199276804924011,0.22673285007476807,29.73996925354004,-11.534659385681152,40.17706298828125,0
185,1850092,-0.024780573323369026,-0.0799567922949791,-1.0288437604904175,-0.190621018409729,-0.29954901337623596,-0.06664694100618362,31.290603637695312,-9.503453254699707,39.75337219238281,0
186,1859981,-0.04258645698428154,0.025845639407634735,-0.993686854839325,-0.25065216422080994,-0.7648046016693115,-0.7901090979576111,30.181507110595703,-11.438157081604004,38.76622009277344,0
187,1870021,-0.004911868833005428,-0.004369548987597227,-0.9750816226005554,0.6688300967216492,0.3227284550666809,-0.5523901581764221,29.77206039428711,-10.968596458435059,38.81192398071289,0
188,1880251,0.02216806821525097,-0.07677292078733444,-1.0180901288986206,-0.17931954562664032,0.49199143052101135,-0.6100251078605652,30.292219161987305,-9.136253356933594,38.957679748535156,0
189,1889825,0.05524785444140434,0.04217556491494179,-0.9954774975776672,-0.018742598593235016,0.5504575371742249,-0.44090285897254944,31.163795471191406,-8.443312644958496,39.12129211425781,0
190,1900133,0.02913820743560791,0.038215477019548416,-1.021483063697815,-0.1716640144586563,-0.28458264470100403,-0.32737818360328674,30.381864547729492,-8.652304649353027,39.5645751953125,0
191,1910078,0.02910064160823822,-0.01447026152163744,-0.9795879125595093,-0.040302447974681854,0.46542927622795105,-0.16395418345928192,29.909875869750977,-8.186041831970215,39.47703552246094,0
192,1919897,0.02596655860543251,0.03145209699869156,-0.9964655637741089,-0.30611708760261536,0.3506728708744049,-0.3706876337528229,30.50804901123047,-9.936074256896973,38.82293701171875,0
193,1929942,-0.028011053800582886,0.03478694334626198,-0.9802606105804443,-0.08678431063890457,-0.20280921459197998,0.30231496691703796,29.441133499145508,-9.391695022583008,39.916717529296875,0
194,1939906,0.06841449439525604,-0.020451011136174202,-1.0088136196136475,0.40653330087661743,-0.18586179614067078,-0.8974124193191528,32.16749572753906,-8.95439338684082,40.390953063964844,0
195,1950220,-0.029487328603863716,0.048500221222639084,-1.00714111328125,-0.9001861214637756,-0.17144359648227692,0.5975515246391296,30.818012237548828,-11.268836975097656,39.634429931640625,0
196,1960074,0.01052334625273943,-0.03467884287238121,-1.0069218873977661,1.5258145332336426,-0.333245187997818,-0.14311638474464417,31.039390563964844,-11.386858940124512,38.725181579589844,0
197,1969910,0.009731519035995007,-0.04588624835014343,-1.0266001224517822,0.40664926171302795,0.08031344413757324,-0.6679767370223999,29.004602432250977,-11.361212730407715,41.09883117675781,0
198,1979771,-0.045112110674381256,-0.001040815026499331,-0.961888313293457,-0.8268389701843262,0.02617627941071987,-1.184733510017395,30.369400024414062,-10.283686637878418,41.25634002685547,0
199,1989996,-0.04485563188791275,0.003882655408233404,-0.9981834888458252,0.16929158568382263,-0.8031697273254395,0.8341088891029358,30.015586853027344,-9.018515586853027,39.92706298828125,0
200,1999949,0.006068824790418148,-0.028257068246603012,-0.973469078540802,0.1959230750799179,0.18735261261463165,-0.9099246859550476,29.245086669921875,-9.412238121032715,40.61463928222656,0
201,2010000,0.04604532942175865,-0.012324382551014423,-1.0137929916381836,-0.21493972837924957,-0.3544037342071533,-0.13504847884178162,29.02654266357422,-11.093583106994629,40.439552307128906,0
202,2020227,0.05096891522407532,-0.059974659234285355,-1.0260734558105469,0.3790610730648041,-0.8867416977882385,-0.7152172923088074,31.097972869873047,-12.3316068649292,38.90420913696289,0
203,2030210,-0.1150776669383049,-0.03722076490521431,-1.0151807069778442,-0.9102072715759277,-0.4529159367084503,-0.08672194927930832,30.211170196533203,-9.704636573791504,40.930355072021484,0
204,2040043,-0.04870327562093735,0.05762635916471481,-0.9933075904846191,0.46648213267326355,-0.2729811668395996,0.7278888821601868,30.7260799407959,-10.13901424407959,40.12198257446289,0
205,2049752,-0.042878683656454086,0.08626266568899155,-1.0256109237670898,-0.536686360836029,0.2198268622159958,-0.178961843252182,31.003952026367188,-9.197797775268555,40.07551193237305,0
206,2059941,0.02347414754331112,0.022199254482984543,-1.0026071071624756,-0.22423319518566132,0.4053213596343994,1.3928989171981812,31.945642471313477,-9.979183197021484,40.23992919921875,0
207,2069901,0.014627689495682716,-0.08871858566999435,-0.9888898730278015,-0.02876356989145279,-0.5289799571037292,0.038185782730579376,29.587265014648438,-9.95916748046875,40.26157760620117,0
208,2080161,-0.03392955660820007,-0.03390980139374733,-1.010421872138977,0.037979770451784134,0.4602716565132141,0.2398526668548584,27.760120391845703,-10.390716552734375,40.001834869384766,0
209,2090227,-0.04552420228719711,-0.03257933259010315,-0.9814156293869019,0.33539313077926636,0.7942622900009155,-0.21810832619667053,29.2100887298584,-10.934685707092285,40.97378158569336,0
210,2099959,0.00463970797136426,0.0960259810090065,-0.9683600068092346,0.5445024967193604,-0.9735299348831177,-0.04873551428318024,28.603116989135742,-10.252740859985352,39.62724685668945,0
211,2110273,-0.01681569777429104,0.01757064461708069,-0.9912992715835571,-0.7190127968788147,-0.04175916686654091,0.48231419920921326,28.965328216552734,-10.300564765930176,40.410552978515625,0
212,2120172,-0.09999091178178787,-0.08655332773923874,-0.969387948513031,1.3181103467941284,-0.08116674423217773,0.43595144152641296,29.8691349029541,-9.775259971618652,40.32823944091797,0
213,2130054,0.004530996084213257,-0.08112984150648117,-1.0446103811264038,-0.519223690032959,-0.10547471791505814,-0.22474455833435059,28.164382934570312,-13.36036205291748,39.974002838134766,0
214,2139886,-0.0014589751372113824,-0.0075114513747394085,-0.9551227688789368,-0.7380957007408142,0.9563900232315063,-0.3698984980583191,30.21672248840332,-9.809616088867188,39.949615478515625,0
215,2150217,-0.019125819206237793,-0.05438849702477455,-0.9819685816764832,-0.030338391661643982,-0.4489765167236328,0.5795281529426575,30.260334014892578,-9.904621124267578,40.019508361816406,0
216,2160050,0.08327261358499527,-0.027071518823504448,-0.9930939674377441,0.8017590045928955,0.4157438576221466,0.7350306510925293,29.23935890197754,-8.417784690856934,39.92183303833008,0
217,2169930,0.03901359438896179,0.054723650217056274,-1.016462802886963,-1.0174274444580078,-0.679487943649292,-0.13514545559883118,29.996257781982422,-10.32421875,40.68370056152344,0
218,2180018,0.06738340854644775,0.045918166637420654,-1.015183448791504,-0.12305555492639542,-0.07022067904472351,0.4294193685054779,30.520160675048828,-10.58292007446289,39.98992156982422,0
219,2189737,-0.1444469839334488,0.035609181970357895,-1.0066008567810059,0.8120365738868713,-0.02337493933737278,0.24698926508426666,29.887094497680664,-10.758630752563477,40.568504333496094,0
220,2199818,0.08917004615068436,-0.011487041600048542,-1.0203640460968018,0.8939288854598999,-0.475686252117157,-0.28496965765953064,29.5684757232666,-10.485681533813477,40.97474670410156,0
221,2210115,0.021461354568600655,-0.014992216601967812,-0.9870280027389526,0.1505255550146103,-0.06663714349269867,0.6336055397987366,29.120014190673828,-10.369951248168945,38.513755798339844,0
222,2219852,-0.02721588872373104,-0.06238361820578575,-1.0269951820373535,0.8772177696228027,-0.21913950145244598,0.14626547694206238,28.243654251098633,-9.613053321838379,38.636043548583984,0
223,2230071,0.04030586779117584,0.04973970353603363,-1.0280870199203491,0.24792693555355072,0.4660453200340271,-0.08138412982225418,31.340394973754883,-10.435567855834961,38.89097213745117,0
224,2239749,0.04710642620921135,0.03221076354384422,-1.018123984336853,-0.06326606124639511,-0.6868899464607239,0.9487521052360535,28.339948654174805,-9.05150032043457,39.63450622558594,0
225,2249895,0.026197008788585663,-0.0042120348662137985,-1.0168256759643555,0.08279848843812943,0.3020811378955841,0.36101171374320984,30.47319984436035,-10.456446647644043,40.95263671875,0
226,2259978,0.004162333440035582,0.05177320912480354,-1.0181803703308105,0.4844695031642914,-0.2183172106742859,0.11232557892799377,28.989477157592773,-9.945393562316895,39.803829193115234,0
227,2269878,-0.034943923354148865,0.06952335685491562,-1.004477858543396,-0.1695404350757599,-0.19554604589939117,0.533000111579895,29.116458892822266,-10.024971008300781,39.69980239868164,0
228,2279995,-0.061442673206329346,-0.02316216006875038,-1.0239511728286743,0.8055980801582336,0.5010871291160583,0.4181821644306183,30.2708683013916,-10.21461009979248,40.0740966796875,0
229,2289986,0.014367153868079185,0.07940035313367844,-0.9972538352012634,-0.5995985865592957,-0.37855908274650574,-0.46311724185943604,28.97258758544922,-10.152670860290527,39.56174087524414,0
230,2299921,-0.001411847653798759,0.036062512546777725,-1.007312297821045,-0.5151504278182983,-1.0244743824005127,0.7055386304855347,32.144954681396484,-11.429915428161621,41.859004974365234,0
231,2309855,-0.016651220619678497,-0.012520872987806797,-0.9951604604721069,-0.8587343692779541,0.3120245337486267,0.4385828971862793,31.111614227294922,-10.136863708496094,40.82523727416992,0
232,2320075,0.00619306368753314,-0.011927500367164612,-0.9838271737098694,-0.08920164406299591,0.05959950014948845,0.12067390233278275,28.538549423217773,-8.682487487792969,40.541221618652344,0
233,2330028,-0.009720643982291222,-0.009172959253191948,-0.9749543070793152,-0.2624123692512512,0.8024717569351196,0.09061577916145325,30.120840072631836,-10.770425796508789,39.91721725463867,0
234,2340057,0.0008861154783517122,-0.004120118450373411,-1.038897156715393,0.17526860535144806,0.834414541721344,0.7146221399307251,28.26069450378418,-8.093209266662598,37.98244094848633,0
235,2349881,0.04054766148328781,0.030262302607297897,-1.0117417573928833,0.840770959854126,-0.13705790042877197,0.0827673152089119,28.102745056152344,-10.255064010620117,39.541263580322266,0
236,2359897,-0.008358277380466461,-0.03042811155319214,-0.9848945736885071,-0.5093101263046265,-0.14185893535614014,-0.3349890112876892,28.941804885864258,-10.417140007019043,37.858089447021484,0
237,2370080,-0.07163873314857483,-0.02803136594593525,-1.0059677362442017,0.45497074723243713,0.2673072814941406,-0.16401441395282745,31.060440063476562,-9.457380294799805,38.20917510986328,0
238,2379844,0.03541753441095352,0.015686066821217537,-1.008118987083435,0.7099080681800842,-0.193352609872818,0.4519137740135193,31.328510284423828,-11.030351638793945,39.04408264160156,0
239,2389807,0.042208004742860794,0.0013782165478914976,-0.9749791622161865,-0.00990438275039196,-0.019317757338285446,-0.727774441242218,30.801904678344727,-10.105096817016602,38.54750061035156,0
240,2399763,-0.11020702123641968,0.015565799549221992,-1.0086948871612549,-0.5384737253189087,-0.689494252204895,-0.08159678429365158,30.79350471496582,-9.683748245239258,40.4107551574707,0
241,2409971,0.03468840941786766,0.11107079684734344,-0.9778134226799011,-0.0017483755946159363,-0.7067396640777588,0.13579416275024414,30.417808532714844,-8.96099853515625,39.73484802246094,0
242,2419891,-0.06373708695173264,0.0006643883534707129,-0.9896103143692017,0.3920147120952606,0.07795334607362747,-0.5171228647232056,28.185178756713867,-9.474181175231934,35.45729064941406,0
243,2429735,0.003997392021119595,-0.046116575598716736,-1.0074766874313354,-0.35255005955696106,-0.023809978738427162,0.6869810819625854,29.837928771972656,-8.593923568725586,41.93913269042969,0
244,2439876,-0.06389973312616348,-0.08181323111057281,-1.0073479413986206,-0.3796791434288025,0.4944709539413452,0.17706915736198425,28.83798599243164,-11.425393104553223,39.75421142578125,0
245,2449921,0.058610089123249054,0.02419358119368553,-1.003892183303833,0.26164510846138,0.4330959618091583,-0.13847683370113373,29.990142822265625,-9.258187294006348,38.829219818115234,0
246,2460047,0.012986734509468079,-0.009874308481812477,-1.0424696207046509,0.47059792280197144,-0.05187418311834335,-0.4159320890903473,29.62537384033203,-9.072318077087402,40.46147537231445,0
247,2470081,-0.05099796503782272,-0.0232776440680027,-0.9717159271240234,0.4195824861526489,-0.03605404496192932,0.26879143714904785,29.154558181762695,-8.807262420654297,38.75496292114258,0
248,2480054,-0.010363736189901829,-0.0059167807921767235,-0.9949039220809937,-0.197640061378479,-0.6287453770637512,-0.2031192183494568,28.52176856994629,-6.503472328186035,40.66737365722656,0
249,2489957,0.02084876224398613,0.15116453170776367,-1.0000035762786865,-0.0005266262451186776,-0.9888563752174377,-1.071730375289917,30.333768844604492,-10.80855655670166,39.133811950683594,0
250,2500108,-0.045803479850292206,-0.034716833382844925,-0.9803857207298279,-0.15765026211738586,-0.034680888056755066,-0.101957306265831,30.74683952331543,-10.800882339477539,40.605899810791016,0
251,2509969,0.002555213635787368,-0.013601931743323803,-0.9912751317024231,0.3996128737926483,-0.11729316413402557,0.12121934443712234,28.504220962524414,-8.505467414855957,39.827598571777344,0
252,2520241,-0.02107820101082325,0.00546545535326004,-0.9860749244689941,0.11622735112905502,-0.6020767092704773,-0.4707053303718567,29.101707458496094,-8.114036560058594,40.82782745361328,0
253,2530073,0.005272636190056801,-0.03215890750288963,-0.9698379635810852,-0.4574331045150757,-0.4112522304058075,-0.09461807459592819,30.7117919921875,-7.735170364379883,38.60799789428711,0
254,2540190,-0.03984725475311279,0.05776617303490639,-1.0049971342086792,0.3370665907859802,-0.1231730729341507,-1.027937412261963,31.24598503112793,-9.258273124694824,40.099552154541016,0
255,2549941,-0.09286043047904968,-0.05784144252538681,-0.982370913028717,-0.06650952994823456,0.4572126567363739,-0.507373571395874,30.987590789794922,-8.99986743927002,40.03861999511719,0
256,2559801,-0.01787765510380268,-0.02858482301235199,-1.0036849975585938,0.3633466958999634,-0.5400969982147217,-0.7336689829826355,30.634233474731445,-9.769440650939941,40.995914459228516,0
257,2569855,0.015624900348484516,0.007049990352243185,-0.9862857460975647,-0.32884639501571655,0.6307486891746521,-1.035874843597412,29.96982765197754,-9.338822364807129,40.05540084838867,0
258,2579814,0.00014489388559013605,-0.002267965115606785,-0.9803025126457214,0.3474421799182892,0.2684691548347473,-0.7505303621292114,30.770421981811523,-9.495031356811523,39.961334228515625,0
259,2589636,0.08134438842535019,-0.06393752992153168,-0.9798764586448669,0.5203591585159302,-0.030609842389822006,0.15279972553253174,30.153528213500977,-10.338369369506836,39.57855224609375,0
260,2599942,-0.03305409103631973,-0.03962664678692818,-1.028497576713562,0.24140095710754395,0.4771302342414856,0.1489984095096588,30.137746810913086,-10.411211967468262,41.23242950439453,0
261,2609763,-0.0035546040162444115,0.0036646099761128426,-1.0326262712478638,-0.40962129831314087,-0.3017210364341736,0.0716213658452034,31.906383514404297,-10.506246566772461,39.90283203125,0
262,2620142,-0.018892761319875717,-0.04247764125466347,-0.9813665747642517,-1.0712288618087769,0.0749441459774971,0.29055726528167725,27.43860626220703,-11.008499145507812,39.43404769897461,0
263,2630155,0.014557552523911,0.09313452988862991,-1.0402096509933472,0.8136732578277588,-0.11477630585432053,-0.15810295939445496,30.64419937133789,-10.552462577819824,39.63842010498047,0
264,2640245,-0.014354481361806393,-0.010829458944499493,-0.9995904564857483,0.12986774742603302,-0.5935970544815063,-0.8767261505126953,29.303394317626953,-10.79992961883545,39.29961395263672,0
265,2650260,0.000790593505371362,-0.028732961043715477,-1.0023307800292969,-0.370878130197525,0.3081488609313965,-0.01052094530314207,30.545841217041016,-9.806461334228516,39.79470443725586,0
266,2659950,0.1245437040925026,0.07191283255815506,-0.9964848756790161,0.09954956918954849,-0.3521419167518616,0.2433055192232132,30.115623474121094,-10.242806434631348,40.76091003417969,0
267,2670266,-0.09012437611818314,0.06995249539613724,-0.9751211404800415,-0.05544222891330719,-0.3663160800933838,0.24739868938922882,30.429264068603516,-10.597649574279785,39.438663482666016,0
268,2679969,-0.03344478830695152,-0.03880762681365013,-1.0272243022918701,0.009083576500415802,0.018898988142609596,0.6124311685562134,29.58214569091797,-8.342747688293457,39.05839538574219,0
269,2689955,-0.02594599686563015,0.06828252226114273,-1.0240956544876099,0.016861271113157272,0.5119605660438538,0.042736586183309555,30.920024871826172,-9.385621070861816,42.98991775512695,0
270,2699848,-0.06279092282056808,-0.12001876533031464,-0.9664514064788818,-0.37004318833351135,-0.5291963219642639,0.3672681748867035,27.986417770385742,-12.623371124267578,39.225799560546875,0
271,2710121,-0.05930422618985176,-0.004831159021705389,-0.988342821598053,-0.18392173945903778,-0.27745532989501953,0.15269529819488525,30.80685043334961,-10.80573558807373,40.01289749145508,0
272,2719981,-0.0864948257803917,0.010567550547420979,-0.9903618097305298,-0.9735307693481445,-0.3614822030067444,0.4520896077156067,30.706186294555664,-9.725666999816895,40.637935638427734,0
273,2730038,0.054590240120887756,-0.08954592049121857,-1.0082650184631348,-0.9837061166763306,-0.3240339457988739,0.5884096026420593,28.630353927612305,-10.96414566040039,42.181617736816406,0
274,2739981,0.010822980664670467,0.007167427334934473,-1.0561703443527222,-0.51575767993927,-0.8766989707946777,0.05355572700500488,28.539199829101562,-8.374103546142578,40.867340087890625,0
275,2749973,0.07228323072195053,0.0023738215677440166,-0.9715766310691833,0.15307433903217316,0.3605923354625702,0.6924488544464111,31.161611557006836,-9.712133407592773,38.73633575439453,0
276,2759884,0.08426041156053543,-0.046440497040748596,-1.0124061107635498,-0.9124894738197327,0.781597375869751,0.4755899906158447,31.139503479003906,-10.207572937011719,39.327171325683594,0
277,2769970,0.015682242810726166,0.013705064542591572,-0.9983143210411072,0.22010429203510284,-0.7561392188072205,-0.3467002213001251,29.26498794555664,-9.533828735351562,39.84050369262695,0
278,2779897,-0.12022031098604202,-0.02251557819545269,-0.9949701428413391,0.46849894523620605,-0.24715305864810944,-0.10735686123371124,30.970552444458008,-11.849689483642578,40.62916564941406,0
279,2789983,-0.03661307692527771,-0.047409024089574814,-1.0083342790603638,-0.14729201793670654,-0.9971193075180054,-0.6652535200119019,29.23112678527832,-9.983591079711914,39.533390045166016,0
280,2799947,0.013524319976568222,0.12818105518817902,-1.0028409957885742,0.8812557458877563,-0.2712094187736511,0.17002703249454498,33.463134765625,-8.809807777404785,41.147701263427734,0
281,2809934,-0.010428383946418762,-0.05456666648387909,-1.0250885486602783,-0.11932052671909332,-0.8510047793388367,-0.28529396653175354,29.240440368652344,-10.459528923034668,40.31120300292969,0
282,2820124,0.014402726665139198,0.07280659675598145,-1.0093984603881836,0.49352583289146423,-0.3972882628440857,0.10068504512310028,29.850446701049805,-10.430794715881348,38.84172058105469,0
283,2830068,0.047198615968227386,-0.057108547538518906,-0.9906079173088074,-0.6480196714401245,0.4666169583797455,-0.5012768507003784,30.002857208251953,-9.272080421447754,38.12521743774414,0
284,2839795,0.060417305678129196,0.02859414741396904,-0.9974852204322815,0.3891373872756958,-0.3653491735458374,-0.5136634111404419,29.036298751831055,-10.959735870361328,40.2072868347168,0
285,2850194,0.006154876668006182,-0.008184448815882206,-1.0063380002975464,0.19472452998161316,-0.3936983644962311,-0.26844075322151184,31.897327423095703,-9.8652925491333,40.45849609375,0
286,2859946,-0.03775467351078987,0.13152749836444855,-1.0495253801345825,-0.9143611788749695,-0.8320835828781128,-0.5814423561096191,30.715900421142578,-9.091720581054688,40.64244079589844,0
287,2870194,-0.0068406299687922,0.11018291860818863,-1.0412737131118774,0.12342935055494308,-0.1702570915222168,-0.8420727849006653,31.43834114074707,-10.164082527160645,40.42570877075195,0
288,2880097,0.028502527624368668,0.00584390526637435,-1.000242829322815,0.3647492229938507,0.692863404750824,0.09913621097803116,29.35205841064453,-10.805208206176758,39.768524169921875,0
289,2890026,0.05777028948068619,0.0033485505264252424,-0.9901158809661865,0.9336740374565125,-0.06460349261760712,0.301666259765625,30.00710105895996,-9.383049011230469,39.87314987182617,0
290,2899861,0.05251595005393028,0.023647477850317955,-0.9939525723457336,0.35068953037261963,-0.18532778322696686,-0.3912524878978729,28.612159729003906,-9.414654731750488,40.187374114990234,0
291,2909831,0.09016478806734085,0.07743443548679352,-1.015566349029541,-0.345758318901062,0.5002278685569763,-0.6282368898391724,30.14925765991211,-9.211384773254395,41.631195068359375,0
292,2920029,-0.041045162826776505,-0.05181771516799927,-1.0302040576934814,0.015212771482765675,-0.43085363507270813,0.6822740435600281,31.242395401000977,-8.99765396118164,40.03993606567383,0
293,2930117,-0.08779340237379074,0.012043967843055725,-0.9842771291732788,-0.22091639041900635,0.6673903465270996,-0.7816444039344788,31.92630958557129,-9.783759117126465,41.89283752441406,0
294,2939880,-0.025045471265912056,-0.01255539059638977,-0.9962836503982544,-1.1942112445831299,-0.4233003556728363,1.1114487648010254,29.925670623779297,-10.576844215393066,38.28529739379883,0
295,2949882,-0.02078114077448845,-0.005698186811059713,-1.0150805711746216,-0.0087282070890069,-0.6015715599060059,-0.13367804884910583,30.19127082824707,-8.916111946105957,40.12993621826172,0
296,2959737,-0.05117516219615936,0.08508670330047607,-0.9791630506515503,0.7507427930831909,-0.039401374757289886,0.26734623312950134,31.9990291595459,-8.474309921264648,39.902278900146484,0
297,2969974,-0.002543157432228327,-0.026600025594234467,-1.0036488771438599,0.2322888970375061,0.650134265422821,0.5338692665100098,30.926681518554688,-9.35107707977295,40.15931701660156,0
298,2980087,0.031955789774656296,-0.030809562653303146,-0.9743262529373169,-0.2248365581035614,0.19338111579418182,0.5659606456756592,31.134057998657227,-8.95881175994873,38.43670654296875,0
299,2989947,0.04505756124854088,0.046194739639759064,-1.0188663005828857,0.34971705079078674,0.457914799451828,0.3285820782184601,29.740800857543945,-10.389544486999512,40.78091812133789,0
300,3000140,0.07594725489616394,0.049764152616262436,-1.0159567594528198,-0.6206705570220947,-0.29041579365730286,0.42220890522003174,30.864469528198242,-9.230201721191406,39.37480163574219,0
301,3010073,0.008399993181228638,-0.01063571497797966,-0.9938936829566956,0.5076690316200256,0.5486786961555481,-0.3618880808353424,33.1616096496582,-9.001628875732422,39.78300476074219,0
302,3020063,0.042932625859975815,0.08167038857936859,-1.018320083618164,-0.16175197064876556,0.5246701240539551,-0.4024868905544281,30.764129638671875,-10.188069343566895,41.80249786376953,0
303,3030044,0.02973105013370514,0.043322280049324036,-0.9797654747962952,-0.3327787518501282,-0.7667183876037598,-0.17784079909324646,29.640541076660156,-10.533625602722168,40.688232421875,0
304,3040097,-0.0972643569111824,0.006975971627980471,-1.002282738685608,-0.40695175528526306,0.4049861431121826,0.5117447376251221,31.205541610717773,-8.422440528869629,41.524314880371094,0
305,3050114,-0.03279342129826546,-0.002020482672378421,-0.951075553894043,-0.14727361500263214,0.08827567845582962,-0.513062596321106,28.678340911865234,-10.286757469177246,39.28078079223633,0
306,3060158,-0.057215481996536255,0.08048857003450394,-1.0167782306671143,0.247503399848938,-0.48917651176452637,0.34066739678382874,30.557594299316406,-9.097383499145508,40.32099914550781,0
307,3069796,0.06936390697956085,0.057080693542957306,-0.9796435236930847,0.609078586101532,0.11136654019355774,0.5866701602935791,30.310043334960938,-11.66933536529541,40.79124450683594,0
308,3079833,-0.03694441542029381,0.016162458807229996,-1.013933539390564,-0.03495621308684349,0.4314703345298767,0.7239606976509094,29.736413955688477,-10.46831226348877,39.37881851196289,0
309,3090139,-0.025746628642082214,0.02833678387105465,-0.986152172088623,0.07228454202413559,-0.07186484336853027,0.9848795533180237,28.498437881469727,-10.606363296508789,41.248252868652344,0
310,3099989,-0.047036219388246536,-0.002031106036156416,-0.9855495691299438,-0.510577917098999,-0.44771209359169006,-0.8169864416122437,29.47488021850586,-10.454710006713867,38.37062454223633,0
311,3109900,0.008636134676635265,-0.014477180317044258,-1.0021729469299316,0.5910255908966064,0.730146586894989,-0.185599684715271,30.459157943725586,-10.67428970336914,39.633670806884766,0
312,3120017,0.11414854228496552,-0.025295406579971313,-0.9885203838348389,0.6643009781837463,0.4442235827445984,0.028514407575130463,29.01464080810547,-9.005810737609863,40.9055061340332,0
313,3130088,-0.03216661140322685,0.03668097034096718,-1.0378631353378296,-0.7284726500511169,0.1451730579137802,0.047527965158224106,28.754335403442383,-9.996245384216309,41.8886604309082,0
314,3139919,0.021477533504366875,-0.02758186310529709,-0.9772003889083862,0.2553006708621979,-0.652034342288971,0.2785794138908386,30.734037399291992,-10.895085334777832,40.0642204284668,0
315,3149976,0.05536475405097008,0.009199462831020355,-0.9926633238792419,-0.21922184526920319,0.8967527151107788,0.20509812235832214,29.42398452758789,-10.525300979614258,40.47593307495117,0
316,3159973,0.05239250510931015,0.0086308429017663,-1.011398196220398,-0.1757047176361084,0.5437038540840149,-0.17110274732112885,29.155811309814453,-10.492729187011719,40.88654327392578,0
317,3169908,-0.0036742312368005514,-0.008928154595196247,-0.9868077039718628,0.5268127918243408,-0.1324472576379776,0.06131179258227348,30.718490600585938,-9.619915962219238,40.265113830566406,0
318,3179896,0.021132800728082657,-0.01153544895350933,-1.021963119506836,-0.27997449040412903,0.5380486249923706,-0.689578115940094,30.849327087402344,-10.23703670501709,40.07012939453125,0
319,3190046,0.0469001941382885,0.07344724982976913,-0.9846917986869812,0.42444488406181335,0.22132503986358643,-0.457419216632843,28.817155838012695,-10.743884086608887,38.97257995605469,0
320,3199814,0.02551671490073204,0.02247689850628376,-1.0266402959823608,-0.8033837080001831,-0.30571165680885315,-0.2707328498363495,30.46034812927246,-10.735893249511719,40.649993896484375,0
321,3209839,0.02951544150710106,-0.0218329019844532,-1.0293740034103394,0.4481480121612549,-0.3818948268890381,-0.4737907946109772,29.03005027770996,-11.043157577514648,39.59496307373047,0
322,3220032,-0.007084432523697615,0.023620489984750748,-1.0246951580047607,0.01910572312772274,-0.34692007303237915,-0.46102094650268555,31.139835357666016,-10.31029987335205,39.921546936035156,0
323,3229955,-0.09227525442838669,-0.010414631105959415,-0.9856909513473511,0.2165246456861496,-0.260297566652298,0.4890984296798706,30.51959228515625,-9.466923713684082,39.89377975463867,0
324,3240086,-0.055962782353162766,0.017627745866775513,-1.0045750141143799,-0.007473938632756472,1.1505745649337769,-0.07225315272808075,29.86513328552246,-11.074233055114746,42.04213333129883,0
325,3250149,-0.0286997240036726,-0.04023370519280434,-0.9736719727516174,0.5869291424751282,0.15632328391075134,-0.5749435424804688,31.80844497680664,-9.519510269165039,42.019107818603516,0
326,3260045,-0.09975140541791916,-0.01957116834819317,-1.0102921724319458,-0.15023837983608246,0.7156879305839539,0.12102680653333664,28.975982666015625,-10.254080772399902,40.96387481689453,0
327,3269670,0.019908051937818527,-0.0017614770913496614,-0.9660888910293579,0.44905635714530945,0.8094523549079895,0.39753761887550354,28.90372657775879,-10.00395393371582,40.922645568847656,0
328,3280115,-0.06595060974359512,0.07094622403383255,-0.9897104501724243,-0.7422078847885132,-0.6891560554504395,0.43923473358154297,28.83889389038086,-11.665445327758789,39.74319076538086,0
329,3290081,0.044035788625478745,-0.018248114734888077,-0.989280641078949,0.37307459115982056,-0.015472120605409145,-0.7003511786460876,30.82229232788086,-11.840618133544922,37.99591064453125,0
330,3300193,-0.06220761314034462,-0.043783314526081085,-1.0132288932800293,0.032376475632190704,-0.5140202641487122,-0.6680049896240234,31.31252098083496,-9.123896598815918,40.278480529785156,0
331,3310046,0.07261759787797928,0.033574365079402924,-1.0123738050460815,0.4549688994884491,-0.5076150298118591,0.35452207922935486,30.375553131103516,-7.738564968109131,39.94520950317383,0
332,3320017,-0.08251859247684479,0.058785054832696915,-1.0296878814697266,0.44287070631980896,0.8980597853660583,-0.9845119714736938,29.124486923217773,-9.799824714660645,40.47501754760742,0
333,3329984,0.05997978523373604,0.013171656988561153,-0.9695785641670227,-0.014686906710267067,0.14127705991268158,-1.098389983177185,30.284374237060547,-9.21147346496582,39.18593978881836,0
334,3340200,-0.05519547685980797,0.011815153993666172,-1.0261116027832031,0.1714663952589035,-1.1493031978607178,0.15165530145168304,28.503068923950195,-11.29677677154541,39.48054122924805,0
335,3350108,0.009824760258197784,0.045789122581481934,-1.0252214670181274,-0.3415898382663727,-0.5452104210853577,-0.20950134098529816,30.52400016784668,-10.623261451721191,41.47519302368164,0
336,3360075,-0.05029981955885887,0.017244841903448105,-0.9852801561355591,-0.39557650685310364,-0.47653117775917053,0.7169733643531799,30.293020248413086,-8.154969215393066,40.258644104003906,0
337,3369758,-0.010943952947854996,-0.0853222906589508,-0.9657952785491943,0.22810938954353333,0.2594641149044037,-0.06279648095369339,29.89646339416504,-10.106485366821289,40.50779724121094,0
338,3380080,0.0208527073264122,0.002137537579983473,-1.012723445892334,-0.07666028290987015,0.004905818961560726,-0.5528623461723328,32.13268280029297,-9.824901580810547,39.33739471435547,0
339,3389993,-0.01938575878739357,-0.01147651020437479,-0.9960418939590454,0.6290151476860046,0.7128494381904602,-0.0940198227763176,30.103282928466797,-10.495035171508789,39.660526275634766,0
340,3400017,0.041738901287317276,0.059201568365097046,-0.9838438034057617,-0.4738861322402954,0.023174583911895752,-0.09142496436834335,29.319446563720703,-10.691920280456543,40.251399993896484,0
341,3410142,-0.013697456568479538,0.011666372418403625,-1.028642177581787,0.6073851585388184,-0.6761633157730103,0.28838199377059937,28.791065216064453,-9.414259910583496,38.805397033691406,0
342,3419916,-0.051164012402296066,-0.04656605422496796,-1.0034379959106445,0.33363810181617737,-1.3961180448532104,0.2743014991283417,29.044635772705078,-10.192558288574219,39.83498001098633,0
343,3429900,-0.12348511815071106,-0.05131027474999428,-1.001721978187561,0.13435545563697815,0.580295205116272,0.12374353408813477,29.542396545410156,-10.17021369934082,38.06824493408203,0
344,3439541,0.05434592440724373,0.005562532227486372,-0.9809730052947998,-0.2100529670715332,0.514045000076294,0.056183140724897385,30.323226928710938,-10.027058601379395,40.646968841552734,0
345,3450104,-0.09683235734701157,-0.06883326917886734,-1.0128555297851562,0.5790265202522278,-0.1382095366716385,0.19385665655136108,31.652652740478516,-8.640128135681152,39.98739242553711,0
346,3460120,0.036291927099227905,0.06838970631361008,-1.031691551208496,0.48155081272125244,-0.7868751883506775,0.8029428124427795,29.03165054321289,-11.032504081726074,41.45058822631836,0
347,3469859,-0.009178172796964645,-0.001906338962726295,-0.9803463816642761,-0.026107605546712875,-0.2955498993396759,-0.07411804050207138,31.88422966003418,-9.739990234375,41.17049026489258,0
348,3480462,0.046560224145650864,-0.056583553552627563,-0.9826158881187439,0.1449405401945114,0.9621767997741699,0.9727278351783752,29.906574249267578,-8.147918701171875,39.8177604675293,0
349,3490091,-0.048849765211343765,-0.10606524348258972,-0.9910541772842407,-0.6832926273345947,0.7093390226364136,0.38167279958724976,30.190439224243164,-11.849653244018555,40.312381744384766,0
350,3500242,-0.03986416012048721,0.09620837867259979,-0.9817144870758057,-0.4327905774116516,0.031443431973457336,0.5150693655014038,30.298479080200195,-11.014403343200684,40.972084045410156,0
351,3510136,0.043057918548583984,-0.07234002649784088,-1.0438705682754517,-0.16727609932422638,-0.5336874127388,-0.21647994220256805,28.59379005432129,-9.492218971252441,39.99384689331055,0
352,3520097,0.052010439336299896,-0.020318729802966118,-1.0002262592315674,-0.22148430347442627,-0.2806805372238159,-0.44651350378990173,30.39605140686035,-9.516996383666992,39.5085563659668,0
353,3529853,0.01499332208186388,-0.01928221434354782,-1.0116796493530273,0.02400415576994419,-0.03031705878674984,-0.5159158110618591,29.782285690307617,-11.21331787109375,40.554691314697266,0
354,3540017,-0.14567720890045166,0.005975236184895039,-1.0237579345703125,-0.04354705661535263,0.62367182970047,0.7559465169906616,29.819822311401367,-10.758437156677246,39.3635368347168,0
355,3550067,0.05132971704006195,-0.05052910000085831,-0.9533092379570007,-0.10387938469648361,0.22452306747436523,0.22894036769866943,28.45203971862793,-9.966025352478027,40.08557891845703,0
356,3560208,-0.002447823528200388,0.05783141031861305,-1.0265069007873535,-0.7504706382751465,0.3591543138027191,0.42419758439064026,30.898906707763672,-8.394218444824219,38.574501037597656,0
357,3569928,-0.024671243503689766,0.057582855224609375,-0.9696030616760254,1.1125692129135132,0.5222063064575195,-0.447928249835968,29.396879196166992,-7.8072075843811035,40.32063674926758,0
358,3579896,-0.0009829405462369323,-0.004693310707807541,-1.0060292482376099,0.9606876969337463,0.27694180607795715,0.580848217010498,28.011621475219727,-11.758804321289062,40.135379791259766,0
359,3590025,0.04103867709636688,-0.09497909247875214,-1.0023835897445679,-0.17131809890270233,-0.02313303016126156,0.551764965057373,31.463525772094727,-7.62021017074585,40.56377029418945,0
360,3599725,0.029115905985236168,-0.027360642328858376,-1.0093802213668823,0.5296170115470886,0.030543530359864235,0.39534419775009155,30.12781524658203,-9.956198692321777,39.35503005981445,0
361,3609961,0.04036875441670418,0.10512568801641464,-1.0270353555679321,0.035490550100803375,-0.5134457349777222,1.1393054723739624,31.039613723754883,-10.3180513381958,41.97172927856445,0
362,3619990,-0.05188051983714104,-0.004688556771725416,-0.9837232232093811,-0.6345593929290771,0.4016498625278473,0.40035417675971985,28.136571884155273,-8.083430290222168,41.1253547668457,0
363,3630494,0.022897984832525253,0.01644735224545002,-0.9898434281349182,0.8268947601318359,0.13322488963603973,0.21036440134048462,29.3872127532959,-9.792976379394531,39.572731018066406,0
364,3639923,-0.02580428123474121,-0.07375377416610718,-1.021080493927002,-0.10790824890136719,0.6499106884002686,0.7425194978713989,27.778911590576172,-11.210638046264648,40.63877487182617,0
365,3650092,-0.032163988798856735,-0.012196578085422516,-0.9952697157859802,0.9786831140518188,0.00437172269448638,0.01815139129757881,29.263587951660156,-10.698429107666016,38.39794921875,0
366,3659904,0.010938522405922413,0.0513211190700531,-1.0013046264648438,-0.33272063732147217,0.2769690752029419,-0.4071032702922821,29.658557891845703,-8.889256477355957,38.71329116821289,0
367,3670064,-0.033038001507520676,0.020713552832603455,-0.991175651550293,0.5454311370849609,0.703373372554779,0.18304099142551422,29.103025436401367,-9.62192440032959,39.31442642211914,0
368,3680039,-0.03618729114532471,-0.05775550752878189,-1.0023285150527954,0.05623714253306389,-0.9200431108474731,-0.4829753339290619,29.957876205444336,-10.045197486877441,40.07430648803711,0
369,3689915,-0.041152019053697586,0.007902040146291256,-0.9976181983947754,-0.08929359912872314,-0.14862072467803955,0.951037585735321,31.41582489013672,-9.496450424194336,41.50864791870117,0
370,3700267,-0.04429790377616882,-0.05577026307582855,-1.0114030838012695,-0.6320018172264099,-0.45215076208114624,-0.1507808268070221,30.07756805419922,-8.779090881347656,37.163856506347656,0
371,3709959,-0.017487412318587303,-0.011522669345140457,-0.9781603217124939,-0.7708216309547424,0.0773758739233017,0.021578432992100716,28.906536102294922,-9.459749221801758,39.843017578125,0
372,3720068,0.04055117443203926,-0.038882650434970856,-0.9649355411529541,0.24638566374778748,-0.3622596859931946,0.23919802904129028,29.584070205688477,-11.02591323852539,39.3963623046875,0
373,3729951,0.07060857117176056,-0.005264310631901026,-1.0098975896835327,-0.4932122528553009,-0.5665231943130493,0.304490864276886,32.172630310058594,-8.751327514648438,41.31367492675781,0
374,3740122,0.03952356055378914,-0.05267339572310448,-0.9862547516822815,-0.07751107215881348,0.158196359872818,0.09970984607934952,31.433908462524414,-11.15364933013916,41.21775436401367,0
375,3750109,-0.028099628165364265,0.022389955818653107,-0.9868967533111572,0.3691505789756775,0.3660193979740143,0.05502045899629593,28.409198760986328,-9.043240547180176,39.155757904052734,0
376,3759928,-0.018288128077983856,0.013985060155391693,-1.0099207162857056,-0.07601608335971832,-0.431322306394577,-0.5862144231796265,30.290224075317383,-10.50891399383545,38.469173431396484,0
377,3770077,-0.06798429787158966,0.04381445795297623,-0.994353175163269,-1.0863248109817505,-0.8250597715377808,0.20145070552825928,29.5444393157959,-10.185142517089844,39.40769958496094,0
378,3779826,0.0015721668023616076,0.033773668110370636,-0.9882723093032837,-0.8430950045585632,0.4611165523529053,0.11667510867118835,29.5712947845459,-10.967103004455566,40.45696258544922,0
379,3790117,0.06838177889585495,-0.027864739298820496,-1.0020079612731934,0.684030294418335,-0.045257408171892166,-0.2632575035095215,30.320619583129883,-11.309856414794922,39.369598388671875,0
380,3799885,0.11593330651521683,0.07392381131649017,-0.9992691874504089,0.0034727288875728846,-0.7322717905044556,-0.1623551994562149,28.528640747070312,-9.904703140258789,39.738590240478516,0
381,3810030,-0.02358395606279373,0.013870075345039368,-1.0215895175933838,-0.30537357926368713,0.32628634572029114,0.9773234128952026,29.141176223754883,-10.138078689575195,40.0563850402832,0
382,3819968,0.04191664606332779,-0.0012942098546773195,-1.008276343345642,0.8470544219017029,0.12928056716918945,-1.2556490898132324,29.210350036621094,-9.277996063232422,41.2153434753418,0
383,3829833,0.0936894342303276,-0.040025677531957626,-0.9817758202552795,-0.7771273851394653,-0.5375557541847229,0.12485530227422714,31.091821670532227,-9.68317985534668,38.126041412353516,0
384,3840125,-0.01983034424483776,0.06731688976287842,-0.9975878000259399,0.3274098336696625,-0.007128358352929354,-0.6933749318122864,29.00874137878418,-9.784198760986328,38.73236846923828,0
385,3850146,-0.020599566400051117,0.006258172914385796,-1.0135149955749512,-0.31277069449424744,-1.0633821487426758,-0.3647172451019287,29.320472717285156,-10.816892623901367,39.490135192871094,0
386,3860145,0.0245825182646513,-0.03182804584503174,-0.9842038750648499,-0.4168289005756378,-0.40239909291267395,-0.07183631509542465,29.837745666503906,-10.351621627807617,38.359249114990234,0
387,3869879,0.02833179011940956,-0.029525158926844597,-0.9927787780761719,0.21030770242214203,1.0276830196380615,-0.3592032790184021,31.754194259643555,-8.606109619140625,40.547889709472656,0
388,3879943,-0.054749056696891785,0.002518416615203023,-1.0155553817749023,-0.5212938189506531,-0.33213475346565247,-0.248173788189888,29.487028121948242,-10.256329536437988,41.52318572998047,0
389,3889926,0.06365416198968887,0.002706764964386821,-1.0300214290618896,-0.08190985023975372,0.4722573459148407,0.34545284509658813,29.72661018371582,-9.486288070678711,39.14729309082031,0
390,3899978,-0.0064389947801828384,-0.02135792188346386,-1.0201163291931152,0.023764492943882942,-0.8272750973701477,-0.7230363488197327,30.6223201751709,-10.524802207946777,39.695526123046875,0
391,3909939,0.015272010117769241,0.08317665755748749,-1.0256553888320923,0.26011136174201965,-0.07326936721801758,-0.07689547538757324,30.51500129699707,-9.778558731079102,40.05841064453125,0
392,3919927,-0.05181891471147537,0.08038316667079926,-0.9909771680831909,-0.3932936489582062,-0.3130868673324585,0.0279149878770113,30.548145294189453,-7.777030944824219,40.767913818359375,0
393,3929952,0.03565562143921852,-0.011068422347307205,-0.9956221580505371,0.15266990661621094,0.2590782940387726,0.08794273436069489,30.183757781982422,-9.855284690856934,38.4459114074707,0
394,3939978,0.05468107759952545,0.03147977590560913,-1.000683069229126,-0.37390848994255066,-0.5985260605812073,0.7875782251358032,31.050168991088867,-9.366287231445312,39.77564239501953,0
395,3949860,0.04388511925935745,0.08290589600801468,-1.0096309185028076,0.26087886095046997,0.029095053672790527,0.44017845392227173,31.840242385864258,-11.13343334197998,41.49238586425781,0
396,3960058,-0.048022475093603134,0.09159760922193527,-0.9895543456077576,0.07972454279661179,0.8488599061965942,0.9696230292320251,31.061359405517578,-11.8115873336792,40.48688507080078,0
397,3969982,0.03283519670367241,-0.010555656626820564,-1.0187891721725464,-0.969144880771637,-0.1723724603652954,0.661648690700531,29.828777313232422,-11.111250877380371,40.98673629760742,0
398,3979985,-0.06583721935749054,0.032733526080846786,-1.0291931629180908,0.16315150260925293,-0.4074706435203552,0.5494821667671204,28.93039894104004,-9.980565071105957,41.45166778564453,0
399,3990235,-0.03287709504365921,0.04399225115776062,-1.0031051635742188,-0.3648667633533478,-0.3897206783294678,0.3793509602546692,29.764432907104492,-10.150067329406738,39.24238204956055,0
400,3999711,-0.07002872228622437,0.06258664280176163,-0.995061993598938,-1.0313920974731445,0.21854126453399658,-0.11124918609857559,29.1907958984375,-11.532124519348145,38.8476676940918,0
401,4010090,0.03345947340130806,0.008806983008980751,-0.9922655820846558,-0.6386571526527405,0.32677802443504333,0.1503463089466095,28.401294708251953,-9.213213920593262,39.716819763183594,0
402,4020132,0.04574206471443176,0.0051469458267092705,-0.9998319745063782,-0.07780122011899948,-0.31326600909233093,-0.20686551928520203,27.607542037963867,-9.250718116760254,41.35780334472656,0
403,4029977,-0.023685825988650322,0.04417714476585388,-1.0404224395751953,-0.8114529848098755,-0.617976188659668,-0.47801122069358826,31.54564094543457,-8.362805366516113,39.402950286865234,0
404,4040162,0.008138197474181652,0.05827569216489792,-1.0325548648834229,0.564691424369812,0.5701119303703308,0.7113252282142639,29.123653411865234,-8.954710006713867,40.61663818359375,0
405,4050324,-0.07817280292510986,-0.038701362907886505,-1.0324188470840454,-0.13999177515506744,-0.24639515578746796,0.40873223543167114,31.388870239257812,-10.316112518310547,38.71459197998047,0
406,4060141,-0.0010551240993663669,-0.017111746594309807,-1.0249565839767456,0.23464788496494293,0.7695072293281555,0.018824007362127304,30.7346248626709,-10.09769058227539,42.69023513793945,0
407,4070176,-0.008466280065476894,0.07871470600366592,-1.0159326791763306,0.6531009078025818,0.46261194348335266,0.09205068647861481,31.16804313659668,-11.301506996154785,41.0688591003418,0
408,4079832,-0.003912372514605522,-0.008893299847841263,-0.993992269039154,0.14477965235710144,0.6568321585655212,0.034283120185136795,29.129169464111328,-9.866272926330566,39.870948791503906,0
409,4089845,0.08368457108736038,0.058216389268636703,-0.9857928156852722,0.29199230670928955,-0.30420053005218506,0.2409680336713791,30.09023094177246,-9.827038764953613,40.015625,0
410,4099736,0.010987240821123123,-0.010138142853975296,-1.02250337600708,-0.12628275156021118,-0.43960168957710266,-0.2288818210363388,29.87616729736328,-8.781983375549316,39.066864013671875,0
411,4110100,-0.03598317876458168,0.0012305749114602804,-0.9442653059959412,-0.5595407485961914,-0.37721624970436096,0.3015109896659851,31.31431770324707,-8.599065780639648,41.1380729675293,0
412,4120015,0.09877878427505493,-0.029565809294581413,-0.9830123782157898,0.13294720649719238,0.17143793404102325,-0.12955398857593536,29.728044509887695,-9.074281692504883,39.9081916809082,0
413,4129875,-0.014088931493461132,-0.04396762698888779,-0.970818042755127,-0.38304245471954346,-1.0185679197311401,0.16632117331027985,29.986488342285156,-9.539251327514648,38.72211456298828,0
414,4139947,0.14518287777900696,-0.005448309704661369,-0.9614214897155762,0.5013998746871948,-0.2298525720834732,-0.5696005821228027,29.56145668029785,-10.428862571716309,40.058536529541016,0
415,4150134,0.020962264388799667,-0.02699892967939377,-1.0051894187927246,0.09558416903018951,0.0890180692076683,0.23872242867946625,30.410614013671875,-9.840144157409668,39.47328186035156,0
416,4160179,0.07578437775373459,-0.011609074659645557,-0.9854652881622314,-0.26930391788482666,0.08877398073673248,0.10259149968624115,29.20103645324707,-9.518780708312988,40.823909759521484,0
417,4169841,-0.008895053528249264,0.028531594201922417,-1.0256876945495605,0.26949989795684814,-0.7345743179321289,-0.2574285864830017,30.33403778076172,-7.915839195251465,40.35269546508789,0
418,4179770,-0.0019545305985957384,-0.02324414625763893,-1.0082345008850098,0.36804741621017456,0.16334855556488037,0.15456973016262054,31.042278289794922,-9.552948951721191,39.718467712402344,0
419,4190040,0.02288200706243515,-0.046903252601623535,-0.9734240174293518,0.465173602104187,-0.00043458284926600754,0.6117702126502991,30.524513244628906,-10.480612754821777,39.46344757080078,0
420,4199739,0.03124537505209446,0.02728954702615738,-1.0152225494384766,0.8699523210525513,-0.6717187166213989,-0.32170364260673523,31.729093551635742,-9.387336730957031,38.617942810058594,0
421,4210054,-0.020279983058571815,-0.0617508701980114,-1.0225379467010498,-0.5064002275466919,-0.44775405526161194,0.41518330574035645,28.387725830078125,-8.79922866821289,40.39811706542969,0
422,4220264,-0.018994564190506935,-0.07418624311685562,-1.0097072124481201,-0.7950131297111511,0.7517572641372681,0.20986993610858917,30.880773544311523,-11.060467720031738,39.99448776245117,0
423,4229920,-0.013125352561473846,0.014306411147117615,-1.0110502243041992,0.7315863966941833,-1.114961862564087,-0.8400099873542786,29.32481575012207,-9.03014850616455,39.88067626953125,0
424,4240255,-0.041654810309410095,0.12247944623231888,-0.986676037311554,0.1943240761756897,0.8264029622077942,-0.7283118367195129,27.599763870239258,-9.874302864074707,39.24003219604492,0
425,4250075,-0.05072237551212311,0.06822973489761353,-1.0066841840744019,-1.1910924911499023,-0.3010246157646179,-0.18416491150856018,28.19615936279297,-10.262886047363281,38.461181640625,0
426,4260034,0.0006875714752823114,-0.04354226216673851,-1.0108853578567505,-0.2940434217453003,-0.5036770701408386,0.4861760437488556,29.383769989013672,-11.16099739074707,40.468502044677734,0
427,4269607,-0.022172655910253525,-0.015714101493358612,-1.0224055051803589,-0.3977488875389099,-0.27678191661834717,-0.23625493049621582,29.430513381958008,-9.628671646118164,40.123775482177734,0
428,4279723,-0.02722317725419998,-0.048538029193878174,-1.0264954566955566,0.10310270637273788,-0.14873045682907104,0.38113877177238464,31.85152244567871,-10.133055686950684,40.15629577636719,0
429,4290307,0.02349218726158142,-0.05541384220123291,-1.0122393369674683,-0.5077574253082275,-0.11082210391759872,-0.34992852807044983,28.719406127929688,-10.69105052947998,38.53895950317383,0
430,4300102,-0.010834753513336182,0.0187857523560524,-0.9831434488296509,0.35152095556259155,0.5622110366821289,0.6458008885383606,29.015220642089844,-10.031447410583496,40.68055725097656,0
431,4309879,0.00035531583125703037,0.0632544606924057,-1.022524356842041,-0.113399937748909,-0.49151045083999634,0.8137502074241638,30.63072395324707,-10.669426918029785,40.38996124267578,0
432,4320054,0.03898455575108528,0.05167208984494209,-1.0076878070831299,-0.46301066875457764,0.07486410439014435,-0.2732779085636139,29.69367027282715,-9.134113311767578,39.7747802734375,0
433,4329984,0.09608466178178787,-0.00014260491298045963,-1.0118540525436401,0.30641138553619385,0.3736051321029663,-0.015979761257767677,29.728635787963867,-8.049306869506836,39.47772979736328,0
434,4339860,0.05473174527287483,0.016805870458483696,-1.0029640197753906,0.27933135628700256,-0.14315852522850037,-0.7828537821769714,28.777021408081055,-8.64445686340332,39.0538444519043,0
435,4350051,0.013627827167510986,0.03926665335893631,-0.9719972610473633,0.9428272843360901,-0.6888612508773804,-0.44999396800994873,30.199979782104492,-8.554814338684082,40.076683044433594,0
436,4360163,-0.054257649928331375,-0.0344378724694252,-1.0132949352264404,0.16691213846206665,-0.6343393325805664,-0.26738104224205017,28.46084213256836,-10.77084732055664,40.17213439941406,0
437,4370197,-0.0227576345205307,-0.034974340349435806,-1.0150372982025146,0.020447593182325363,0.20425918698310852,0.7128797173500061,28.261302947998047,-9.553812026977539,39.874019622802734,0
438,4379679,-0.06533104926347733,-0.033297549933195114,-1.0312827825546265,-0.28652143478393555,0.5280399322509766,0.09945697337388992,30.861841201782227,-9.616734504699707,40.49821090698242,0
439,4390014,0.009365476667881012,-0.04561202973127365,-0.9760894775390625,-0.21272660791873932,0.28818845748901367,0.07018750160932541,29.016223907470703,-10.408262252807617,40.18533706665039,0
440,4399871,0.03130543231964111,-0.05209927260875702,-1.013611078262329,0.25232067704200745,0.2181827425956726,0.6611195802688599,30.474702835083008,-10.025964736938477,40.07103729248047,0
441,4410065,-0.03544364124536514,-0.02693849429488182,-1.0077458620071411,-0.06552398204803467,-0.7868848443031311,0.5426999926567078,31.082826614379883,-7.943741321563721,40.62171936035156,0
442,4420004,-0.003916382323950529,-0.026445208117365837,-0.9845492839813232,-0.2573682963848114,-0.17628127336502075,-0.5473209023475647,29.901351928710938,-10.028106689453125,40.268638610839844,0
443,4429874,-0.01552391704171896,-0.02495277114212513,-0.9722322821617126,-0.1788972020149231,0.3791341483592987,0.03698701038956642,29.288002014160156,-10.185620307922363,40.976524353027344,0
444,4440224,0.004933482501655817,-0.03191572055220604,-0.9710202813148499,-0.9109699130058289,0.0058222571387887,-0.6375537514686584,29.656206130981445,-11.010552406311035,40.3036003112793,0
445,4449952,-0.004505109041929245,-0.0539654940366745,-1.0074777603149414,-0.26284462213516235,0.2832617163658142,0.16792459785938263,29.589679718017578,-10.089686393737793,40.4110107421875,0
446,4459848,-0.04805852472782135,-0.02859431877732277,-0.9993646144866943,-0.2701381742954254,0.05728227645158768,-0.7083262801170349,30.1195125579834,-9.073211669921875,42.61183166503906,0
447,4470000,0.03053036704659462,-0.021569419652223587,-0.982341468334198,0.6600633859634399,0.08030087500810623,0.8108119964599609,30.441787719726562,-12.892077445983887,40.323272705078125,0
448,4479927,0.08290369063615799,-0.04443832486867905,-1.0002039670944214,-0.44126132130622864,-0.46154555678367615,0.7078699469566345,29.992677688598633,-8.791686058044434,38.706993103027344,0
449,4490017,0.13811326026916504,0.06363482773303986,-0.9735207557678223,1.0778659582138062,-0.29749420285224915,0.04578884690999985,28.851242065429688,-7.997623443603516,40.900569915771484,0
450,4500309,-0.02068331278860569,0.03925551474094391,-1.0041922330856323,0.2212580144405365,-0.35705599188804626,-0.47905778884887695,28.239757537841797,-10.826322555541992,40.22883987426758,0
451,4509978,0.00385419768281281,-0.030673835426568985,-1.0392930507659912,-1.1184002161026,-0.3067777752876282,-0.05263559892773628,29.260482788085938,-9.232566833496094,41.17337417602539,0
452,4520039,-0.08005867898464203,0.06303013116121292,-1.0055286884307861,0.07086634635925293,0.37557777762413025,0.22671842575073242,29.932456970214844,-8.951570510864258,40.26420593261719,0
453,4530013,-0.034986864775419235,0.055626943707466125,-1.0261586904525757,0.058992642909288406,-0.5201151967048645,0.6552630066871643,29.37058448791504,-9.476726531982422,40.34975051879883,0
454,4539686,-0.009944486431777477,0.066848024725914,-1.0008955001831055,-0.2739616334438324,-0.4278993308544159,-0.5757302045822144,31.44429588317871,-8.871234893798828,41.10383224487305,0
455,4549817,-0.003069116733968258,-0.02312241867184639,-0.9797303676605225,-0.08237908035516739,-0.5418352484703064,0.7317496538162231,31.025856018066406,-9.812893867492676,39.359901428222656,0
456,4559886,-0.07078516483306885,0.06440509855747223,-1.037063479423523,0.5097811818122864,-0.5396076440811157,-0.07892757654190063,29.75425148010254,-10.710465431213379,41.052978515625,0
457,4570287,-0.04738764464855194,-0.0829015001654625,-0.9788511395454407,0.5133415460586548,-0.24247588217258453,-0.8570662140846252,28.207477569580078,-9.767422676086426,40.4793815612793,0
458,4579911,-0.03563333675265312,-0.011876175180077553,-1.0000073909759521,0.4453086256980896,-0.05672473460435867,0.4389052391052246,30.457138061523438,-10.861526489257812,42.099700927734375,0
459,4589792,-0.027804311364889145,0.007530451752245426,-1.0049681663513184,0.2243809700012207,-0.12053939700126648,0.10800192505121231,29.954837799072266,-10.69470500946045,39.824588775634766,0
460,4599831,0.03321832790970802,0.048348940908908844,-1.0185909271240234,-0.04061030223965645,0.0250491201877594,0.7540469169616699,30.550762176513672,-9.84742546081543,41.88055419921875,0
461,4610149,0.03256559744477272,0.03368736058473587,-1.0106379985809326,-0.5518836379051208,-0.5506629943847656,-0.3964678645133972,29.576513290405273,-10.040245056152344,39.08753967285156,0
462,4619938,0.06286656856536865,-0.04292812943458557,-0.976990282535553,-0.09834178537130356,0.3542041480541229,0.4345822334289551,29.384174346923828,-9.444941520690918,38.25852584838867,0
463,4629789,-0.026692382991313934,0.03636714816093445,-1.0124269723892212,0.03487912192940712,0.5474956631660461,0.21176797151565552,28.45798110961914,-9.954216003417969,39.352596282958984,0
464,4640011,0.013538332656025887,0.03352133557200432,-0.9804283380508423,0.06544804573059082,-0.13537660241127014,-0.1698295772075653,30.6737117767334,-10.642009735107422,39.92886734008789,0
465,4650155,-0.04238365590572357,0.0036065673921257257,-1.0045630931854248,0.7793434858322144,0.21163420379161835,-0.3615097999572754,30.04945182800293,-9.43160629272461,39.01112747192383,0
466,4660170,0.012792517431080341,-0.04230813309550285,-0.9923514127731323,-0.7983779907226562,0.18798236548900604,0.7918682098388672,28.557479858398438,-10.439932823181152,39.830543518066406,0
467,4670193,0.03303840383887291,-0.010310528799891472,-1.004279613494873,-0.5095652341842651,0.6211445927619934,-0.3903891444206238,31.288524627685547,-11.010953903198242,40.179447174072266,0
468,4680112,0.08362423628568649,-0.07052139192819595,-1.0351521968841553,0.641995370388031,0.5152994990348816,-0.2843063473701477,28.896453857421875,-10.446377754211426,39.406593322753906,0
469,4689962,0.005362933035939932,-0.04269729182124138,-0.9915081262588501,0.4997425675392151,0.6007177829742432,-0.01788274571299553,31.802309036254883,-11.184968948364258,39.21772384643555,0
470,4699766,-0.05716480314731598,0.10410667210817337,-0.9976808428764343,0.2043667435646057,0.06575636565685272,0.5558122396469116,30.386316299438477,-10.788191795349121,40.9569206237793,0
471,4710114,0.06445670127868652,0.06778614968061447,-0.9963999390602112,0.5461787581443787,-0.3885449767112732,0.14189128577709198,30.242490768432617,-8.33113956451416,39.279109954833984,0
472,4719819,-0.04067036509513855,-0.005625315476208925,-0.9546851515769958,0.8768319487571716,0.24238768219947815,-0.1269533485174179,30.137948989868164,-9.565046310424805,39.64026641845703,0
473,4730013,-0.0730208307504654,0.03435249626636505,-1.0075041055679321,0.10548578947782516,0.30503562092781067,0.06545128673315048,31.230655670166016,-8.429939270019531,39.6173210144043,0
474,4740187,0.114882692694664,0.09622950851917267,-0.9800201654434204,-0.46202436089515686,0.19121161103248596,-0.5099959969520569,29.578922271728516,-12.013327598571777,40.31021499633789,0
475,4749889,0.022075092419981956,0.06272365897893906,-1.0198352336883545,-0.8195396661758423,0.7116395235061646,-1.063838005065918,31.01552391052246,-10.157461166381836,41.13602066040039,0
476,4759986,-0.10943603515625,0.1160241961479187,-1.037466049194336,-0.08609675616025925,-0.24027226865291595,1.0359104871749878,30.171083450317383,-11.31961441040039,40.487693786621094,0
477,4769978,-0.03174290433526039,-0.04153686389327049,-1.0014173984527588,0.3743451237678528,-0.37295085191726685,-0.1938581019639969,31.608503341674805,-10.883853912353516,40.098411560058594,0
478,4780130,0.06530503183603287,0.05995314568281174,-0.9973899722099304,-0.1775345653295517,-0.597250759601593,-0.46356797218322754,30.647069931030273,-10.019317626953125,40.73038864135742,0
479,4789819,0.03769640624523163,0.04066553711891174,-0.9985462427139282,-0.16747845709323883,0.8430638313293457,0.33524125814437866,29.313766479492188,-10.72265625,41.39994812011719,0
480,4800056,0.016863878816366196,0.024936437606811523,-1.0073862075805664,0.4919562339782715,-0.22111013531684875,0.43428581953048706,29.255178451538086,-10.894954681396484,42.12179946899414,0
481,4810126,-0.03572603315114975,0.0013173430925235152,-0.9974004626274109,-0.6853442788124084,-0.7406103014945984,-0.6181334853172302,29.237035751342773,-9.606400489807129,39.68217086791992,0
482,4819943,0.015063304454088211,-0.030768852680921555,-0.9602368474006653,0.576518177986145,0.38735681772232056,-0.15709315240383148,27.90220069885254,-11.967833518981934,40.08357620239258,0
483,4830185,-0.06421153992414474,-0.03668854758143425,-1.0140752792358398,-0.47460469603538513,-0.5352516174316406,0.27168673276901245,29.210588455200195,-9.769292831420898,39.940399169921875,0
484,4840001,-0.04722278192639351,0.02616843394935131,-0.99347323179245,0.3546300530433655,0.1372976452112198,0.022264955565333366,28.53788948059082,-9.353863716125488,39.09574890136719,0
485,4849817,-0.017255133017897606,-0.028224332258105278,-0.990807294845581,0.5319405198097229,0.23506376147270203,0.4795217216014862,29.66852569580078,-8.946098327636719,39.71981430053711,0
486,4860111,-0.01353283692151308,0.06666665524244308,-0.9664949178695679,-0.0002534590312279761,-0.5155908465385437,1.0843364000320435,30.895334243774414,-10.307282447814941,40.842159271240234,0
487,4870037,0.04961511120200157,-0.05623006820678711,-0.9889183044433594,1.13888680934906,-0.22427482903003693,-0.3002839684486389,28.30240249633789,-8.63196849822998,38.20951461791992,0
488,4879840,0.015365095809102058,0.1282915472984314,-0.9885041117668152,-0.31387248635292053,0.1644139438867569,-0.2241002321243286,29.526079177856445,-12.101446151733398,41.945526123046875,0
489,4889987,0.020312314853072166,0.03903203457593918,-0.981991708278656,-0.0640098825097084,0.5553679466247559,0.4818234145641327,29.985204696655273,-8.435858726501465,38.820892333984375,0
490,4899720,0.04424983635544777,0.02096153236925602,-0.9836477637290955,0.6193937659263611,0.0006295571802183986,-0.45841535925865173,31.364439010620117,-11.031925201416016,38.301612854003906,0
491,4909973,-0.05218924954533577,-0.01237147394567728,-0.9961715936660767,0.41517704725265503,-0.25766557455062866,-0.04751742258667946,30.156822204589844,-10.954108238220215,40.79170227050781,0
492,4920000,0.019453806802630424,-0.08024270087480545,-0.9929512739181519,0.12181247770786285,-0.49197086691856384,0.3192700147628784,28.521488189697266,-10.942548751831055,41.594879150390625,0
493,4929939,-0.004085348919034004,0.03404257073998451,-0.994884192943573,0.20277665555477142,0.29934096336364746,1.711944341659546,29.70614242553711,-9.554033279418945,39.620338439941406,0
494,4940286,-0.03884613513946533,0.09457768499851227,-1.0010842084884644,0.13787318766117096,0.32775843143463135,0.022524887695908546,29.7576847076416,-9.9247407913208,38.73634719848633,0
495,4950030,0.05805684253573418,0.04337088763713837,-1.000218152999878,-0.8628714084625244,0.8753697276115417,-0.3567103445529938,30.622102737426758,-9.909331321716309,39.458866119384766,0
496,4960287,0.02165786549448967,-0.016597269102931023,-0.9943913817405701,-0.11464478075504303,0.5247898697853088,0.1624085158109665,31.811695098876953,-10.637762069702148,40.31688690185547,0
497,4969858,0.04349394887685776,0.07410088926553726,-1.0153875350952148,0.8867061138153076,-0.38648664951324463,0.32837608456611633,30.290061950683594,-9.887062072753906,39.219783782958984,0
498,4979883,-0.015654848888516426,-0.022059662267565727,-1.0114850997924805,-0.36543574929237366,-0.2652638554573059,0.19708584249019623,29.393091201782227,-8.444231033325195,39.82939529418945,0
499,4990109,0.02136574313044548,-0.06979934871196747,-1.0019556283950806,0.3323250412940979,-0.6294065713882446,-0.4595626890659332,29.712772369384766,-10.399962425231934,40.478965759277344,0
500,4999928,-7.719924906268716e-05,0.01648632250726223,-1.024962067604065,1.732521891593933,0.39502859115600586,-0.17388255894184113,30.77381134033203,-11.148990631103516,38.4695930480957,0
501,5009820,-0.062304187566041946,0.02526363730430603,-0.9877036213874817,-0.03555714711546898,-0.1949506402015686,-0.5730510950088501,31.099843978881836,-10.420177459716797,39.63408660888672,0
502,5020006,0.04357821121811867,0.054614704102277756,-0.9872041344642639,-0.8526591658592224,-0.9772418737411499,-0.7383032441139221,30.538820266723633,-8.947317123413086,37.54842758178711,0
503,5029772,-0.0674196258187294,-0.08223947137594223,-0.9868676066398621,-0.412051796913147,0.3394389748573303,-0.13047073781490326,29.150089263916016,-8.272004127502441,39.34810256958008,0
504,5039850,-0.0001583416888024658,-0.05641336366534233,-0.9838535785675049,0.3421500325202942,-1.0607960224151611,0.7085744142532349,30.336585998535156,-9.967041015625,40.417579650878906,0
505,5050053,-0.0011990019120275974,-0.0062746633775532246,-0.9960101246833801,-0.9194142818450928,0.968483030796051,-0.2980317175388336,28.99001693725586,-11.783447265625,40.392372131347656,0
506,5060000,-0.007954980246722698,-0.03051106259226799,-1.0132871866226196,0.02906670793890953,0.34378743171691895,0.24427133798599243,28.569286346435547,-10.773594856262207,39.81388854980469,0
507,5069987,0.08344466984272003,-0.012005060911178589,-1.0161612033843994,0.3680787980556488,0.45380669832229614,-0.43850457668304443,32.01106262207031,-11.18011474609375,41.81697463989258,0
508,5079845,-0.06436176598072052,0.04958919435739517,-1.0087932348251343,0.281417578458786,0.7079429030418396,-1.0705993175506592,30.192216873168945,-11.648405075073242,38.094459533691406,0
509,5089863,0.06711825728416443,-0.04996069520711899,-0.9665480256080627,0.11024460941553116,-0.46480363607406616,-0.09167145192623138,29.847728729248047,-10.485807418823242,39.22220230102539,0
510,5100266,-0.09332882612943649,0.03298276290297508,-1.0146921873092651,0.8731125593185425,-0.19422756135463715,-1.0819333791732788,30.5432071685791,-10.809760093688965,39.26721954345703,0
511,5110317,-0.05005764216184616,0.024303587153553963,-0.9938377737998962,0.2054527848958969,-0.018167536705732346,-0.46427518129348755,29.79307746887207,-11.29545783996582,39.856483459472656,0
512,5120011,0.0025560222566127777,0.06552266329526901,-1.0184293985366821,1.3136224746704102,-0.13746003806591034,0.04023316502571106,30.315378189086914,-12.763680458068848,42.03276062011719,0
513,5130029,0.061410076916217804,0.05228384584188461,-1.008609652519226,0.3521537184715271,-0.6260030269622803,0.2337934374809265,30.129606246948242,-10.04826831817627,39.9363899230957,0
514,5140059,-0.019198456779122353,-0.01624087244272232,-0.9986881017684937,1.0757235288619995,0.09924609214067459,0.33065512776374817,28.392881393432617,-11.907879829406738,39.780731201171875,0
515,5149947,-0.04087655246257782,-0.027237694710493088,-1.0409300327301025,0.817243218421936,-0.4052971601486206,0.5487915277481079,30.19042205810547,-10.009313583374023,39.58065414428711,0
516,5160068,0.0025169174186885357,0.005979216657578945,-1.0151464939117432,-0.7527800798416138,0.42159977555274963,-0.4813455641269684,29.823728561401367,-10.418904304504395,39.13731002807617,0
517,5169783,-0.06123004108667374,0.028898200020194054,-0.9831568002700806,0.4310230612754822,-0.46689319610595703,0.5004687905311584,29.864782333374023,-10.394111633300781,39.784305572509766,0
518,5180087,0.046349428594112396,0.012906336225569248,-1.02004873752594,0.5477112531661987,0.05678029730916023,0.10925346612930298,30.40917205810547,-10.469353675842285,39.805267333984375,0
519,5190065,0.06475011259317398,-0.08284156024456024,-0.9784931540489197,0.05975979566574097,0.22200177609920502,-0.5034128427505493,28.960391998291016,-9.830409049987793,40.80620193481445,0
520,5199765,0.024445926770567894,-0.032888442277908325,-1.0327675342559814,0.2252504676580429,0.7732419967651367,0.17957928776741028,29.916032791137695,-8.226773262023926,38.18387985229492,0
521,5209989,-0.009072039276361465,-0.09533445537090302,-0.9756803512573242,0.4673343896865845,0.6708723902702332,-0.9913820624351501,30.764360427856445,-9.784527778625488,38.52184295654297,0
522,5219864,-0.02981935441493988,0.0177720095962286,-1.0001219511032104,0.15204200148582458,-0.30807241797447205,-0.19622647762298584,29.38732147216797,-7.433528900146484,39.10100173950195,0
523,5229848,0.03665207326412201,-0.02595118246972561,-1.0434554815292358,0.8899784684181213,-0.08769898116588593,-0.40438610315322876,29.948333740234375,-11.038854598999023,39.35714340209961,0
524,5240052,0.029677050188183784,0.018583284690976143,-0.9896019697189331,0.10682893544435501,0.49900949001312256,-0.5593262910842896,32.08235549926758,-11.27000904083252,41.563499450683594,0
525,5249913,0.02780279330909252,0.00975694227963686,-0.9776928424835205,0.5993528366088867,1.359585165977478,-0.19726061820983887,28.178686141967773,-10.39794635772705,39.618961334228516,0
526,5260187,0.12494459003210068,0.0003022761957254261,-0.9939478635787964,-0.1995544135570526,0.6645216941833496,-1.1107624769210815,29.462196350097656,-10.147256851196289,40.02822494506836,0
527,5269886,-0.051044825464487076,0.08750501275062561,-0.9786821603775024,0.10732373595237732,-0.16348029673099518,0.6096739768981934,31.125629425048828,-8.82274055480957,39.79240417480469,0
528,5280132,0.021023960784077644,0.027772029861807823,-1.0145463943481445,-0.019338995218276978,-0.1521175652742386,-0.110468789935112,28.888614654541016,-10.713044166564941,39.58998489379883,0
529,5290048,0.08827189356088638,0.04326250031590462,-1.0133483409881592,0.43461546301841736,0.19522029161453247,0.3949717879295349,30.695453643798828,-10.892033576965332,41.90697479248047,0
530,5300095,0.03268797695636749,0.023666905239224434,-0.9656141996383667,0.5902077555656433,-1.0141626596450806,-0.2472490519285202,29.029111862182617,-9.073226928710938,40.67292022705078,0
531,5310060,0.005182189866900444,-0.021941978484392166,-1.0108494758605957,1.2836623191833496,0.006844366900622845,-0.30558401346206665,30.322973251342773,-11.468724250793457,40.69609069824219,0
532,5319939,0.014269629493355751,-0.05292341485619545,-1.0166102647781372,0.5496894717216492,-0.25456345081329346,-0.46485915780067444,29.378681182861328,-9.972150802612305,40.432640075683594,0
533,5329981,-0.05460174381732941,-0.056491803377866745,-0.9936874508857727,-0.13603883981704712,0.01826521009206772,0.7472788691520691,30.340456008911133,-10.36003303527832,40.3886833190918,0
534,5340114,0.03881145268678665,-0.02857065200805664,-0.9995391368865967,0.5464566349983215,-0.8219262361526489,0.14987912774085999,29.902576446533203,-11.161920547485352,38.12802505493164,0
535,5350102,0.01456956285983324,2.1863117581233382e-05,-0.9884471893310547,0.06051450967788696,-0.4003957509994507,-1.1981463432312012,30.476163864135742,-8.115544319152832,39.62160110473633,0
536,5359940,0.004759820643812418,-0.017835596576333046,-0.9697402119636536,-1.0126912593841553,0.5670953392982483,0.03451768681406975,29.17535972595215,-9.597288131713867,40.7344970703125,0
537,5370130,-0.020976250991225243,0.03916030377149582,-0.9883762001991272,0.876192569732666,-0.43378394842147827,-0.1073773130774498,29.301626205444336,-8.356806755065918,41.36168670654297,0
538,5379983,0.07530540972948074,0.0384087860584259,-1.0082775354385376,-0.42609548568725586,0.5649850368499756,-0.16391555964946747,29.111083984375,-10.51640796661377,40.014129638671875,0
539,5390156,0.0008739645127207041,-0.04311954230070114,-1.0079798698425293,0.14907465875148773,-0.8160258531570435,-0.046557798981666565,29.482969284057617,-10.625768661499023,40.40456008911133,0
540,5399792,0.10966979712247849,-0.08386068046092987,-1.0091522932052612,0.46541714668273926,0.015591783449053764,-0.03124653361737728,30.53116226196289,-9.629988670349121,40.58413314819336,0
541,5410169,0.06624253839254379,-0.06869980692863464,-0.9695281982421875,-0.06790146976709366,0.6753327250480652,-0.6122079491615295,29.925670623779297,-8.559921264648438,39.04713439941406,0
542,5419857,0.03793957456946373,0.024782590568065643,-0.9933002591133118,0.19737789034843445,0.20751430094242096,0.19352175295352936,30.687084197998047,-10.537647247314453,40.04220199584961,0
543,5429943,0.0007038360345177352,0.020702099427580833,-1.0173612833023071,0.0691215991973877,-0.12184425443410873,0.2098189890384674,30.84554672241211,-10.373235702514648,40.126670837402344,0
544,5439845,-0.045657020062208176,0.07627888023853302,-0.9924076795578003,0.38792750239372253,-0.23051655292510986,0.6427735686302185,29.52610206604004,-10.631492614746094,39.79434585571289,0
545,5450329,-0.03852619603276253,-0.002109601628035307,-1.00175940990448,-0.171957328915596,-0.2554055452346802,-0.4705677926540375,32.00120162963867,-9.111026763916016,40.84253692626953,0
546,5459836,-0.019116690382361412,0.010738714598119259,-1.0304237604141235,0.4198678135871887,-1.2228994369506836,0.5032572746276855,31.078542709350586,-10.425256729125977,39.11016082763672,0
547,5470007,0.05549932271242142,0.13678745925426483,-1.0119515657424927,0.34294047951698303,-0.27275070548057556,0.589685320854187,29.0777645111084,-8.056123733520508,40.645389556884766,0
548,5480087,0.02152930572628975,-0.059096820652484894,-1.023429036140442,-0.03937786445021629,0.455087274312973,0.7656340003013611,29.472986221313477,-10.155444145202637,38.587379455566406,0
549,5490079,-0.013183590956032276,-0.035917412489652634,-0.9912247061729431,0.4646456241607666,0.2681512236595154,0.3294338583946228,29.838218688964844,-9.33773422241211,39.61709213256836,0
550,5500136,0.050939735025167465,-0.052267879247665405,-1.0222312211990356,-1.0555733442306519,0.26403436064720154,0.0731077790260315,28.949052810668945,-10.188885688781738,40.655941009521484,0
551,5509811,0.009585666470229626,0.02004818059504032,-0.9840747117996216,-0.12091860175132751,0.30205997824668884,0.5642646551132202,30.84110450744629,-9.778907775878906,37.796180725097656,0
552,5520202,0.07767385989427567,0.0480252280831337,-0.9667689800262451,-0.38809067010879517,0.5755813717842102,0.42647477984428406,29.066959381103516,-11.058633804321289,39.02427673339844,0
553,5530220,-0.015506792813539505,-0.031461287289857864,-1.0307798385620117,-0.4679574966430664,0.2163168340921402,-0.5720284581184387,30.061676025390625,-10.172654151916504,37.802433013916016,0
554,5539872,0.04342249408364296,0.06927266716957092,-1.0196080207824707,0.09197886288166046,-0.548553466796875,0.014254072681069374,28.546680450439453,-11.347368240356445,42.351261138916016,0
555,5549778,-0.007240410894155502,0.004760229028761387,-0.9951114654541016,0.2966533601284027,0.20599494874477386,-0.4362218379974365,30.430644989013672,-10.62870979309082,39.064937591552734,0
556,5560190,0.0265281293541193,0.017501480877399445,-0.9868736863136292,0.4418960511684418,-0.5763788223266602,0.49645885825157166,28.875917434692383,-10.655827522277832,40.05807876586914,0
557,5570056,0.014070852659642696,0.03999174013733864,-0.995442807674408,-0.34619614481925964,-0.4351833760738373,-0.027084827423095703,30.213281631469727,-10.959426879882812,38.30183792114258,0
558,5579983,0.0632152333855629,0.014672747813165188,-1.0261396169662476,0.39036092162132263,-0.016788316890597343,-0.19401335716247559,31.37374496459961,-8.259982109069824,39.11066436767578,0
559,5589776,-0.016347205266356468,-0.07127918303012848,-1.010444164276123,-0.09448537975549698,0.44809865951538086,-0.08086875081062317,28.792829513549805,-10.113429069519043,41.521949768066406,0
560,5599889,0.10542610287666321,0.026390980929136276,-1.015360713005066,-0.2732278108596802,-0.44805341958999634,0.2066374570131302,28.2811336517334,-9.341573715209961,40.549102783203125,0
561,5610069,-0.025398407131433487,-0.03961508721113205,-1.002310037612915,1.182939052581787,-0.4900105595588684,0.44823887944221497,30.48781967163086,-9.832659721374512,40.83411407470703,0
562,5620103,0.00594295421615243,0.06889552623033524,-1.006727695465088,0.7918407917022705,0.7237982153892517,0.3521694540977478,30.80142593383789,-9.532731056213379,39.673301696777344,0
563,5629866,0.06955667585134506,0.024696439504623413,-1.0249367952346802,0.40897294878959656,0.2847035825252533,0.018910173326730728,30.224746704101562,-11.6458101272583,40.15504455566406,0
564,5640049,-0.07936741411685944,0.02993174083530903,-1.0195956230163574,0.12266875058412552,0.5863596796989441,0.4507979154586792,29.731300354003906,-10.870878219604492,39.532081604003906,0
565,5650054,0.08785739541053772,-0.017972050234675407,-1.0103750228881836,0.18762114644050598,-0.09022651612758636,0.058676578104496,30.243913650512695,-10.673105239868164,37.799076080322266,0
566,5659962,0.027455003932118416,0.02090979740023613,-1.0169659852981567,0.505991518497467,-0.18737681210041046,-1.3366320133209229,31.28699493408203,-10.949735641479492,39.786128997802734,0
567,5670016,0.03880700841546059,0.00733686238527298,-1.0279946327209473,0.22201290726661682,-0.3340436518192291,0.48181840777397156,29.42616081237793,-10.75860595703125,39.43874740600586,0
568,5679965,0.026257257908582687,0.04109792411327362,-0.9785157442092896,-0.15139298141002655,0.07668408006429672,-0.2043461948633194,28.890235900878906,-9.345190048217773,39.90473175048828,0
569,5689875,-0.022736411541700363,-0.04346121475100517,-1.014480710029602,-0.3343556821346283,-0.07524275779724121,-0.01944422349333763,29.690292358398438,-10.000272750854492,40.124210357666016,0
570,5699907,0.09825735539197922,-0.04577529802918434,-0.9996822476387024,-0.37300270795822144,-0.037230510264635086,-0.22389277815818787,31.996980667114258,-11.399690628051758,37.98099136352539,0
571,5709900,0.021665602922439575,-0.01564164273440838,-1.0070418119430542,-0.17880532145500183,0.04281230270862579,-0.018324512988328934,30.670726776123047,-10.75808334350586,40.13581085205078,0
572,5719984,-0.02512972429394722,0.09598799794912338,-0.9681539535522461,-0.6087510585784912,-0.7399449944496155,0.14176969230175018,29.564199447631836,-10.217537879943848,39.265380859375,0
573,5729980,-0.03125954791903496,-0.005621579010039568,-0.9641091227531433,0.06053709611296654,0.0315302237868309,-0.9113494157791138,29.796855926513672,-10.446040153503418,39.945289611816406,0
574,5740120,-0.06951736658811569,0.02832978405058384,-0.966788649559021,0.40573665499687195,-0.22208723425865173,0.6215221285820007,29.9281063079834,-9.1607027053833,40.619930267333984,0
575,5750102,0.0049011558294296265,0.05928960070014,-1.0177091360092163,-0.02786640077829361,-0.09334873408079147,0.4113366901874542,28.856952667236328,-9.763975143432617,39.25642776489258,0
576,5759987,-0.0020725843496620655,0.02140219137072563,-1.0085272789001465,-0.6949079036712646,-0.08694815635681152,-0.4546606242656708,27.123092651367188,-10.724349975585938,41.27035903930664,0
577,5769599,-0.06226741522550583,-0.08741212636232376,-1.0177277326583862,0.4318857192993164,0.17610310018062592,0.3208281695842743,32.33318328857422,-9.824786186218262,40.612613677978516,0
578,5779989,-0.06491011381149292,-0.014323036186397076,-0.9519524574279785,0.4180874824523926,0.47967708110809326,0.22545865178108215,29.586137771606445,-10.639201164245605,40.07740783691406,0
579,5789977,0.005404012277722359,-0.05408798158168793,-0.990576446056366,0.6181458830833435,0.22504281997680664,0.586658775806427,30.407958984375,-10.380582809448242,39.42298889160156,0
580,5799949,0.11290063709020615,-0.026427965611219406,-1.0107574462890625,0.6781361699104309,0.15802951157093048,0.16879628598690033,31.12954330444336,-10.70683765411377,41.565433502197266,0
581,5810029,-0.001103601069189608,-0.015771735459566116,-0.9983063340187073,0.26576247811317444,0.11837583035230637,0.11393873393535614,29.3847599029541,-10.673949241638184,40.25323486328125,0
582,5819850,-0.05261070653796196,-0.05186706781387329,-0.9969423413276672,-0.20980405807495117,0.26244989037513733,-0.9575743675231934,29.3995418548584,-9.230626106262207,39.85096740722656,0
583,5830071,-0.03996821865439415,0.1281229704618454,-1.0183026790618896,-0.5558002591133118,0.1963896006345749,-0.7664148807525635,31.46041488647461,-10.603705406188965,39.784324645996094,0
584,5839973,-0.0015362590784206986,0.059706512838602066,-0.9810639023780823,-0.2277371883392334,0.3164375424385071,-0.2801528573036194,29.891355514526367,-9.820094108581543,38.93156814575195,0
585,5849944,0.04145431146025658,0.06891267746686935,-1.0195637941360474,-0.10470864176750183,0.17077681422233582,0.36904212832450867,29.818836212158203,-9.892303466796875,39.4432373046875,0
586,5859944,0.000906259345356375,-0.001735184108838439,-1.025642991065979,0.08853507786989212,-0.009291020222008228,-0.1133996993303299,29.374061584472656,-10.427475929260254,39.82225036621094,0
587,5869922,0.012406163848936558,0.04050738736987114,-1.0083882808685303,-0.5030918717384338,0.15977375209331512,-0.7205244302749634,31.55352210998535,-10.764749526977539,41.73143005371094,0
588,5879963,0.02728136070072651,-0.025076664984226227,-0.9968851804733276,-0.3887040615081787,0.19372494518756866,0.24703750014305115,29.081417083740234,-11.541024208068848,40.12761306762695,0
589,5889937,-0.026048488914966583,0.06181976944208145,-0.9782060980796814,0.39144188165664673,-0.4248330891132355,-0.1427621990442276,29.50751495361328,-10.452797889709473,41.415008544921875,0
590,5900014,-0.1042042076587677,0.017055125907063484,-1.009526014328003,-0.38246574997901917,0.11778071522712708,1.3943185806274414,30.111330032348633,-8.958361625671387,40.765445709228516,0
591,5909633,0.002180387731641531,0.010823379270732403,-1.0196455717086792,0.5049730539321899,0.7186568975448608,-0.16893675923347473,30.093128204345703,-10.15298843383789,41.97007369995117,0
592,5920077,-0.040177907794713974,-0.048135966062545776,-0.964775025844574,-0.46188297867774963,-0.049761611968278885,0.275933176279068,30.12070655822754,-10.170780181884766,39.55619430541992,0
593,5930040,-0.008520402945578098,-0.034396104514598846,-0.9452996253967285,0.8390821218490601,-0.9252846240997314,0.4120347499847412,31.72580337524414,-9.87964153289795,42.43034362792969,0
594,5939973,0.0681198239326477,-0.029233723878860474,-1.013822078704834,-0.07944825291633606,-0.9326841235160828,-0.5923205614089966,30.219417572021484,-10.319324493408203,38.22843933105469,0
595,5949948,-0.0006572874845005572,-0.016195088624954224,-0.9897640347480774,-0.3098292648792267,0.5335196256637573,-0.5660836100578308,31.115619659423828,-10.827698707580566,40.812400817871094,0
596,5960116,-0.04150693491101265,0.009218680672347546,-0.9752273559570312,0.4498792290687561,-0.4975099563598633,0.6847935914993286,31.249326705932617,-10.937335014343262,39.15435791015625,0
597,5969823,0.012141135521233082,-0.0344540998339653,-0.9953438639640808,-0.4727990925312042,-0.04031713679432869,1.1455647945404053,29.938335418701172,-9.974416732788086,38.885311126708984,0
598,5980070,-0.05807351693511009,0.013888390734791756,-0.9997625946998596,-0.543025016784668,-0.379456102848053,0.15855661034584045,28.44047737121582,-9.854687690734863,39.783878326416016,0
599,5990174,-0.03022236004471779,-0.001530977780930698,-0.9363410472869873,1.170109748840332,-0.154184490442276,0.12040385603904724,30.719392776489258,-10.045242309570312,40.255680084228516,0
600,6000128,-0.020786063745617867,-0.14593325555324554,-1.0267349481582642,0.11253339797258377,0.3509635627269745,-0.004094227682799101,30.122051239013672,-12.041015625,39.64967727661133,0
601,6010100,0.11367092281579971,-0.03481545299291611,-0.9729907512664795,-0.9253811240196228,-0.48982617259025574,-0.2785365581512451,31.440547943115234,-9.14100456237793,43.28695297241211,0
602,6020159,-0.028151296079158783,0.03297564759850502,-0.9711269736289978,-0.5807272791862488,-0.7276190519332886,-0.6209700703620911,29.250364303588867,-9.252119064331055,38.30813980102539,0
603,6030069,-0.005079580005258322,-0.018456432968378067,-0.9782249927520752,0.9951376914978027,-0.20222747325897217,-0.27395665645599365,29.45366668701172,-10.214495658874512,41.63750076293945,0
604,6040176,0.013111320324242115,-0.012285538949072361,-0.9843276143074036,-0.530531108379364,-0.3767285943031311,-0.7473203539848328,30.46556854248047,-9.227670669555664,40.55708694458008,0
605,6050045,0.11163634061813354,0.0021060577128082514,-0.9771297574043274,-0.21774610877037048,1.1877601146697998,-0.0460059754550457,31.28683090209961,-12.426161766052246,40.10609817504883,0
606,6060110,-0.12456183135509491,0.04336236044764519,-1.0217852592468262,-0.33014917373657227,0.35777369141578674,0.915855884552002,29.384666442871094,-9.149717330932617,40.973724365234375,0
607,6069518,-0.037524979561567307,-0.045080866664648056,-0.9942993521690369,0.15775762498378754,0.3674480617046356,0.6786530017852783,30.38875961303711,-10.68456745147705,40.57773971557617,0
608,6079948,0.014498515985906124,-0.03789106383919716,-1.0200068950653076,-0.9212116003036499,0.4513334035873413,0.03792017698287964,29.3133544921875,-7.654735088348389,39.540428161621094,0
609,6089958,-0.050940100103616714,0.01720460131764412,-1.0269798040390015,-0.14232616126537323,-0.77842116355896,0.01174356509000063,29.502614974975586,-10.049233436584473,39.49774169921875,0
610,6099879,0.008483069948852062,0.034058261662721634,-0.998745322227478,-0.37907665967941284,0.06518717855215073,-0.1204342469573021,30.353721618652344,-11.06463623046875,41.13249969482422,0
611,6110014,-0.02475600503385067,0.044162504374980927,-0.9878216981887817,0.543573796749115,-0.22053630650043488,-0.23786962032318115,31.58640480041504,-11.211296081542969,40.81433868408203,0
612,6119998,-0.041307996958494186,-0.014908518642187119,-1.0134817361831665,-0.36496859788894653,-0.29920440912246704,-0.16732116043567657,32.972843170166016,-10.347657203674316,41.19047164916992,0
613,6130122,-0.06523162126541138,-0.03643840178847313,-1.0078904628753662,0.0179173331707716,0.2811894714832306,-0.3957274556159973,28.677343368530273,-9.741217613220215,40.86298751831055,0
614,6140184,0.05825067311525345,-0.03725992888212204,-0.9884707927703857,-0.20516912639141083,0.3265765309333801,-0.1430933177471161,29.965850830078125,-10.631138801574707,39.88066482543945,0
615,6149984,-0.015600332990288734,0.01996374875307083,-0.9539313316345215,-0.6989066004753113,-0.9725775122642517,0.8212014436721802,29.47787857055664,-9.406257629394531,39.71091842651367,0
616,6160164,-0.007256683893501759,-0.017638402059674263,-0.9983323216438293,0.931545615196228,-0.0637970045208931,-0.14361797273159027,29.58414077758789,-8.895085334777832,39.4256591796875,0
617,6170120,0.027350803837180138,0.10568291693925858,-0.9927594661712646,-0.4411700665950775,-0.03533702716231346,-0.006101612001657486,29.619487762451172,-11.552101135253906,39.75244140625,0
618,6179972,0.013054003939032555,-0.02040053904056549,-0.986232340335846,0.1383008360862732,0.06687625497579575,0.6414164900779724,31.70656967163086,-10.071361541748047,42.90462112426758,0
619,6190034,-0.09228237718343735,-0.0021618648897856474,-1.005625605583191,-0.30380627512931824,0.708977460861206,0.3450499475002289,29.433969497680664,-10.542136192321777,40.87774658203125,0
620,6200070,-0.050805527716875076,-0.07363926619291306,-1.0106364488601685,0.009744304232299328,-0.055913638323545456,0.0055951145477592945,28.314470291137695,-10.246068000793457,38.5706901550293,0
621,6210001,0.0232686884701252,0.033148039132356644,-1.0089267492294312,-0.350225031375885,0.08170703798532486,-0.2827834486961365,31.104524612426758,-9.701298713684082,40.72210693359375,0
622,6219935,-0.059771761298179626,-0.03525666892528534,-1.009266972541809,-0.2795245051383972,-0.22709554433822632,0.0009058342548087239,28.457429885864258,-9.719680786132812,38.69056701660156,0
623,6230100,-0.035943031311035156,-0.05289824679493904,-0.9841634035110474,-0.29936179518699646,-0.228303462266922,-0.12840808928012848,30.6489200592041,-9.122780799865723,40.96406173706055,0
624,6240150,0.1211564913392067,0.002832359168678522,-0.9948029518127441,0.26484042406082153,0.05313773453235626,-0.5362639427185059,31.173927307128906,-9.648364067077637,40.13045120239258,0
625,6249957,0.07789706438779831,-0.02855765074491501,-0.9896227717399597,0.3093719780445099,0.18443821370601654,1.473757028579712,30.26188850402832,-9.095754623413086,38.802024841308594,0
626,6260086,0.009317779913544655,0.03804182633757591,-1.016671061515808,0.06369714438915253,-0.2892816364765167,-0.14352406561374664,29.572099685668945,-10.191078186035156,38.86431121826172,0
