seq,time_us,ax,ay,az,gx,gy,gz,mx,my,mz,roll_gyro,pitch_gyro,yaw_gyro,roll_cf,pitch_cf,yaw_cf,roll_ekf,pitch_ekf,yaw_ekf,roll_madgwick,pitch_madgwick,yaw_madgwick,roll_mahony,pitch_mahony,yaw_mahony,drop_flag
0,25,-0.005240957252681255,-0.04515628144145012,-0.9632506370544434,-0.4226377308368683,0.4755958914756775,0.9591109752655029,30.815582275390625,-10.34000301361084,40.14012908935547,0.43718427419662476,0.1652882695198059,0.852041482925415,1.0072981119155884,0.4258425235748291,-1.3819966316223145,-0.3754991888999939,-0.3032475411891937,-1.2173957824707031,0.5899109244346619,0.04939154163002968,-0.3570311665534973,0.5224388241767883,-0.6234453320503235,0.018564989790320396,0
1,10189,0.0608028918504715,-0.0034047544468194246,-0.9605212807655334,1.0394058227539062,-0.039649609476327896,0.22215451300144196,29.97226905822754,-11.016894340515137,39.59585952758789,0.6228403449058533,-0.9429235458374023,-0.24770928919315338,-1.1827960014343262,0.2671613097190857,-2.132092237472534,-0.4072139263153076,-0.615349292755127,0.7813265323638916,-0.28951066732406616,0.6831309199333191,-0.3027898073196411,-1.2772067785263062,1.0898401737213135,0.7231813669204712,0
2,20030,-0.03879037871956825,0.020882299169898033,-0.9772026538848877,1.4763617515563965,0.17800875008106232,-0.3484543561935425,27.57474136352539,-9.831741333007812,41.15047836303711,0.36609962582588196,-0.003544130828231573,-0.5289980173110962,-0.8600592017173767,-0.8054013848304749,1.2190719842910767,-2.1463093757629395,0.758651614189148,-1.2275898456573486,0.4213699996471405,0.9756916761398315,-0.10917950421571732,2.157405376434326,2.0806853771209717,1.2677645683288574,0
3,29935,0.03294160217046738,-0.08060507476329803,-0.987033486366272,0.12160304933786392,-0.25617480278015137,-0.0011787675321102142,28.945377349853516,-10.504054069519043,37.125064849853516,1.2335158586502075,0.12179715186357498,-1.0852742195129395,0.7508728504180908,-0.7852216362953186,-0.8925602436065674,-1.7848196029663086,0.8284037709236145,0.6866947412490845,0.7616094350814819,1.4085215330123901,-0.6676355600357056,1.2063796520233154,-2.604052782058716,-1.5149517059326172,0
4,40089,0.0837501510977745,-0.008419725112617016,-1.0124077796936035,0.5625172257423401,0.6409419775009155,0.04442427307367325,28.767353057861328,-10.84716796875,39.63435363769531,-0.5673691034317017,0.2501082718372345,0.21454426646232605,-0.5923478007316589,0.4156736135482788,-0.19434839487075806,-0.1529145985841751,0.12766768038272858,-1.4596205949783325,-2.3696951866149902,-0.4582861363887787,1.258742332458496,-0.09501440078020096,-0.06635704636573792,-1.2362632751464844,0
5,50113,0.019683081656694412,0.05815790221095085,-0.9684025049209595,-0.6910905838012695,-0.2998698353767395,0.12231413275003433,29.91324806213379,-11.707058906555176,40.71076965332031,0.025029808282852173,-0.22708255052566528,1.4306833744049072,-0.21446245908737183,-0.7244425415992737,-1.5502151250839233,-0.39236727356910706,-1.3913958072662354,0.06409537047147751,0.40347209572792053,-1.1074331998825073,-1.6095280647277832,-0.9734509587287903,-0.8967279195785522,-0.625044047832489,0
6,59940,-0.038079988211393356,-0.05285118147730827,-0.9923122525215149,-0.591632068157196,0.788121223449707,0.37876537442207336,30.25066566467285,-9.641458511352539,38.31678009033203,0.9470741152763367,1.9141978025436401,-1.0740387439727783,0.8660112023353577,-1.129469871520996,-0.761766791343689,0.001647265045903623,-1.6962273120880127,-0.0757027193903923,0.2701491117477417,-0.7772854566574097,2.8154327869415283,-1.392952799797058,-0.10336137562990189,-0.10857059806585312,0
7,70096,0.017996231094002724,-0.04590943083167076,-1.0040048360824585,-0.13436661660671234,0.9307432174682617,0.4497370719909668,28.123943328857422,-10.654077529907227,40.65165328979492,1.2131531238555908,-0.4144441783428192,-0.04037421569228172,1.0702675580978394,0.21721559762954712,-0.07239209860563278,-0.41927215456962585,-0.5168260335922241,0.2785886824131012,-0.1096939891576767,-0.23474881052970886,-2.2325563430786133,-0.430517315864563,1.247300148010254,-0.15260590612888336,0
8,79986,-0.020786549896001816,-0.04428694024682045,-0.9874541759490967,-0.30747658014297485,0.323660671710968,0.2678009569644928,29.279348373413086,-11.783927917480469,39.72572326660156,1.1070771217346191,0.2851458191871643,0.5232163071632385,0.7040544748306274,-0.47974276542663574,-1.129144310951233,1.1251102685928345,-1.4864602088928223,0.6845414042472839,-1.6779334545135498,-0.13944131135940552,-0.9518175721168518,1.9771764278411865,-0.5925043225288391,-0.019293081015348434,0
9,90071,0.04516647011041641,0.024936934933066368,-0.9772668480873108,-0.828851044178009,-0.01405790913850069,-0.618738055229187,30.226028442382812,-8.143808364868164,39.33670425415039,0.03427952527999878,0.9709895849227905,0.08251277357339859,0.26850223541259766,-0.5200890302658081,0.6229310631752014,0.9015839695930481,-0.9271960258483887,0.25905299186706543,-0.1639760136604309,0.15575294196605682,-0.15329980850219727,-1.0053430795669556,1.9363913536071777,-1.4296388626098633,0
10,99828,0.041742704808712006,-0.06287548691034317,-1.0069119930267334,0.01109978836029768,-0.11371902376413345,0.6773325204849243,29.364078521728516,-10.368758201599121,39.357139587402344,0.9371591210365295,0.07875395566225052,-1.3143584728240967,-0.7427827715873718,-0.9324706792831421,0.006222840398550034,2.5686683654785156,0.37814387679100037,1.3200422525405884,0.13620053231716156,0.6828150749206543,0.5264980792999268,-3.6194684505462646,2.3804361820220947,1.2505730390548706,0
11,110010,0.018360532820224762,0.01474529318511486,-1.0056257247924805,0.5700775980949402,-0.6589176058769226,0.5858566164970398,30.925952911376953,-10.286160469055176,40.7895393371582,-0.04153189808130264,-0.2877150774002075,-0.05837820842862129,-0.07496359944343567,-0.38414523005485535,-0.5705932974815369,-1.0700758695602417,0.37004727125167847,-0.996502161026001,-0.2681019604206085,-1.7210769653320312,-0.7480899691581726,1.4219093322753906,0.0386120043694973,0.38078999519348145,0
12,120233,-0.06294350326061249,0.030044540762901306,-0.9994839429855347,0.05021873861551285,0.3263150453567505,-0.053563009947538376,30.934831619262695,-10.096776008605957,41.021915435791016,-0.28588154911994934,-0.41232338547706604,-1.045415997505188,3.5058188438415527,1.5330604314804077,1.9518976211547852,1.1642876863479614,-1.138664960861206,1.3264774084091187,0.5077791213989258,1.1322555541992188,1.3902488946914673,0.23798242211341858,1.804364800453186,-0.6221137046813965,0
13,129757,0.008895701728761196,-0.008367441594600677,-1.0226972103118896,0.07289779931306839,-0.09602679312229156,0.09532149881124496,29.478965759277344,-9.958508491516113,40.031463623046875,0.3137276768684387,0.45657026767730713,0.6073145270347595,0.06896618753671646,0.5891972780227661,0.7287371754646301,1.6589386463165283,1.650458812713623,1.860940933227539,-0.5380582213401794,-1.6274793148040771,-0.2037670910358429,0.9594273567199707,-0.39324477314949036,-0.6517961025238037,0
14,139994,0.04523629695177078,0.008866236545145512,-0.9956516623497009,-0.03981630131602287,0.12362052500247955,-0.7446485757827759,30.69940185546875,-10.746456146240234,40.79454803466797,-0.27902135252952576,0.5945345759391785,1.106275200843811,0.5225571990013123,0.3756827712059021,2.283515691757202,1.898398756980896,0.16640043258666992,0.4458291530609131,0.7771958112716675,0.016008285805583,1.3327974081039429,-1.4405263662338257,-1.0653886795043945,-0.6723765730857849,0
15,150176,0.013406208716332912,-0.029085082933306694,-0.9935469031333923,-0.41693422198295593,0.2831374704837799,-1.0582318305969238,29.42189598083496,-9.232619285583496,39.67863464355469,0.19347605109214783,-1.0764487981796265,-1.4650479555130005,-2.598363161087036,-0.17679286003112793,0.5218717455863953,-0.26926878094673157,0.7495623826980591,-0.017190532758831978,-0.5055422782897949,0.13012658059597015,-0.890966534614563,-0.5862279534339905,0.38304227590560913,-0.051294922828674316,0
16,160048,0.003667518962174654,0.02012903243303299,-1.0032286643981934,0.08368293195962906,-0.973108172416687,-0.30140262842178345,33.64583206176758,-11.683892250061035,38.98655700683594,-0.029086235910654068,1.1548792123794556,-0.8098530769348145,-0.8630877137184143,1.0289610624313354,0.20179535448551178,-0.7882569432258606,1.1540687084197998,-1.0137887001037598,0.5807223916053772,0.500615119934082,2.2096266746520996,1.430317759513855,-1.6901273727416992,-0.27639874815940857,0
17,169978,0.0008572456426918507,0.08705055713653564,-0.9690970182418823,1.054819941520691,0.23419509828090668,0.4793458878993988,29.075725555419922,-9.634263038635254,37.70002746582031,-0.4241856634616852,0.2632282078266144,0.4978778660297394,-0.42273443937301636,0.20576953887939453,-0.1474437713623047,0.9838640093803406,-0.5705243945121765,0.19530482590198517,1.139245867729187,-1.2550981044769287,-0.937126636505127,1.3354040384292603,-0.10675715655088425,0.5632055997848511,0
18,180117,-0.013255272060632706,0.13194642961025238,-0.9943199157714844,-0.8165152072906494,-0.1764628291130066,-0.3514086604118347,27.199893951416016,-9.495171546936035,39.78858184814453,0.23620237410068512,-0.06075028330087662,1.8777085542678833,-0.5602577328681946,-0.5943772196769714,-0.9226371645927429,0.6843382716178894,-0.9925135374069214,-0.2722403109073639,0.6442604660987854,0.7368842363357544,1.597055196762085,-1.5976604223251343,0.36714619398117065,-0.09599871933460236,0
19,189765,0.07540736347436905,0.03495468944311142,-1.0011526346206665,0.7292327880859375,0.17564447224140167,-0.2906089723110199,29.201173782348633,-10.800003051757812,39.560638427734375,1.3509360551834106,-0.7581307888031006,-1.16244637966156,0.7554084062576294,0.2556905448436737,0.26593366265296936,-0.11580117046833038,-0.17309880256652832,1.1720527410507202,-0.35520753264427185,0.29775458574295044,0.321470707654953,-0.6530367732048035,0.18162697553634644,-0.6703253388404846,0
20,199770,-0.10320096462965012,-0.04477329179644585,-1.0134705305099487,0.20987005531787872,-0.21252846717834473,0.33280351758003235,30.46024513244629,-8.439610481262207,38.46508026123047,1.9452358484268188,0.0591597817838192,0.8823676705360413,-0.6879785060882568,-1.0753535032272339,1.3308576345443726,-0.24408333003520966,0.17450585961341858,-0.5137742757797241,-0.5485182404518127,-0.18975962698459625,0.9710242748260498,-1.0062909126281738,-0.42411911487579346,1.6560781002044678,0
21,210253,-0.03173975273966789,0.039895910769701004,-1.0400387048721313,-0.1545908898115158,-0.14375045895576477,-0.7654270529747009,31.898590087890625,-9.372511863708496,39.534820556640625,0.5286943912506104,-0.018776502460241318,-0.857086181640625,0.3946824371814728,0.47812244296073914,-1.1821553707122803,1.3362287282943726,1.8625032901763916,-0.6642383933067322,2.0496528148651123,-0.3298898935317993,0.7259767651557922,-1.907096028327942,0.9974985122680664,-0.8376603722572327,0
22,219795,0.14751982688903809,-0.007099373731762171,-0.9938982725143433,-0.35279572010040283,0.1263556182384491,0.19288189709186554,28.464523315429688,-10.01284408569336,40.29179763793945,0.8285806179046631,0.6244362592697144,-0.19967436790466309,-0.9471533298492432,-0.8482118248939514,-1.7051949501037598,-1.9751075506210327,1.1886870861053467,0.7256662249565125,0.46213480830192566,0.191059872508049,1.2469961643218994,-1.5493149757385254,-0.7430202960968018,0.28386712074279785,0
23,229912,-0.08236589282751083,0.05973068252205849,-1.0287859439849854,0.7727062106132507,-0.7614567875862122,-0.04883556440472603,29.747419357299805,-10.559755325317383,41.51516342163086,-1.3479423522949219,0.48675647377967834,-0.8048165440559387,-0.13956089317798615,-1.3571218252182007,-0.710727334022522,-0.7635576128959656,0.33299803733825684,1.0473297834396362,-2.3473265171051025,0.06463915854692459,-0.079105444252491,-0.786034882068634,-0.4133218228816986,0.6868932247161865,0
24,239866,-0.0774373784661293,0.07028400897979736,-1.0160901546478271,0.2062586098909378,0.30037742853164673,-0.24052217602729797,28.581737518310547,-10.066798210144043,40.761566162109375,-1.1599904298782349,0.7004929780960083,-0.8786498308181763,-0.6110135912895203,-1.2268739938735962,0.3603106439113617,-1.7198894023895264,-1.4181259870529175,0.2331216037273407,-0.7378933429718018,-0.9480289816856384,0.8185878992080688,-1.8243167400360107,1.7246034145355225,-0.4745080769062042,0
25,249989,-0.06356718391180038,-0.07690653949975967,-0.9766082167625427,0.18490830063819885,-0.008375194855034351,-0.4450918138027191,29.448657989501953,-9.244488716125488,41.10714340209961,0.5883580446243286,-0.4255053997039795,0.05594984441995621,0.4379505515098572,-1.8033989667892456,0.6320476531982422,1.5266528129577637,-0.7473416924476624,-1.7306901216506958,0.6045634746551514,0.10367437452077866,-0.4567450284957886,0.6599010825157166,-0.45906561613082886,1.1218644380569458,0
26,259980,-0.023853471502661705,0.002167359460145235,-1.0006797313690186,0.07675274461507797,-0.20848345756530762,-0.4395579993724823,29.361042022705078,-8.190258026123047,41.2364387512207,-2.448200225830078,0.6393733024597168,-2.0968568325042725,-1.2808274030685425,0.35646671056747437,0.1696147918701172,0.06092455983161926,-1.1376256942749023,1.1742687225341797,-1.6557685136795044,-0.3596908152103424,0.779653012752533,-0.5717320442199707,-0.4950011372566223,0.892820417881012,0
27,269516,-0.004930927883833647,-0.0369609072804451,-0.999718964099884,0.5123914480209351,-0.3183573782444,0.06566132605075836,30.166208267211914,-10.632383346557617,39.1077880859375,0.20417781174182892,0.14280354976654053,-0.31855088472366333,-1.3390644788742065,0.988452136516571,0.959143340587616,1.1240005493164062,0.28116104006767273,0.5351694822311401,-1.2386491298675537,0.7480263710021973,-0.9425734877586365,1.9632822275161743,1.943710446357727,-0.5763542652130127,0
28,279864,0.024577924981713295,-0.0712776705622673,-1.012033462524414,-0.4297037720680237,0.004098986741155386,0.5260752439498901,28.935184478759766,-10.921178817749023,39.11450958251953,-1.2000828981399536,1.0385750532150269,1.337825894355774,-0.4700401723384857,1.8134652376174927,0.9729268550872803,-2.4321532249450684,-1.7659282684326172,-1.4111921787261963,-0.8601081967353821,-0.05141104757785797,-2.102415084838867,-0.31327593326568604,-0.13981223106384277,-0.6745272278785706,0
29,290115,-0.07255062460899353,0.01463337242603302,-1.0190051794052124,0.004070324823260307,-0.3955788314342499,-0.3918999433517456,30.94217872619629,-9.5646333694458,38.76268768310547,0.4842420220375061,0.8838765025138855,-0.2267475426197052,-0.9141451120376587,1.0102150440216064,-0.3548162877559662,-1.5711687803268433,-0.404196560382843,0.3005940616130829,1.5005607604980469,0.9412509202957153,1.2424365282058716,1.20880126953125,0.31221210956573486,-1.0220813751220703,0
30,299833,-0.011205840855836868,-0.006737375631928444,-0.9747944474220276,0.10108458995819092,-0.3879607021808624,-0.7208788990974426,30.251914978027344,-8.548648834228516,38.99630355834961,0.3142797350883484,-0.7834269404411316,0.46672773361206055,1.2888383865356445,-0.6580923795700073,0.1715625375509262,0.6146648526191711,-0.5863814949989319,-0.05710736662149429,0.007438302040100098,-0.6386141180992126,1.5310029983520508,0.3718658685684204,-2.598115921020508,-0.0382329598069191,0
31,309864,-0.01708884723484516,-0.004012205637991428,-0.9865450263023376,0.6559032201766968,0.21291793882846832,-0.9354409575462341,29.473262786865234,-9.9104585647583,39.2957763671875,-0.9547469019889832,-0.2914150059223175,-0.5864859223365784,0.4154893159866333,-0.08725455403327942,-0.12818308174610138,0.1931489259004593,0.8097499012947083,-0.0573810376226902,-0.5411186218261719,0.780331552028656,-0.8322545886039734,-0.6070020198822021,0.3216671943664551,-0.09656082838773727,0
32,320153,-0.03437679260969162,0.03733815625309944,-0.9564775228500366,-0.40141063928604126,-0.7422367334365845,0.27031847834587097,29.23354148864746,-9.245017051696777,40.821937561035156,0.9007282853126526,-0.5718288421630859,0.43343356251716614,0.6570603251457214,1.0431573390960693,0.9994743466377258,0.3490471839904785,1.5777201652526855,1.8073179721832275,-0.2056090533733368,-1.2007793188095093,1.4805244207382202,-0.7448652386665344,1.6105287075042725,1.0527302026748657,0
33,330165,0.020638681948184967,0.022643951699137688,-0.9992945790290833,-0.4678053557872772,-0.2684957683086395,0.3609062433242798,29.463268280029297,-8.950786590576172,38.11161422729492,0.5616152882575989,-0.2995131015777588,1.3063730001449585,-0.7205738425254822,-0.9405862092971802,-0.6436782479286194,-0.46813610196113586,-0.7026399970054626,0.5866833329200745,0.9562448263168335,-0.786444902420044,0.7880445122718811,-1.5138019323349,-0.5152049660682678,-0.7838097810745239,0
34,339924,-0.01910845935344696,0.0330505408346653,-1.0148677825927734,-0.9260805249214172,0.35404449701309204,-0.16405531764030457,29.320632934570312,-9.278117179870605,40.373409271240234,-0.04429187998175621,0.045867860317230225,-0.9577135443687439,-1.107101559638977,-1.3376737833023071,0.7684385180473328,-0.31949383020401,-0.7185832858085632,0.41271716356277466,1.2575663328170776,-0.3972737491130829,0.7707894444465637,0.6641645431518555,-0.8426252603530884,-1.176571249961853,0
35,350197,0.08295860886573792,-0.10106991231441498,-0.9827021956443787,-0.48919713497161865,-0.848434329032898,-0.8301430344581604,29.81870460510254,-11.349475860595703,40.43584442138672,-0.03548858314752579,0.9429636597633362,0.8106379508972168,-1.3878324031829834,-0.5620734095573425,-1.3408981561660767,2.507429361343384,-1.3044209480285645,0.0621318519115448,0.7337526679039001,-0.040749918669462204,1.1257520914077759,-1.8503440618515015,0.31870076060295105,-0.5042127966880798,0
36,359961,0.00015798944514244795,0.06421122699975967,-1.018510341644287,-0.6800622940063477,0.7501060366630554,0.048726774752140045,30.131546020507812,-10.00025749206543,39.579586029052734,-1.3367388248443604,0.07427862286567688,-0.3789440095424652,-0.9623345732688904,-1.3223875761032104,0.8982236385345459,0.3091852366924286,1.0948249101638794,0.22261452674865723,1.405491828918457,-1.5368062257766724,-0.8596782684326172,-0.49297046661376953,-0.44928619265556335,-0.008711101487278938,0
37,370183,0.08438964188098907,-0.0022195063065737486,-1.0240488052368164,-1.0309650897979736,0.028583843261003494,0.06275861710309982,31.039424896240234,-10.553467750549316,40.44252014160156,0.6902934908866882,-0.2210369110107422,-1.1934798955917358,0.16500234603881836,0.8518498539924622,1.4441368579864502,-1.9911922216415405,-1.4590609073638916,-0.3306746184825897,-0.13899797201156616,-1.2091727256774902,-1.1174813508987427,-1.1805663108825684,1.5763546228408813,-2.4148433208465576,0
38,380000,-0.09038958698511124,0.04869910702109337,-0.9691540002822876,0.17903511226177216,-0.42907896637916565,0.4522586464881897,31.819133758544922,-8.283523559570312,39.743377685546875,-0.6287370920181274,0.6744228005409241,1.2557004690170288,0.16823641955852509,-0.21405917406082153,0.31240350008010864,1.6512912511825562,1.5808606147766113,-1.6477105617523193,1.9402657747268677,1.534376859664917,-0.30809831619262695,1.3737012147903442,-1.8945422172546387,-0.22359883785247803,0
39,390100,0.09610675275325775,0.04934262856841087,-1.0104491710662842,-1.0504425764083862,-0.05701061710715294,0.4019031822681427,29.226417541503906,-10.760600090026855,40.63478088378906,0.5570577383041382,-2.401325225830078,-0.835756778717041,-0.16264158487319946,-2.1478803157806396,-1.5868573188781738,1.0740129947662354,1.4321057796478271,-1.7198072671890259,1.5391263961791992,-0.9010941982269287,0.09278953075408936,-0.6102693676948547,0.8886299133300781,1.3358739614486694,0
40,400020,0.054501861333847046,0.02033184841275215,-0.9713513255119324,0.17273247241973877,0.3850070536136627,0.2282329946756363,29.209548950195312,-10.167058944702148,39.1137580871582,0.1367817521095276,0.2983933985233307,-0.13062132894992828,-0.24202868342399597,1.2625494003295898,-1.967164158821106,0.9321519136428833,-1.6947840452194214,0.9267074465751648,-0.7562416195869446,-0.48411616683006287,1.6888667345046997,0.6460883021354675,-0.2875862419605255,0.21839627623558044,0
41,409926,-0.051521968096494675,0.04321495443582535,-1.0070536136627197,0.4530240595340729,-0.7852339148521423,-0.22815604507923126,30.663314819335938,-10.721311569213867,40.02503967285156,-0.023842882364988327,0.8291835188865662,-0.06463874876499176,0.1614145040512085,0.7845755815505981,-0.4851061999797821,-0.17888881266117096,-0.0328524075448513,0.6552183032035828,-0.3586311936378479,-0.6398885250091553,0.9438991546630859,-1.829197645187378,0.3140240013599396,-0.05152563750743866,0
42,419922,-0.014267965219914913,-0.046916499733924866,-0.9629583954811096,-0.25793692469596863,-1.21626615524292,0.42713531851768494,29.990327835083008,-11.962991714477539,39.675167083740234,1.0256155729293823,0.7710054516792297,-1.5817252397537231,-0.8603960871696472,-0.4695337414741516,0.029469970613718033,-0.448731929063797,-0.5588007569313049,-0.5174562931060791,0.18518762290477753,-0.18263784050941467,0.7797632813453674,-0.013385921716690063,1.0782415866851807,1.4712468385696411,0
43,430128,0.08475007861852646,-0.025181109085679054,-1.0105444192886353,-0.44437533617019653,-0.2477782964706421,-0.10798871517181396,31.461469650268555,-9.873770713806152,39.614864349365234,-0.14192505180835724,1.290246844291687,-1.1713868379592896,-0.21282555162906647,0.8799303770065308,0.530777096748352,0.4517810642719269,-2.2768847942352295,-1.4250624179840088,-0.8460912108421326,0.025577427819371223,1.7234745025634766,-1.0025442838668823,-1.505453109741211,-0.2429993599653244,0
44,439993,-0.026843637228012085,-0.03897259756922722,-0.9718317985534668,0.1115855947136879,0.172522634267807,0.2619893252849579,29.843036651611328,-10.1297025680542,39.99587631225586,0.3407127857208252,-0.7193681597709656,-1.1153956651687622,-0.08190491795539856,0.19673295319080353,-0.6239106059074402,0.20157074928283691,0.07446778565645218,-0.2834595739841461,0.9657233953475952,-0.5817956924438477,0.5849667191505432,-0.8497671484947205,1.4591394662857056,1.9796512126922607,0
45,450128,0.05202793702483177,-0.07280038297176361,-1.0196657180786133,-0.04926798865199089,0.230707049369812,-0.6763330101966858,30.905845642089844,-10.252910614013672,39.90184783935547,-1.0277478694915771,0.15257449448108673,-1.5129956007003784,-1.0537595748901367,0.09446240216493607,0.7304967641830444,-1.009621262550354,-0.7813308238983154,-0.6437089443206787,-1.2422353029251099,-1.5606812238693237,-1.181023120880127,-0.07018224895000458,0.6096711158752441,-1.014209508895874,0
46,460209,0.024542376399040222,0.04621852561831474,-1.0214749574661255,-0.1690378189086914,0.4092683494091034,-0.1337648332118988,29.346595764160156,-9.042667388916016,39.32112503051758,-0.9782052636146545,-0.028354456648230553,-1.1007694005966187,-0.026405369862914085,0.6615327596664429,0.15753132104873657,0.5109266042709351,0.14640162885189056,-0.44361644983291626,-0.15046238899230957,-1.5432651042938232,-0.16281983256340027,0.43371111154556274,-0.9198898673057556,1.5086767673492432,0
47,469958,-0.0025439828168600798,-0.0020173301454633474,-0.9927372932434082,-0.8363358974456787,0.1030738353729248,-0.1513688713312149,29.415592193603516,-9.983511924743652,38.592735290527344,1.165339708328247,2.4664275646209717,-0.30101633071899414,0.15697024762630463,0.022207116708159447,-0.07921810448169708,0.5784044861793518,1.0074608325958252,-0.541775107383728,-0.6573725342750549,-0.04856806620955467,-0.37062734365463257,-0.37440264225006104,1.5770715475082397,-1.6222507953643799,0
48,480136,-0.014395413920283318,0.08747731149196625,-1.0137256383895874,0.395182341337204,0.5947433710098267,0.5970649719238281,29.230884552001953,-10.660372734069824,38.96830368041992,0.09094679355621338,-1.2232590913772583,-0.4665152132511139,-0.5297262668609619,-0.11435367912054062,-0.2671046555042267,-0.3742830157279968,-1.6260284185409546,-1.7926092147827148,-1.0290471315383911,-0.0387733094394207,1.116504430770874,1.344627022743225,-0.8831612467765808,0.326242059469223,0
49,490092,0.03295981138944626,0.10054273158311844,-1.0143141746520996,0.8628361821174622,0.07255664467811584,0.06974560767412186,29.135028839111328,-9.769428253173828,40.290462493896484,1.4354065656661987,0.27322113513946533,-0.6376155614852905,-0.8883861303329468,0.5063270926475525,-0.6449182033538818,1.0754152536392212,0.2722669243812561,0.8246056437492371,0.8632746934890747,-0.029830966144800186,-0.3772485554218292,-1.5210226774215698,-0.5619105696678162,0.21374967694282532,0
50,500138,-0.06446495652198792,-0.025220874696969986,-0.9977359771728516,1.5206913948059082,0.5769351124763489,0.14408841729164124,29.99538230895996,-9.14279556274414,41.7451057434082,0.31368890404701233,-1.6654506921768188,0.35689258575439453,-0.5694539546966553,-0.10637959837913513,0.2527218461036682,-0.4816223978996277,0.3893953263759613,-1.7561217546463013,-1.4361302852630615,-0.026367012411355972,0.09855582565069199,0.45155224204063416,0.8516971468925476,0.6246399283409119,0
51,510101,-0.08971703797578812,0.014101352542638779,-0.9928368330001831,-0.2781720757484436,-0.8913484811782837,0.4500405490398407,30.22870445251465,-9.127857208251953,38.56547927856445,-0.1389603167772293,0.3132112920284271,0.5767298340797424,-0.10087275505065918,0.5223041772842407,-0.6823372840881348,0.15230192244052887,-0.8068842887878418,0.15881291031837463,0.10592306405305862,0.4939674437046051,1.0524234771728516,0.7030503749847412,-0.6577271223068237,-1.4350981712341309,0
52,520190,0.15322965383529663,-0.04277127981185913,-0.9968518018722534,0.7638561725616455,0.08045228570699692,0.34236767888069153,29.936279296875,-10.04513168334961,38.784847259521484,0.11152870953083038,0.3687039613723755,1.6617752313613892,-0.08151612430810928,1.5944067239761353,0.2608738839626312,-1.672987461090088,0.5735597014427185,0.7995549440383911,0.006113754119724035,-0.6484637260437012,0.8588087558746338,-0.8231790661811829,1.0368571281433105,-0.21024486422538757,0
53,529802,-0.02187742292881012,-0.0314173549413681,-1.003669261932373,-1.4000356197357178,0.3863544166088104,0.31060004234313965,30.413259506225586,-10.49113655090332,39.68330383300781,-2.1657400131225586,0.26703718304634094,-0.8965758681297302,-0.5740427374839783,-2.544887065887451,-0.1707223653793335,-1.086978554725647,0.5577489137649536,-1.784125566482544,-0.024150734767317772,0.4890177547931671,0.09108953922986984,-0.8570320010185242,0.0913134440779686,0.16598477959632874,0
54,540272,0.028087297454476357,-0.02162931114435196,-0.9593002796173096,-0.3459489047527313,0.43279528617858887,0.43242719769477844,30.538467407226562,-10.535359382629395,39.189884185791016,-0.6851078867912292,1.2681386470794678,-2.1439921855926514,1.9124222993850708,0.8942254185676575,-0.06543033570051193,-0.9265395998954773,-1.310861349105835,-0.27985894680023193,0.0864315778017044,-0.5741423964500427,1.1835187673568726,1.7042269706726074,-0.7233661413192749,-0.02782544679939747,0
55,550161,0.047821320593357086,-0.024441547691822052,-0.9847854971885681,-0.5306394696235657,0.279042512178421,-1.0712542533874512,31.368427276611328,-10.034418106079102,40.733184814453125,0.3394526541233063,-0.2556833326816559,1.200622797012329,1.081175684928894,-1.1622977256774902,0.7696484923362732,-1.830747365951538,-0.7950482368469238,-1.2013407945632935,0.7276848554611206,0.618352472782135,-0.1428913176059723,-1.9572436809539795,-1.7392278909683228,0.28337395191192627,0
56,560057,-0.01524606067687273,0.0488484762609005,-1.0425338745117188,-0.2616402804851532,-0.5182735919952393,0.4406245946884155,28.603044509887695,-10.030531883239746,39.328033447265625,1.8560093641281128,-1.2603075504302979,1.7255185842514038,-1.0554143190383911,0.12462203204631805,-0.3922034204006195,0.7706583738327026,0.2892496585845947,0.33660486340522766,-1.0542577505111694,0.055093035101890564,-0.4967166483402252,-0.029798148199915886,-1.0202077627182007,-0.2645587921142578,0
57,569679,0.012835155241191387,0.014753464609384537,-1.0112334489822388,-0.16399423778057098,-0.21338653564453125,-0.3398139476776123,30.39444923400879,-9.821391105651855,41.503204345703125,-1.399106502532959,0.4111907184123993,-0.17277975380420685,-0.07447969168424606,0.47972047328948975,1.7940171957015991,0.5815381407737732,-1.2794400453567505,1.5051689147949219,0.9903143048286438,0.6519608497619629,-1.2045689821243286,-0.02026211842894554,0.6408392786979675,-0.16187240183353424,0
58,580037,-0.020351460203528404,0.04609837383031845,-1.0058447122573853,0.035493917763233185,-0.23452498018741608,-0.1377275288105011,29.308792114257812,-10.29581069946289,41.325531005859375,0.8493607044219971,0.30069297552108765,1.2259113788604736,-1.5014857053756714,1.819921851158142,0.3875395357608795,-0.60676109790802,-0.10792161524295807,0.5067718625068665,0.3746119439601898,0.9144765734672546,1.4035300016403198,-0.8312163352966309,0.911560595035553,0.6271769404411316,0
59,590047,0.0344969667494297,0.0019647039007395506,-0.9960612058639526,0.2152286171913147,-0.6910589337348938,0.9059419631958008,30.553335189819336,-10.941122055053711,41.52040100097656,-0.22380681335926056,2.1438746452331543,1.1852604150772095,-0.04710545390844345,-0.9458406567573547,-0.8482449650764465,-0.7852444648742676,0.8274855613708496,0.1544887125492096,1.0023219585418701,1.1443129777908325,0.16809308528900146,0.05408430099487305,0.19918762147426605,-0.47344523668289185,0
60,599730,0.02904551848769188,-0.033581797033548355,-0.990517795085907,0.49527400732040405,0.08433856070041656,0.20777687430381775,29.728492736816406,-10.581478118896484,40.242576599121094,0.7097159624099731,-1.297357439994812,-0.8027246594429016,-0.2549184560775757,0.350140243768692,1.0715574026107788,0.6770345568656921,0.05449189245700836,0.6105613708496094,-0.16764920949935913,-1.0332062244415283,1.724992036819458,-0.8824760913848877,0.7561917304992676,0.03732239082455635,0
61,609953,0.024935999885201454,0.047684501856565475,-0.988557755947113,-0.0553579181432724,-0.16077403724193573,0.02440517209470272,30.452234268188477,-9.28380298614502,39.593910217285156,0.5350548028945923,1.3160088062286377,0.7447841167449951,-0.42765071988105774,0.7307634949684143,0.9611594080924988,0.35766008496284485,0.4605800211429596,-0.5571491718292236,-1.464606523513794,-1.0939491987228394,-1.2808927297592163,0.6294509172439575,0.04207248240709305,-1.6905330419540405,0
62,620049,-0.04405904561281204,0.053597524762153625,-0.9844687581062317,0.05108189955353737,0.3053782284259796,0.1359374076128006,28.609100341796875,-8.841742515563965,40.6296272277832,-0.2606934905052185,1.8957798480987549,-1.0758962631225586,-0.05283312499523163,-0.7817028760910034,1.3357946872711182,0.41753220558166504,0.924973726272583,-2.519028425216675,0.786282479763031,2.191667079925537,-2.0998988151550293,-0.821037232875824,-1.3211610317230225,0.5355263948440552,0
63,630052,-0.08929386734962463,-0.03152606263756752,-0.9879960417747498,-0.30730265378952026,-0.04328981786966324,-0.0323304682970047,30.413955688476562,-10.041757583618164,39.45659637451172,-0.4372384548187256,-0.12763412296772003,0.39000704884529114,1.7434574365615845,0.49799326062202454,0.5727922320365906,1.055987000465393,-0.6511452794075012,-0.1237211599946022,1.3610105514526367,-0.2550913095474243,-1.1485475301742554,-0.4677119851112366,0.1689419001340866,-1.4310991764068604,0
64,639922,0.028494613245129585,0.03311719000339508,-1.007982611656189,0.175466388463974,0.42704227566719055,-1.0742195844650269,30.232526779174805,-12.647761344909668,41.7182731628418,-0.7879175543785095,-1.83936607837677,-0.29233694076538086,-0.46568480134010315,0.26292967796325684,0.44608074426651,-0.28716421127319336,1.7950643301010132,-1.0201058387756348,0.8454535603523254,0.4840189218521118,-1.3005691766738892,-1.1368488073349,-0.23072028160095215,1.4701098203659058,0
65,649983,0.017036179080605507,0.0019678995013237,-0.9788671135902405,0.1496770977973938,-0.13917404413223267,-0.6615926623344421,30.343730926513672,-9.831469535827637,38.805206298828125,-0.626941442489624,0.7314977645874023,-0.06904320418834686,-0.5278908014297485,-0.1069675162434578,0.7779659628868103,1.805738091468811,-1.5341424942016602,0.9087867736816406,0.0005720694898627698,1.3340308666229248,-0.12279334664344788,-0.24939535558223724,-0.0690915659070015,-0.2559816241264343,0
66,659968,0.04003958776593208,-0.05192067101597786,-0.9823879599571228,-0.03333296999335289,0.7717608213424683,-0.6080498695373535,29.794498443603516,-9.8650541305542,39.04347610473633,0.022204212844371796,-0.1745210736989975,1.3477845191955566,0.35453736782073975,-0.5846326351165771,0.046213746070861816,-1.1515237092971802,-0.9280390739440918,-0.6462450623512268,-0.28368130326271057,-0.951683521270752,0.3714183568954468,-0.27323096990585327,-0.21109211444854736,0.7259958982467651,0
67,670125,-0.04462280869483948,0.002519165398553014,-0.9975806474685669,-0.8528923392295837,0.09537642449140549,-0.32390227913856506,29.92873764038086,-11.446239471435547,39.15619659423828,-0.10836052894592285,-0.016457708552479744,-1.2530696392059326,0.8999640345573425,-0.47047096490859985,0.8988013863563538,0.6450272798538208,0.49059581756591797,-1.1452594995498657,0.4530617594718933,-1.2507495880126953,0.0413183756172657,1.5669348239898682,-0.13008750975131989,-1.865639328956604,0
68,680054,0.02175295725464821,-0.10766162723302841,-0.9820852279663086,-0.5247476696968079,-0.8843963146209717,-0.139702707529068,30.822616577148438,-11.15924072265625,38.64910888671875,0.530221700668335,-0.3773864507675171,0.073900006711483,-0.47488486766815186,-0.3581649363040924,0.5744584798812866,0.1920122653245926,-1.7306838035583496,-0.4592958986759186,-1.5924923419952393,0.5211988091468811,-0.4771113991737366,-0.7847166657447815,1.6200573444366455,-0.7676978707313538,0
69,690080,0.035793185234069824,-0.05966372787952423,-1.0087645053863525,-1.1818480491638184,0.08785898983478546,0.4150700569152832,30.77959442138672,-10.767136573791504,39.85207748413086,0.04860445484519005,-0.24265258014202118,1.1106681823730469,0.49899816513061523,-0.8013692498207092,-1.0167471170425415,0.8114951848983765,-0.8201398253440857,-0.6942784786224365,0.17691072821617126,0.6958358883857727,0.3623047173023224,-2.036180257797241,2.04349684715271,-1.3530079126358032,0
70,699845,0.03701983392238617,-0.029384922236204147,-0.9904377460479736,-0.271503746509552,-0.17395037412643433,-0.2420593947172165,30.60371971130371,-9.9992094039917,41.156829833984375,0.6885910034179688,-0.4494272470474243,1.0069366693496704,0.013497955165803432,0.12136260420084,-1.1752008199691772,0.1720130890607834,2.5580084323883057,1.205024003982544,0.8798138499259949,-1.2569469213485718,0.9318735599517822,1.17896568775177,0.9128427505493164,0.9355252385139465,0
71,709911,-0.04389989376068115,0.03417518734931946,-1.014330506324768,0.9621075987815857,0.3121420443058014,-0.6613051891326904,30.322734832763672,-8.552552223205566,40.5705680847168,-0.29661309719085693,0.8669006824493408,-0.6283413767814636,-0.5779204368591309,-0.5662329792976379,0.6196111440658569,-0.39593592286109924,-1.091908574104309,-0.8983993530273438,-0.2041521519422531,-0.07192490249872208,-0.46692609786987305,-1.0435872077941895,1.5432798862457275,0.14693689346313477,0
72,719996,0.025525914505124092,-0.07416868209838867,-0.9921060800552368,-0.4147813618183136,0.2990133762359619,-0.20406346023082733,29.491384506225586,-10.845325469970703,40.494503021240234,-0.5231807231903076,0.19395501911640167,-0.04129493236541748,-0.7726800441741943,-0.7775696516036987,-1.3849436044692993,0.5385633707046509,-1.3491238355636597,0.9982616305351257,-0.8081812858581543,0.6366495490074158,-0.28553810715675354,0.07100175321102142,0.1752643585205078,-0.16854321956634521,0
73,729798,0.019297871738672256,0.004040782805532217,-0.9795303344726562,0.10971871763467789,-0.747409999370575,0.3069196939468384,28.409942626953125,-10.448494911193848,39.49113464355469,0.19454815983772278,-0.2670228183269501,0.21663761138916016,-0.720245361328125,-0.4738675057888031,0.4158265292644501,-0.9279891848564148,-0.5545210242271423,-1.4157092571258545,1.1878280639648438,-0.29523441195487976,-1.9013299942016602,0.2120862752199173,-1.54765784740448,-0.10684904456138611,0
74,739783,0.009736131876707077,0.03185804560780525,-0.9532585740089417,-0.02797222137451172,-0.017957869917154312,-0.13560637831687927,29.470590591430664,-8.392788887023926,41.11615753173828,-0.24607785046100616,-0.6332353353500366,-1.1310971975326538,0.3408290445804596,-0.08339758217334747,-0.9463945031166077,-0.017473286017775536,-0.0820222795009613,-0.25301429629325867,0.8876599669456482,-1.0924803018569946,0.38615474104881287,0.7020684480667114,-0.26055920124053955,-0.14996342360973358,0
75,749924,-0.023071760311722755,0.017013659700751305,-1.0363603830337524,0.2920718491077423,0.47612428665161133,-0.5141246318817139,30.070322036743164,-10.297122955322266,39.11011505126953,0.9949886798858643,-0.08146897703409195,-0.167007714509964,-0.25437337160110474,1.0032362937927246,1.1493072509765625,-1.655856728553772,0.3497042655944824,-0.44983208179473877,-1.0473424196243286,1.2067906856536865,-1.341051459312439,-0.7884922027587891,-1.1134814023971558,1.6270967721939087,0
76,760029,0.009075923822820187,-0.011038204655051231,-1.0078723430633545,-0.39341825246810913,1.001278281211853,0.1514955759048462,29.404651641845703,-10.793779373168945,39.365970611572266,1.5916589498519897,-0.42168915271759033,-1.20857834815979,0.7947078347206116,-1.2354882955551147,0.5761170983314514,-0.6847272515296936,-0.20055989921092987,0.271522581577301,-0.799611508846283,0.20343144237995148,0.7945651412010193,-0.8403247594833374,-0.8079473376274109,0.3313676714897156,0
77,770101,-0.034305546432733536,-0.02929278090596199,-0.9939922094345093,-0.027485748752951622,-0.7875431180000305,-0.8922849297523499,30.031064987182617,-10.545025825500488,41.135467529296875,0.43519166111946106,-0.5747734904289246,-1.049726128578186,0.40683627128601074,0.568114161491394,0.9545585513114929,0.730994462966919,0.3283085227012634,-0.010516650974750519,-0.27853459119796753,0.1345817893743515,0.8766355514526367,0.40362706780433655,1.2766919136047363,-0.4482004642486572,0
78,779924,-0.05705577880144119,-0.03590361773967743,-1.0008493661880493,-0.09220468252897263,-0.23088492453098297,0.32459646463394165,30.747879028320312,-9.670208930969238,38.67905807495117,-1.0665476322174072,1.119463324546814,-0.4841141104698181,1.3031527996063232,-2.9616355895996094,-1.4639543294906616,-0.05567202344536781,-0.08344664424657822,-0.31528642773628235,-0.2537039816379547,1.423141598701477,2.7411978244781494,-1.2321021556854248,-2.060645580291748,0.5271667242050171,0
79,789998,-0.012368698604404926,0.08373037725687027,-1.0066945552825928,0.2227211445569992,0.02098292112350464,-0.30290621519088745,29.149181365966797,-8.65029239654541,40.0787467956543,-0.36902064085006714,-0.39449697732925415,-0.06147478148341179,0.30336135625839233,1.4989125728607178,0.18429556488990784,-2.3018527030944824,0.7152017951011658,-0.3037077784538269,0.06342839449644089,-0.7525684237480164,-0.26693451404571533,1.1539334058761597,0.25633007287979126,-1.7486026287078857,0
80,799824,0.07124880701303482,-0.03329933434724808,-0.9981740713119507,0.9813257455825806,0.45641034841537476,-0.08116701245307922,28.003633499145508,-10.059250831604004,39.48933410644531,-0.2018587738275528,-0.0022872404661029577,0.16167889535427094,0.4189187288284302,-1.034104347229004,-0.044058166444301605,0.09360994398593903,0.3665410280227661,1.9332740306854248,0.4350689947605133,-0.46853721141815186,0.3812682330608368,1.807767391204834,-0.4678569436073303,0.12331991642713547,0
81,810041,0.04325110837817192,0.10038678348064423,-1.0124002695083618,-0.6490223407745361,0.3168639838695526,0.8575465679168701,27.273086547851562,-10.1334867477417,40.28120422363281,0.8837074041366577,0.8246232867240906,0.7694590091705322,-0.006886200048029423,-0.11008398979902267,0.8675690293312073,-1.4614888429641724,-1.4236971139907837,-1.6406466960906982,0.8056647777557373,0.356469064950943,0.033729758113622665,1.5116153955459595,0.7164170742034912,-0.4255355894565582,0
82,819924,0.00331491488032043,0.026652149856090546,-1.0221806764602661,-0.06627827137708664,-0.5226974487304688,-0.18827882409095764,31.329570770263672,-9.891860961914062,41.076175689697266,-0.9669179320335388,0.42202141880989075,-0.45470094680786133,-1.274567723274231,-0.3689693212509155,0.6780802011489868,0.8064627051353455,0.34580856561660767,2.2722408771514893,-0.18740569055080414,1.4526011943817139,-0.7017991542816162,2.986855983734131,-0.5689583420753479,0.08760780096054077,0
83,829942,0.0022147479467093945,-0.06476511806249619,-0.9961079359054565,-0.4112607538700104,0.35801178216934204,-0.4752279818058014,29.628101348876953,-9.918853759765625,39.3300666809082,-1.341917872428894,1.4397821426391602,1.5379561185836792,0.7022779583930969,0.2799259424209595,-0.037347011268138885,-1.163838505744934,-1.927031397819519,-0.4164506494998932,1.1340161561965942,-0.615959107875824,-0.8218225240707397,0.8314868807792664,0.8383303880691528,1.2485370635986328,0
84,839879,-0.1048956885933876,0.046587008982896805,-0.9988158941268921,-1.1881290674209595,-0.809925377368927,-0.6081185936927795,28.875289916992188,-10.168900489807129,41.15654373168945,-0.588608980178833,0.11586863547563553,0.6969394683837891,-0.7816607356071472,0.7500752806663513,-1.7718119621276855,1.711707592010498,0.11307676136493683,0.8441336750984192,0.4257299602031708,0.4716120958328247,-0.34099897742271423,0.5889427661895752,0.519812822341919,-1.660780668258667,0
85,849927,0.12939830124378204,-0.0208628848195076,-0.9597210884094238,-0.4063029885292053,0.5394495725631714,0.17138808965682983,29.72849464416504,-9.525467872619629,41.79298400878906,0.12132725119590759,-0.4155232310295105,-0.4900517463684082,0.15293975174427032,-1.6476706266403198,-0.5369305610656738,0.6668124198913574,0.0700620710849762,-0.015187407843768597,0.611404538154602,-0.35063785314559937,-0.02439606934785843,-1.114153504371643,-0.021502606570720673,1.6286073923110962,0
86,859728,0.026744410395622253,0.015371877700090408,-1.0331497192382812,0.6507042646408081,-0.39537540078163147,-0.08660588413476944,31.006813049316406,-9.460980415344238,39.35545349121094,-1.9262112379074097,1.371445894241333,-1.0688896179199219,-0.5852377414703369,-0.4004614055156708,1.3913955688476562,-1.2726719379425049,-0.6277925968170166,0.9361544847488403,-0.7703374028205872,-0.6967037320137024,-1.0137724876403809,0.8012421131134033,0.12398798018693924,-0.5753161907196045,0
87,870131,-0.10194909572601318,-0.12401240319013596,-1.0052886009216309,-0.2932647168636322,-0.16152165830135345,0.30302706360816956,29.184892654418945,-9.837496757507324,39.98378372192383,-1.8098543882369995,-0.5590972304344177,0.08666130900382996,0.3178623616695404,1.0251545906066895,-0.12111590802669525,-1.1600589752197266,-1.1269913911819458,-0.4221585690975189,0.05306065082550049,-1.1908801794052124,0.250418096780777,-1.160805106163025,-1.410163164138794,0.44293442368507385,0
88,879877,-0.059505850076675415,-0.04877753183245659,-0.9910122156143188,0.1979488879442215,-0.5385796427726746,0.5604400634765625,29.759611129760742,-10.97258472442627,40.668495178222656,-0.2993776500225067,-0.6891072988510132,-0.5565897226333618,0.9366901516914368,0.04280463978648186,-0.14735157787799835,1.3088724613189697,0.7266939282417297,1.0431243181228638,-0.6402550339698792,-0.6108162999153137,0.7149831652641296,0.5639184713363647,1.083713173866272,-0.1298186331987381,0
89,889890,0.08554541319608688,-0.01785667985677719,-1.0263022184371948,0.005486367270350456,0.30473682284355164,-0.29205015301704407,30.75002670288086,-10.373861312866211,39.92913818359375,1.3719532489776611,0.4997594952583313,-1.35508394241333,2.2514376640319824,-0.829647958278656,-0.31631991267204285,0.30952662229537964,-1.5465904474258423,-2.531883716583252,0.679260790348053,1.3085169792175293,0.06318332999944687,-1.5845370292663574,1.191332459449768,1.4759107828140259,0
90,900015,-0.010951821692287922,-0.01615501567721367,-1.0201990604400635,0.2239704728126526,0.025381261482834816,-0.7758041620254517,30.746322631835938,-11.274847984313965,41.0400276184082,0.11282673478126526,-0.5324633121490479,-0.9974110722541809,-0.2146221101284027,-0.7465920448303223,-0.3706810176372528,-3.4358022212982178,-0.3712167739868164,-0.897050142288208,0.25782090425491333,0.10006564110517502,-0.35882386565208435,0.032459381967782974,0.07892923802137375,0.4851338565349579,0
91,909935,0.03484613075852394,0.12975317239761353,-0.9961543679237366,0.11559157818555832,-0.2708137333393097,-0.07850935310125351,29.77947425842285,-11.58398151397705,40.63326644897461,0.9849744439125061,-1.0817598104476929,-0.2852095663547516,-2.5735418796539307,-1.2285767793655396,1.1956795454025269,-0.2713474631309509,0.40348929166793823,1.4940745830535889,-0.06822102516889572,-0.23135820031166077,-0.2347220480442047,-0.2257641851902008,0.979074239730835,2.248648166656494,0
92,919977,-0.05387004092335701,0.004531365819275379,-0.9991843104362488,-1.3401614427566528,-1.160176157951355,0.437618225812912,30.739015579223633,-12.398536682128906,40.84745788574219,-0.0735849142074585,-1.5579233169555664,0.18112967908382416,-0.702007532119751,0.787444531917572,-0.7780128717422485,-0.0695810467004776,0.5952538847923279,1.760425329208374,-1.6267951726913452,3.0190374851226807,1.0327619314193726,-1.027224063873291,0.3100840151309967,-1.4810625314712524,0
93,929857,0.10097170621156693,-0.01327665988355875,-0.9932452440261841,0.8459940552711487,0.8195728063583374,-0.5036691427230835,30.506528854370117,-8.14915657043457,38.91099548339844,-0.2836439311504364,-1.2746896743774414,1.1522197723388672,-1.4185067415237427,-2.5034985542297363,1.458868384361267,-1.8316481113433838,-0.9118064641952515,-0.7451329231262207,-1.6641346216201782,-0.7642961740493774,-0.810936689376831,0.5295477509498596,0.16189248859882355,0.7318431735038757,0
94,939823,0.05575796589255333,0.0164474043995142,-0.9607441425323486,0.15776829421520233,0.3953843414783478,1.2574883699417114,30.4101619720459,-9.261895179748535,40.69650650024414,-0.1592639982700348,-0.04993189126253128,1.9109587669372559,2.2189180850982666,-0.6623374223709106,1.2179160118103027,-0.49413764476776123,-1.2723416090011597,-0.7863647937774658,0.0783233568072319,0.18898475170135498,1.228171944618225,0.1943104863166809,-0.5386435985565186,0.2304612696170807,0
95,949950,0.02047472819685936,-0.006324647925794125,-1.0348697900772095,0.06957736611366272,0.25984132289886475,-0.9750007390975952,29.988365173339844,-11.349956512451172,39.86745834350586,1.3338205814361572,-1.1357463598251343,-0.258404403924942,-0.8454895615577698,0.5843648910522461,-1.0532013177871704,0.39181485772132874,1.0661829710006714,0.9916611313819885,-0.11039530485868454,-0.08018285781145096,-0.20539771020412445,-0.1826067566871643,0.9286817908287048,1.3395510911941528,0
96,960063,-0.01164054311811924,0.09297327697277069,-1.0174888372421265,-0.06619740277528763,0.5325326919555664,0.586217999458313,32.15232467651367,-11.558485984802246,38.42310333251953,-0.4193049669265747,-1.0817605257034302,1.4943853616714478,-0.2688713073730469,0.19247499108314514,-0.6015893220901489,0.4592820107936859,1.1053705215454102,-1.3550654649734497,-0.7481281161308289,-1.7053779363632202,-1.8565994501113892,0.01570877991616726,-0.4158669114112854,-2.5009515285491943,0
97,970023,-0.015817916020751,0.045655831694602966,-0.9769411683082581,0.7924265265464783,-0.7637069821357727,-0.5203832387924194,29.06043815612793,-9.319429397583008,39.72545623779297,0.5567610263824463,-0.22610196471214294,-1.9296057224273682,0.6804260015487671,-0.9850524663925171,-0.015937810763716698,-1.7159240245819092,0.48800787329673767,0.7814508080482483,1.2214233875274658,-0.5379970073699951,2.407379150390625,-1.4926060438156128,0.2961745262145996,0.9988545775413513,0
98,979766,-0.016606168821454048,0.01722290739417076,-1.0161879062652588,-0.28075772523880005,0.5970771908760071,-0.32598742842674255,30.048696517944336,-11.013727188110352,39.972129821777344,-0.24880456924438477,0.8838545680046082,0.9274409413337708,-0.5794912576675415,-0.46142318844795227,-1.487621784210205,-0.42940258979797363,1.7407338619232178,0.7988771200180054,0.6922505497932434,-0.709736704826355,-1.8812071084976196,-1.310357689857483,-0.6702895760536194,-1.0019328594207764,0
99,989966,0.054706305265426636,0.03649188578128815,-0.9981696009635925,1.3147653341293335,-0.1754911094903946,-0.21472761034965515,29.784177780151367,-9.675704956054688,39.08883285522461,0.6526345014572144,-1.4366562366485596,0.31649184226989746,0.6800985336303711,0.9695951342582703,1.2916903495788574,-0.47324520349502563,-1.3229475021362305,-1.61087167263031,-0.14795240759849548,0.5208606123924255,-0.1438037008047104,0.24771524965763092,0.5417891144752502,0.17720267176628113,0
100,1000228,-0.0013133392203599215,0.03427158296108246,-0.9985067844390869,-0.0807499960064888,-0.2509291172027588,-0.4474552571773529,29.826570510864258,-9.036849975585938,40.67351531982422,0.21299311518669128,0.5244898200035095,0.8162084817886353,-0.11696059256792068,1.0434390306472778,-0.7593383193016052,-1.2757095098495483,-0.5598269104957581,1.9268549680709839,-0.8658708333969116,-0.2722862958908081,-1.0760067701339722,-1.2040278911590576,0.6668258905410767,-0.07070433348417282,0
101,1010213,0.020291190594434738,0.013344403356313705,-1.0123419761657715,-0.7567249536514282,-0.1236724704504013,0.39393964409828186,30.17169952392578,-11.792566299438477,38.5272331237793,-0.30604270100593567,-1.0572361946105957,-0.4004687964916229,1.8499324321746826,-0.7632195949554443,1.45192551612854,-0.2718489170074463,-0.04600898176431656,-1.633286476135254,1.3734831809997559,-0.21251463890075684,-0.6562926769256592,1.1291640996932983,0.2926926612854004,-0.687592089176178,0
102,1019783,-0.04737795144319534,0.07458566129207611,-1.0265817642211914,-0.022459134459495544,0.5226620435714722,-0.04933926463127136,30.3413028717041,-9.62513256072998,41.34361267089844,-0.6989779472351074,1.3369462490081787,-0.9715903997421265,1.9061076641082764,-1.1862962245941162,-0.43541595339775085,-0.11234334111213684,3.4544317722320557,-0.15581072866916656,0.33427590131759644,-0.2382485419511795,-0.8626853823661804,1.2239083051681519,0.9838160276412964,-0.5115152597427368,0
103,1030006,-0.007575511932373047,0.008877039887011051,-1.007619857788086,-0.1084420308470726,-0.25390249490737915,0.29152825474739075,32.28386306762695,-11.12561321258545,39.988067626953125,-1.316565990447998,-1.1808496713638306,0.3883722722530365,-0.16071230173110962,-0.5401995182037354,-0.10602016746997833,0.002949365181848407,0.4346098303794861,-0.24835245311260223,-1.0166670083999634,-0.8123751282691956,-0.21952542662620544,0.6985350251197815,0.4807550013065338,-0.09033258259296417,0
104,1039906,0.028689494356513023,0.03464195877313614,-1.0143165588378906,0.46437689661979675,-0.4820026457309723,0.13546426594257355,30.631916046142578,-10.367700576782227,39.502830505371094,0.5830548405647278,-0.6992135643959045,-0.3532648980617523,1.4172945022583008,0.823978066444397,-0.9482893347740173,-0.9672816395759583,1.6384633779525757,0.19930246472358704,0.6741632223129272,0.23142312467098236,-0.2204880714416504,-0.7751285433769226,0.8911370635032654,-0.8376821875572205,0
105,1050129,-0.04782215878367424,0.06985226273536682,-1.0316959619522095,0.45017915964126587,-0.4408360421657562,1.2785186767578125,31.109661102294922,-10.39736557006836,36.929847717285156,0.08525709062814713,-1.8235650062561035,-1.7123353481292725,-0.1877415031194687,-1.8884873390197754,-0.44770023226737976,-1.8517802953720093,0.973619282245636,-0.26983579993247986,0.42409804463386536,0.45740002393722534,1.1943066120147705,-0.01765885017812252,1.0098333358764648,-1.183667540550232,0
106,1059804,0.04577741399407387,-0.011999676935374737,-0.9629395604133606,-0.8184070587158203,-0.36128565669059753,-0.6175438165664673,30.555679321289062,-10.37484073638916,40.986358642578125,0.5705482959747314,1.7467981576919556,0.3075847625732422,0.1467728465795517,-0.4538811445236206,-1.1199491024017334,1.9709827899932861,-1.1684434413909912,0.8858423233032227,-0.5068225264549255,1.1045007705688477,1.0169416666030884,-0.23235957324504852,0.2349931001663208,-0.9191098213195801,0
107,1070002,-0.01813807524740696,0.07568031549453735,-1.024782657623291,0.46249398589134216,0.653174638748169,-0.5053737759590149,31.698894500732422,-10.817994117736816,39.25299072265625,-0.4723665118217468,-1.3357702493667603,1.1810232400894165,1.395659327507019,-0.6960561871528625,-0.3156108260154724,-0.10264500230550766,-2.0960276126861572,-1.6065092086791992,-0.6281145215034485,0.4605758488178253,1.999237060546875,-0.35707366466522217,-0.6032516360282898,-2.272620439529419,0
108,1079893,-0.06247643753886223,-0.012000296264886856,-0.9696682095527649,-0.28853070735931396,0.44358062744140625,-0.6755462884902954,30.882240295410156,-11.018219947814941,41.01572799682617,0.648444652557373,1.671562671661377,0.5437701940536499,-0.09584133327007294,0.07962947338819504,1.0071498155593872,-0.12036532908678055,0.25245076417922974,-1.0592560768127441,0.26868391036987305,2.7870798110961914,-2.270745277404785,0.45343923568725586,0.5247164368629456,-1.0512938499450684,0
109,1089939,-0.11917770653963089,-0.04750148579478264,-1.0038717985153198,-0.05054602026939392,0.047758907079696655,0.19787046313285828,30.869056701660156,-10.743613243103027,39.37490463256836,-0.1351138949394226,0.0844472125172615,-1.300655484199524,-0.7899858951568604,-0.5113154053688049,0.11195638030767441,0.7963228821754456,-1.751434564590454,0.6193846464157104,-0.002787089440971613,0.5251579284667969,-2.1621029376983643,1.0921502113342285,-0.31521862745285034,-1.309137225151062,0
110,1099893,-0.003957543522119522,-0.028051206842064857,-0.9957445859909058,-0.5218628644943237,-0.08208099752664566,0.14410124719142914,30.078407287597656,-9.614605903625488,40.33794021606445,1.8693687915802002,-1.5589218139648438,1.652780294418335,-0.44584986567497253,0.07156382501125336,0.12031883746385574,-0.3230895400047302,2.334674596786499,-1.0474438667297363,0.5697135329246521,-0.8250168561935425,-0.03446316346526146,0.5111249089241028,-0.32614442706108093,-1.5329228639602661,0
111,1110102,0.03174969553947449,-0.004748600069433451,-0.9988930225372314,0.09404385089874268,0.36485689878463745,-0.5069096088409424,30.539899826049805,-9.81231689453125,38.594993591308594,-0.06047185882925987,-0.2721116244792938,0.7339184284210205,0.2859010696411133,1.8965224027633667,-1.020910620689392,-0.7020144462585449,0.31006303429603577,2.288879632949829,-0.2336832880973816,-2.091628074645996,-1.3728020191192627,1.483961820602417,-0.684288740158081,-2.140594005584717,0
112,1120015,-0.0482332669198513,0.02315586246550083,-0.9800394177436829,0.0776841938495636,0.29335805773735046,0.07510730624198914,28.80394172668457,-10.607776641845703,40.43826675415039,1.032837152481079,-1.068119764328003,-0.7490575909614563,1.0092521905899048,0.5451614260673523,0.6321449279785156,-0.18051153421401978,-0.7763351798057556,0.3650820851325989,1.3366599082946777,-0.9946754574775696,1.9797437191009521,0.7517989873886108,1.690294623374939,1.3749864101409912,0
113,1130197,-0.021315529942512512,-0.022791210561990738,-1.0022099018096924,-0.47759756445884705,0.001332076033577323,0.2599019706249237,30.80638313293457,-9.90872859954834,39.642982482910156,2.374595880508423,-1.0037646293640137,0.5368607044219971,0.4387148320674896,-0.5499069690704346,0.19020840525627136,0.8556756973266602,1.3119534254074097,-0.9839508533477783,1.0506575107574463,-1.1864622831344604,0.0974542573094368,-0.1286424845457077,-0.11539018899202347,0.643832802772522,0
114,1140099,0.01945553347468376,-0.01501055434346199,-0.9575614333152771,0.24729220569133759,0.749352216720581,0.4805857837200165,29.15974235534668,-10.33704662322998,40.931182861328125,1.2804561853408813,-1.5439481735229492,0.8457128405570984,-0.8262780904769897,-1.1350539922714233,0.24392683804035187,0.5406431555747986,1.1785354614257812,-0.9927307963371277,0.43909546732902527,-0.0217172522097826,-1.627171277999878,-1.5316157341003418,-1.166297435760498,0.19219213724136353,0
115,1149702,-0.0011901635443791747,-0.07703489810228348,-0.9926190972328186,-0.019240308552980423,0.324476957321167,-0.5575437545776367,31.160415649414062,-9.321053504943848,40.170040130615234,0.036275289952754974,1.0585280656814575,0.9823857545852661,0.14420965313911438,-0.8493396043777466,0.21633654832839966,-0.3070884943008423,-0.20884940028190613,-0.4788810610771179,-0.8258697390556335,0.14669600129127502,0.6961206793785095,0.24824585020542145,-1.1426334381103516,0.28826433420181274,0
116,1159948,0.008704698644578457,0.022703124210238457,-0.9745368361473083,-0.752117395401001,0.16924971342086792,0.11812703311443329,28.255647659301758,-11.03891372680664,40.22500228881836,-0.6208688616752625,0.13120326399803162,-2.1704790592193604,1.0989246368408203,-0.2533564567565918,-0.002210014732554555,-2.2419795989990234,0.8993890285491943,-1.2310402393341064,-1.900922417640686,-0.03372807428240776,-0.1888027936220169,-0.0005872418405488133,0.5455026626586914,-0.15096431970596313,0
117,1169829,-0.012132331728935242,0.05497808754444122,-1.0247009992599487,-0.49267858266830444,0.9911201596260071,0.2828052043914795,28.675952911376953,-9.896707534790039,41.15153121948242,-0.5562527775764465,0.5012713670730591,1.146909236907959,0.36191263794898987,0.09788510203361511,0.7052779197692871,-0.7205486297607422,-0.11461203545331955,1.7669285535812378,-1.422871470451355,1.5283985137939453,1.2508454322814941,1.7133616209030151,0.2732146382331848,-1.1550278663635254,0
118,1180338,0.07959477603435516,-0.005071628373116255,-1.0064622163772583,-0.49244424700737,0.06024744361639023,-0.12368819862604141,30.666454315185547,-9.919571876525879,39.798561096191406,1.0992993116378784,-0.6857319474220276,-1.0424326658248901,0.0054172733798623085,1.660521388053894,0.07508806884288788,-1.7754688262939453,-0.4387604296207428,-1.3142470121383667,0.8238281607627869,-0.678095817565918,2.141171455383301,0.9726830720901489,-1.8166333436965942,-0.48643243312835693,0
119,1189981,0.015850502997636795,-0.016269659623503685,-1.0001335144042969,-0.10356331616640091,0.3588767349720001,-0.40671196579933167,30.71352767944336,-9.388669967651367,40.00319290161133,-1.4069156646728516,0.8834213018417358,-1.4622007608413696,0.6809980273246765,-0.05899129435420036,-0.6830365061759949,-0.011558574624359608,0.44959700107574463,-0.7466112971305847,-0.19304601848125458,0.1316184550523758,-1.0645521879196167,0.3655577003955841,-0.4931761920452118,-1.0229252576828003,0
120,1200122,-0.020606616511940956,-0.01020738948136568,-0.959050178527832,0.5774134993553162,-0.3801792860031128,-1.0447120666503906,28.83429527282715,-8.894417762756348,41.249698638916016,0.13415059447288513,1.174576997756958,0.6381999850273132,0.62274169921875,-1.1272135972976685,1.0160014629364014,-0.0720130205154419,-0.7984014749526978,1.051003336906433,-1.020247459411621,-1.040852665901184,-0.11249130219221115,0.06678735464811325,-0.6590221524238586,0.12119197100400925,0
121,1209888,0.008303752169013023,-0.02489388920366764,-0.9805510640144348,0.23608547449111938,0.1711493730545044,0.024906715378165245,30.97812271118164,-8.38877010345459,41.02513122558594,0.6596280932426453,-1.013524055480957,-1.698860764503479,1.975096583366394,0.1878906637430191,-0.8132602572441101,0.255323588848114,-1.489161491394043,1.987282395362854,-0.4587729573249817,0.32158416509628296,0.4874946177005768,-1.1366848945617676,0.41083696484565735,1.1372095346450806,0
122,1220015,0.03639967739582062,0.04850418493151665,-0.9969245791435242,-0.8824899792671204,0.7855650186538696,0.19863276183605194,30.484771728515625,-11.783411026000977,40.791465759277344,-1.983060598373413,-0.6230961680412292,1.0455374717712402,-0.14202895760536194,-0.5283978581428528,-2.3929007053375244,0.7845288515090942,-1.3434696197509766,-2.53222918510437,-0.6062372922897339,-0.26406335830688477,-0.18454931676387787,-0.5358686447143555,-0.32867056131362915,1.6374330520629883,0
123,1229968,0.06614953279495239,-0.02884986251592636,-0.9962148070335388,0.4031657874584198,0.48913922905921936,-0.9270463585853577,31.073678970336914,-11.02617359161377,40.630126953125,-0.03674986585974693,-0.4220615029335022,-1.2151273488998413,-0.5912157297134399,-1.033339500427246,0.968214213848114,1.6382873058319092,-0.37520745396614075,1.5412641763687134,0.9933452606201172,0.25414013862609863,0.6078552603721619,0.24881355464458466,0.4444878399372101,0.16009347140789032,0
124,1240308,-0.059434905648231506,-0.060775771737098694,-0.9745230674743652,0.5854631662368774,0.13388822972774506,-0.41132763028144836,29.453603744506836,-9.840476036071777,40.90874099731445,0.5166984796524048,1.5719176530838013,0.10818569362163544,-0.6902796030044556,1.083954095840454,-1.75528085231781,0.818318247795105,-1.137576699256897,-0.9876200556755066,0.3315619230270386,-0.12418309599161148,0.3936968743801117,-1.0095593929290771,1.0551358461380005,0.6495571136474609,0
125,1250165,0.03292582929134369,0.021072128787636757,-0.9537264704704285,0.24034051597118378,0.6342299580574036,0.6974887847900391,31.39885902404785,-9.681059837341309,41.418514251708984,-0.2787998914718628,0.537760853767395,0.8590548038482666,-1.0395407676696777,0.5296519994735718,0.1161152720451355,-1.3205211162567139,0.11797638982534409,-0.8035113215446472,1.7142671346664429,1.0458277463912964,0.1887151598930359,-2.202465057373047,2.9598865509033203,-1.365438461303711,0
126,1260019,-0.0508204884827137,-0.032044168561697006,-0.9985949397087097,0.0035980679094791412,0.4748629629611969,0.22005580365657806,29.85381507873535,-10.97989273071289,40.62820053100586,0.23850306868553162,-2.1645615100860596,-0.44105279445648193,-2.029026985168457,-1.3563816547393799,0.017861809581518173,0.6587479710578918,0.503989040851593,-1.2012163400650024,-1.0788875818252563,-0.3545863926410675,1.7595726251602173,-0.2621537744998932,-0.8880416750907898,0.047470320016145706,0
127,1269908,0.04685139283537865,-0.006846678908914328,-1.0146775245666504,0.5457477569580078,-0.8722102642059326,-0.6911470293998718,30.452646255493164,-10.833508491516113,38.34366226196289,-0.48932018876075745,0.6631940603256226,0.46957316994667053,-0.9416019320487976,-0.7298556566238403,-0.5322508215904236,-0.3413904309272766,0.3467901349067688,0.8754546642303467,0.8786244988441467,0.9800426363945007,-0.10576717555522919,-0.10484295338392258,1.319900393486023,-0.2089422196149826,0
128,1280125,-0.03965634107589722,0.014376452192664146,-1.0184448957443237,0.10921619087457657,-0.09462534636259079,0.3452586233615875,28.79401206970215,-9.951620101928711,39.49040603637695,1.1859657764434814,1.3448511362075806,-2.398024082183838,1.1892707347869873,-2.3918933868408203,0.3717092275619507,-0.3506830036640167,-1.2815189361572266,-1.7180076837539673,0.12683245539665222,-0.19954106211662292,-1.5556899309158325,1.2715486288070679,-0.7382254600524902,0.6189952492713928,0
129,1289895,-0.02326296828687191,0.029899369925260544,-0.9843026995658875,-0.26939278841018677,0.17760853469371796,0.35303816199302673,29.92165184020996,-10.134644508361816,40.377166748046875,-0.20576219260692596,1.4563417434692383,-1.5049635171890259,0.8066877722740173,-0.05349899083375931,0.2568039000034332,0.7581487894058228,0.016092726960778236,0.8126442432403564,-0.3701971173286438,-0.8893280029296875,0.7154704928398132,0.7892619371414185,-0.12117387354373932,1.0158029794692993,0
130,1300156,-0.008095603436231613,0.07349015772342682,-0.9581063389778137,-0.5547083020210266,-0.10878552496433258,0.7752617597579956,29.937362670898438,-10.497488975524902,41.63656997680664,-1.6081387996673584,-0.366531103849411,-2.285810947418213,0.21777090430259705,2.4267139434814453,-0.039135225117206573,-0.1279217004776001,-2.0062620639801025,0.6871479153633118,0.34274226427078247,-2.1770379543304443,-0.9654298424720764,-0.25872793793678284,1.5246409177780151,0.5131394863128662,0
131,1310113,0.04375186190009117,0.037242114543914795,-0.996743381023407,-0.7759267091751099,-0.1652553677558899,-0.4387351870536804,29.985692977905273,-8.323265075683594,40.339839935302734,-0.09642001986503601,-1.1350071430206299,-1.099076271057129,-1.1335065364837646,0.03451357036828995,0.7919922471046448,-0.22964295744895935,0.22676117718219757,-0.9151138067245483,-1.7011892795562744,1.3541086912155151,-0.054164156317710876,0.8435834646224976,0.74067223072052,0.20696666836738586,0
132,1320153,-0.020761428400874138,0.019242893904447556,-0.9861435294151306,0.7957757115364075,0.4632986783981323,-0.6202645301818848,28.5319766998291,-10.08711051940918,40.518978118896484,0.3387373983860016,0.8296282887458801,-0.3251452147960663,0.5713983774185181,0.160535991191864,-0.32158181071281433,-0.3331151008605957,0.5787891745567322,-1.638606309890747,1.4924384355545044,-0.0589180514216423,0.3398284316062927,1.9448316097259521,-0.4602375030517578,-1.4632220268249512,0
133,1330082,-0.027969524264335632,0.07127465307712555,-1.024228811264038,-0.46369096636772156,-0.1342741847038269,-0.26200762391090393,28.83431053161621,-10.120139122009277,38.93039321899414,-0.22552591562271118,1.2266491651535034,0.07427891343832016,1.9748971462249756,-0.34278404712677,-0.36241671442985535,0.22164741158485413,0.6571047902107239,0.4401118755340576,0.038032300770282745,-0.07198403030633926,-0.3140330910682678,-1.5034728050231934,-2.014054536819458,-1.1313400268554688,0
134,1340080,-0.06877405941486359,0.026743456721305847,-1.017564058303833,-0.12609925866127014,-0.56331866979599,-0.08383432030677795,29.896221160888672,-9.753646850585938,40.21901321411133,-0.021471483632922173,-1.3537160158157349,-0.5166400671005249,-1.5793533325195312,-0.9966951608657837,-1.481331467628479,1.117814540863037,-0.2814618647098541,0.6528383493423462,0.12143667787313461,0.6915608048439026,0.6561248898506165,-0.6304784417152405,1.6033413410186768,-0.10814842581748962,0
135,1350181,0.019641989842057228,-0.06468655914068222,-0.9962575435638428,0.5333481431007385,-0.5336794853210449,-0.008498077280819416,31.53325843811035,-9.037200927734375,40.950706481933594,0.0017469926970079541,-0.5760555267333984,0.3267544209957123,-1.2563152313232422,-1.3803257942199707,1.3399957418441772,-1.4711840152740479,-0.5873866677284241,-0.1616320013999939,1.105389952659607,-0.02687652036547661,0.2220088094472885,-1.2814891338348389,0.07126433402299881,-1.7178723812103271,0
136,1360009,0.008373362012207508,0.009079864248633385,-1.0105140209197998,-0.412736713886261,-0.1668792963027954,-0.3572555184364319,27.63159942626953,-8.259757041931152,38.82792282104492,0.8272303938865662,-1.625974178314209,0.4985407590866089,0.09042401611804962,-0.25127044320106506,-0.21852481365203857,-0.24491827189922333,-0.23981697857379913,1.7024623155593872,0.16874133050441742,-0.20489966869354248,0.4876804053783417,-0.1634512096643448,-1.2491416931152344,-1.0609102249145508,0
137,1370000,0.07965391129255295,-0.026979630813002586,-1.0187368392944336,0.22902563214302063,1.0229116678237915,-0.21518059074878693,30.118759155273438,-9.457867622375488,39.89425277709961,-1.0931727886199951,-1.0887868404388428,0.9245203137397766,-1.8618534803390503,1.3631943464279175,-1.9138331413269043,1.8367555141448975,1.0734219551086426,0.5985428690910339,0.8861671090126038,0.21817508339881897,-0.9084693789482117,-0.5175781846046448,1.429734230041504,-0.6242966055870056,0
138,1380125,0.0015567574882879853,-0.042611658573150635,-1.0188415050506592,-0.004307526163756847,-0.5323448181152344,0.2079571634531021,28.808555603027344,-11.103935241699219,41.21048355102539,1.935154676437378,0.25722989439964294,-0.07956040650606155,0.22507202625274658,0.5176868438720703,-0.21356092393398285,0.008664118126034737,-2.1119279861450195,1.9842629432678223,-0.38028019666671753,2.1201014518737793,0.6360988616943359,-0.022268997505307198,-0.24874071776866913,0.8314485549926758,0
139,1390007,0.045492079108953476,0.006056300830096006,-0.9742410182952881,-0.7208559513092041,-0.04058930277824402,0.1585531383752823,30.046663284301758,-8.323281288146973,37.637142181396484,1.9638639688491821,-2.1177046298980713,-0.9429135322570801,-1.0341997146606445,0.04822983592748642,0.7680940628051758,1.8278043270111084,1.3081310987472534,-0.20855063199996948,-0.41518476605415344,-0.19412286579608917,1.2919071912765503,-0.8498591780662537,0.0599583201110363,-0.6603590250015259,0
140,1399930,0.15985983610153198,-0.00364521611481905,-0.9920639991760254,-0.008854108862578869,-0.09797035157680511,-0.343448668718338,28.936233520507812,-9.62090015411377,40.929439544677734,-1.3880400657653809,0.49471116065979004,-1.9563695192337036,0.9199416637420654,0.7130619287490845,1.2659111022949219,-0.4917931854724884,1.0959522724151611,-0.27151936292648315,-1.4603631496429443,1.286031723022461,1.0370365381240845,-0.6621303558349609,-0.8181166052818298,0.2372637689113617,0
141,1410009,-0.0009182026842609048,-0.02877809666097164,-0.9996821880340576,-0.006648226175457239,0.2820458710193634,-0.09813853353261948,30.717792510986328,-8.738429069519043,38.66925048828125,0.29139354825019836,-2.058173656463623,-0.4525449573993683,0.04948083683848381,1.9272303581237793,-0.3930370509624481,-0.1448386162519455,0.5657176971435547,-0.5558008551597595,-2.518456220626831,-0.009746380150318146,-1.9667718410491943,1.7249265909194946,-0.6443781852722168,-0.414846807718277,0
142,1419784,-0.002252853475511074,-0.010336633771657944,-0.9983581900596619,1.4931052923202515,0.15335077047348022,0.009747020900249481,31.584562301635742,-9.175943374633789,40.883392333984375,-0.027878478169441223,0.3655475080013275,0.28368809819221497,-0.30560535192489624,1.0670758485794067,2.086853265762329,-0.4111630916595459,0.8904515504837036,-1.7309019565582275,-0.8135514855384827,0.0518951416015625,2.1617064476013184,-1.6984566450119019,0.3380705714225769,-0.21560916304588318,0
143,1430082,0.025224456563591957,0.08335595577955246,-1.0033751726150513,0.24665816128253937,0.2258913666009903,0.7958195805549622,31.705928802490234,-9.41786003112793,41.69247817993164,0.5174311399459839,-0.6193548440933228,0.379364550113678,-0.15129224956035614,0.8166775703430176,0.3234677016735077,-0.34324556589126587,1.9274054765701294,-0.6702864766120911,-0.584559977054596,2.378528118133545,-0.9842554926872253,1.4710803031921387,-1.2157729864120483,-0.8654301166534424,0
144,1440237,0.05043717846274376,0.09439986199140549,-1.0177432298660278,0.1873902678489685,0.3315330147743225,0.36336252093315125,29.25592803955078,-9.614519119262695,40.168792724609375,2.098729372024536,0.4878612160682678,-1.9149430990219116,-0.05209018290042877,-0.4216013252735138,0.10321596264839172,0.38941481709480286,-0.4549066722393036,0.18112149834632874,-0.7409394979476929,1.0045347213745117,-0.21979741752147675,0.5673009753227234,1.188185691833496,0.8137105703353882,0
145,1449883,-0.013334007933735847,0.05354434996843338,-0.9830021262168884,0.4121544659137726,-0.4710262715816498,-0.22793865203857422,28.511287689208984,-10.097550392150879,41.14471435546875,0.356469064950943,1.0325591564178467,0.30810242891311646,0.5542688965797424,-0.6857223510742188,-1.0567638874053955,1.2041987180709839,-1.6033142805099487,2.237837791442871,-0.18704652786254883,-0.7957274317741394,0.4166189134120941,0.9352535605430603,-1.2286317348480225,-1.1658682823181152,0
146,1460172,0.06005125865340233,0.02316785231232643,-1.0252166986465454,0.25779104232788086,-0.4742718040943146,0.5585697293281555,31.04206085205078,-7.998477935791016,39.666385650634766,0.724553644657135,0.1813707947731018,-0.8554443120956421,0.4804733395576477,-1.1739273071289062,0.09285488724708557,-0.718612790107727,-0.6382883787155151,-0.5550838708877563,-1.4675875902175903,-0.6658378839492798,0.23006102442741394,-1.3505165576934814,0.13538876175880432,-2.0772311687469482,0
147,1469839,0.05234462022781372,-0.007799769286066294,-0.993006706237793,0.4740457832813263,0.5154947638511658,-0.26826944947242737,29.286632537841797,-10.56406307220459,39.35737609863281,0.5633586049079895,0.06359352171421051,0.5742182731628418,2.084441900253296,-0.3046588897705078,0.770732045173645,0.8454483151435852,0.970759391784668,-1.096047282218933,1.6630685329437256,1.119041919708252,1.222700834274292,-1.6687592267990112,0.9131067991256714,1.5098541975021362,0
148,1479963,0.014334679581224918,-0.04475115239620209,-1.0204499959945679,-0.3231697380542755,-0.39137184619903564,-0.06225031986832619,30.80841827392578,-11.072139739990234,39.64124298095703,0.7806183099746704,1.5382874011993408,0.4534274935722351,0.1207774206995964,0.022498050704598427,-1.4607360363006592,0.6384326815605164,0.18743450939655304,0.848840057849884,-2.313933849334717,-1.1484683752059937,0.14486171305179596,-0.8541606664657593,-1.0712977647781372,-0.43389108777046204,0
149,1489991,-0.009763906709849834,0.03225819766521454,-0.9711800813674927,-0.13977475464344025,0.04995350167155266,0.6355401873588562,29.346906661987305,-10.870491027832031,40.47894287109375,0.7297495603561401,1.8820921182632446,-1.855732798576355,-1.253476619720459,-0.3131774961948395,-1.039993166923523,-0.7866873145103455,0.41627511382102966,-1.26861572265625,0.4885031580924988,2.01991868019104,0.2671044170856476,-0.21642592549324036,-0.11565360426902771,0.12081441283226013,0
150,1499813,-0.002545369556173682,0.042260464280843735,-0.9972631335258484,0.4876406490802765,-0.17675648629665375,0.32598787546157837,31.031370162963867,-10.21865177154541,39.290916442871094,0.578543484210968,-0.8703112006187439,-0.28139209747314453,-0.17615261673927307,1.5616647005081177,0.01302909292280674,1.8962931632995605,0.31137552857398987,0.11962633579969406,-1.3188339471817017,-1.6666232347488403,0.3505081832408905,-0.823192834854126,-0.4164257049560547,-0.3031335473060608,0
151,1510097,0.01083393581211567,-0.0155533067882061,-1.0002014636993408,1.749748945236206,-0.47379276156425476,-0.32828426361083984,29.154569625854492,-9.550686836242676,39.03510284423828,-2.8738350868225098,0.9888308644294739,-1.5589531660079956,-0.5609838366508484,-0.4736678898334503,-1.5362502336502075,2.551729679107666,1.2539587020874023,-1.2317662239074707,-1.8403433561325073,0.3727153241634369,0.3897513747215271,-0.9399420619010925,0.19330085813999176,-1.2891640663146973,0
152,1519940,0.03968409076333046,0.08213862031698227,-0.9863678812980652,-0.4607190787792206,-0.34363552927970886,1.6713618040084839,29.438650131225586,-9.494001388549805,39.10072708129883,1.0717023611068726,-1.7603225708007812,-2.182647943496704,-2.1346144676208496,-1.8076049089431763,-0.47219008207321167,0.043352700769901276,-0.6497952938079834,-1.9964630603790283,-0.23519901931285858,-0.5652666687965393,-1.9227172136306763,-1.407941460609436,-0.6134175062179565,0.2910195589065552,0
153,1530053,-0.01980484463274479,0.03458305075764656,-0.9804717898368835,-0.42659738659858704,-0.6773156523704529,-0.06825920939445496,30.2552433013916,-10.101561546325684,39.12629699707031,-0.14420542120933533,-0.2746620774269104,1.6312627792358398,0.7759947776794434,-0.4542602002620697,0.03384258970618248,0.13367797434329987,0.3036918342113495,0.1963101178407669,0.26909101009368896,0.790422797203064,0.5551469326019287,0.6439558267593384,-0.4474659860134125,1.0591107606887817,0
154,1540210,0.016727173700928688,-0.03886968642473221,-0.9986333250999451,-0.7264508008956909,-0.047338176518678665,0.2778821289539337,27.704713821411133,-11.5408935546875,39.18235397338867,-0.9449126124382019,0.6234608292579651,0.6360211968421936,0.5665952563285828,0.4984070360660553,-0.9707155227661133,-0.31700292229652405,1.2010961771011353,0.7487083673477173,-2.474475383758545,-0.8541587591171265,-0.9579771757125854,-0.23134596645832062,0.11260879784822464,-1.0628148317337036,0
155,1549820,-0.01937112770974636,-0.002083350205793977,-1.050147533416748,-0.021716168150305748,-0.49821773171424866,-0.185008242726326,30.022544860839844,-9.066425323486328,38.92439270019531,-0.03851489722728729,1.8453832864761353,-0.14718887209892273,0.9736106991767883,-0.7615174055099487,-0.43401703238487244,0.27525630593299866,-0.4299962818622589,-0.7423442006111145,0.8034051656723022,0.9667274355888367,0.9352830648422241,1.6346569061279297,0.5825132131576538,0.018815595656633377,0
156,1559889,0.027897614985704422,0.03831813484430313,-0.9863477349281311,0.04558518901467323,0.12104839086532593,0.3971393406391144,30.32089614868164,-9.500741004943848,38.737403869628906,-1.7946605682373047,0.1668841689825058,-0.32772311568260193,-0.5920240879058838,0.08831819891929626,0.45379096269607544,1.3158152103424072,-0.6947451233863831,2.766242265701294,-0.7397201657295227,0.23696313798427582,-0.6058179140090942,0.3409392237663269,-2.180873394012451,0.2794859707355499,0
157,1569950,-0.02156464196741581,-0.05339741334319115,-0.981344997882843,0.5437222719192505,-0.3742055594921112,-0.5657193660736084,29.47445297241211,-8.282551765441895,39.440528869628906,-1.0793120861053467,0.14432555437088013,-0.48320648074150085,-0.28800442814826965,-0.2558831572532654,-2.3713104724884033,0.31865614652633667,1.7019411325454712,1.5725973844528198,0.0832362025976181,-1.2402724027633667,-0.4909568428993225,1.1554769277572632,-0.4956938624382019,-0.2849429249763489,0
158,1580037,-0.06841865926980972,0.10031794011592865,-1.0234129428863525,0.9701669216156006,0.36454394459724426,-0.4722021222114563,30.01622772216797,-9.33376407623291,39.202247619628906,-0.20584630966186523,1.0623246431350708,1.0909520387649536,-1.0547069311141968,-0.5372276306152344,-0.8068046569824219,-2.1650896072387695,0.870098352432251,0.21567347645759583,-0.5725405216217041,0.31363552808761597,0.027755646035075188,-0.8935520648956299,-1.192981243133545,-1.0911405086517334,0
159,1590054,0.06465637683868408,-0.049026329070329666,-0.9773326516151428,0.1659674197435379,0.6665407419204712,0.13172270357608795,28.178207397460938,-9.94579792022705,40.02217483520508,-0.9660186767578125,0.49651482701301575,-0.3484574258327484,-1.1956337690353394,-0.5140294432640076,1.0366981029510498,0.6826290488243103,-0.5393226146697998,1.1060600280761719,-0.29402557015419006,0.07855051010847092,1.2379580736160278,1.1585135459899902,-1.6106066703796387,3.1568987369537354,0
160,1599953,-0.1182754710316658,0.056169912219047546,-1.0011889934539795,-1.0445514917373657,-0.243072971701622,0.05561135336756706,29.759723663330078,-11.313573837280273,40.39111328125,-1.6007168292999268,1.9868242740631104,2.048598289489746,-1.1818631887435913,1.1897460222244263,-2.0238280296325684,1.2097276449203491,-1.3166530132293701,0.8700902462005615,-1.43458890914917,0.6763110756874084,-0.4903014600276947,0.041789621114730835,0.23312412202358246,1.0542761087417603,0
161,1609837,0.04016628861427307,-0.05878434702754021,-0.9951990842819214,-0.08567903190851212,0.3967910408973694,-0.52788907289505,28.477069854736328,-10.889466285705566,39.82057571411133,-0.22678260505199432,0.8831895589828491,-0.7780131697654724,1.0304638147354126,-0.8383405804634094,0.9949594140052795,-0.6624943614006042,0.6221620440483093,0.6378130912780762,-1.094895362854004,-0.11299140006303787,-1.7057597637176514,2.789362907409668,2.1880416870117188,-1.3965519666671753,0
162,1619997,0.11613208055496216,-0.051831938326358795,-1.0074909925460815,-0.10333476960659027,-0.1817544549703598,0.10033630579710007,31.140865325927734,-8.38323974609375,39.61806106567383,-0.38593432307243347,-1.1661078929901123,2.1350409984588623,-1.1903276443481445,0.19984066486358643,2.0406885147094727,0.7212280631065369,0.3467828929424286,-0.8794378042221069,-1.2026584148406982,-1.2537450790405273,-1.0196164846420288,-0.3163489103317261,0.18515798449516296,0.07800290733575821,0
163,1630002,-0.06439728289842606,0.02186700515449047,-1.0146877765655518,-0.2620703876018524,-0.311563640832901,0.7097906470298767,31.74056053161621,-9.861181259155273,39.75136184692383,0.00021759598166681826,0.2771870791912079,0.666880190372467,2.14603590965271,-0.257073312997818,0.6181339025497437,0.28833043575286865,-0.5256683826446533,0.240172877907753,-0.5437679886817932,-0.45395269989967346,-0.6886945366859436,-1.2829957008361816,-1.2131232023239136,0.0027325397823005915,0
164,1639779,-0.057499274611473083,0.028227385133504868,-1.007735252380371,-0.4344785809516907,-0.7623726725578308,0.08338642865419388,29.419635772705078,-9.648512840270996,39.5412712097168,1.0133134126663208,0.9302746653556824,-1.1580604314804077,-0.3054344058036804,0.3703467845916748,-1.959647536277771,0.41282713413238525,-0.9450221061706543,1.6366186141967773,0.43376216292381287,-0.27867308259010315,-2.331662654876709,-0.7934795022010803,-0.7439196109771729,1.9438936710357666,0
165,1650019,-0.053141772747039795,0.02250903844833374,-1.0253474712371826,0.047675710171461105,0.6731383800506592,-0.08923517167568207,28.56465721130371,-8.902016639709473,39.90922546386719,2.412416458129883,0.13957124948501587,1.803964614868164,-0.12669996917247772,0.9101378321647644,-0.21099480986595154,0.29977890849113464,-0.5569559335708618,-1.2508164644241333,0.08501303941011429,-1.5020618438720703,-1.125189185142517,1.8384565114974976,0.07615131884813309,0.809857964515686,0
166,1659922,-0.032835282385349274,-0.02844354324042797,-0.999616265296936,0.27421829104423523,-0.8286817073822021,-0.37767302989959717,30.064472198486328,-11.356775283813477,40.60826873779297,0.7761795520782471,2.3917899131774902,-0.40098610520362854,0.40559831261634827,-0.30692583322525024,-0.8353337645530701,-0.2823610305786133,-0.5646236538887024,-0.07221628725528717,-0.33194446563720703,-1.245956301689148,0.996549665927887,-0.31987354159355164,0.524337649345398,0.1603698432445526,0
167,1669885,-0.04620625078678131,-0.06337185949087143,-1.0012149810791016,0.05474059656262398,0.2015363872051239,0.3599432110786438,29.869964599609375,-8.511700630187988,39.5710563659668,0.04746408015489578,-1.264294981956482,-1.372315764427185,-0.5680233240127563,0.1893385648727417,-0.3070642054080963,0.6580596566200256,-0.1427275538444519,0.1261983960866928,-1.1827447414398193,-1.398798942565918,-2.1502468585968018,-0.7616303563117981,0.24546828866004944,1.3574472665786743,0
168,1680193,-0.03339067101478577,0.00022443733178079128,-0.9896676540374756,0.04001091048121452,0.6747207045555115,0.07957054674625397,31.51313018798828,-10.267410278320312,40.52888870239258,-0.8912846446037292,-2.1235005855560303,0.26166191697120667,0.1371384710073471,0.37437957525253296,-0.18094487488269806,1.3139804601669312,-1.1760188341140747,-2.465362071990967,1.399223804473877,-0.19610637426376343,0.23629415035247803,2.3925118446350098,-0.5939364433288574,0.8789889812469482,0
169,1690005,0.01995144598186016,0.03274374082684517,-0.9910455346107483,-0.066895492374897,-0.6579049229621887,0.11073139309883118,32.0098762512207,-10.686616897583008,39.03485870361328,0.2328442633152008,-0.5016152262687683,-0.7255249619483948,0.3682728409767151,-0.5822778940200806,1.3484352827072144,-0.10605639219284058,-0.7684741020202637,-1.7702966928482056,-0.07787811011075974,-2.357461452484131,1.1313302516937256,-0.29107004404067993,1.1970651149749756,-2.0780370235443115,0
170,1699971,0.016540830954909325,-0.04617374390363693,-1.0234878063201904,0.9904414415359497,-0.12002874165773392,-0.17062591016292572,29.896610260009766,-9.148639678955078,39.208702087402344,-0.6536064147949219,0.06025594100356102,-1.0436160564422607,-0.7977641820907593,0.13694095611572266,-0.2525936961174011,0.8192497491836548,1.4322431087493896,-0.19158288836479187,-0.2216738611459732,-1.7822808027267456,2.2440264225006104,-0.4685983657836914,-0.6958585977554321,0.8619785308837891,0
171,1709928,-0.01312839612364769,0.0507061667740345,-1.000186800956726,0.2984030842781067,0.16017261147499084,0.33404970169067383,29.441120147705078,-9.913008689880371,38.95359802246094,-2.0986642837524414,-1.4693639278411865,0.5227097868919373,-1.102929949760437,-1.561881422996521,-0.1841810792684555,0.13267801702022552,1.5005730390548706,-0.4650748074054718,1.8909294605255127,-1.535466194152832,1.2065011262893677,-0.019383156672120094,0.5265218615531921,-0.7251242995262146,0
172,1719836,0.027328792959451675,-0.025072278454899788,-1.0090824365615845,0.2907055616378784,1.0465354919433594,0.8487287163734436,29.566749572753906,-10.827770233154297,39.72767639160156,1.0251450538635254,-0.8834813237190247,-0.3746211528778076,0.2520553469657898,1.2805917263031006,-0.3541502356529236,-1.3616458177566528,-0.030033016577363014,0.7940127849578857,0.6790801286697388,-0.2719869911670685,0.8338654637336731,0.059416867792606354,-0.7732115983963013,-1.8476394414901733,0
173,1729943,-0.023186637088656425,-0.0072903623804450035,-0.9717553853988647,0.24798154830932617,0.27811482548713684,0.6661989688873291,31.001590728759766,-9.079818725585938,39.64506912231445,1.3604074716567993,-0.3811074197292328,0.16013717651367188,1.161578893661499,-1.2776989936828613,-0.5708481073379517,0.5686740279197693,-0.07950495928525925,0.29636070132255554,0.7934474349021912,0.7376253604888916,1.4945073127746582,-0.649963915348053,1.0358211994171143,3.3368380069732666,0
174,1740066,-0.001615102868527174,-0.05468177795410156,-1.0217125415802002,-0.22049768269062042,-0.15000106394290924,-0.8191726207733154,28.574003219604492,-9.152234077453613,40.38279342651367,1.5371079444885254,-0.24017614126205444,0.029040638357400894,1.5932058095932007,0.43740764260292053,-0.7793613076210022,0.9693222045898438,-0.7067942023277283,-0.7313008904457092,1.2464759349822998,-1.0089770555496216,0.7148321270942688,-1.87595534324646,0.5724084973335266,-0.2630141079425812,0
175,1749923,0.0450376458466053,0.014048494398593903,-1.0125492811203003,-0.0736687108874321,-0.11592462658882141,0.1851426512002945,28.405527114868164,-10.048914909362793,40.51720428466797,0.21692737936973572,-1.0638341903686523,0.15893132984638214,0.04372978210449219,-0.4186655282974243,-0.8119305968284607,0.2183302491903305,-1.739306092262268,0.671929657459259,0.45606157183647156,-1.8887693881988525,1.3058669567108154,0.9801318645477295,-0.6227880120277405,0.44629696011543274,0
176,1759775,0.04287007823586464,-0.08502168953418732,-0.9543625116348267,-0.07319408655166626,0.2067842036485672,0.2516259551048279,30.055740356445312,-10.58446979522705,41.333126068115234,1.0341160297393799,0.240245059132576,0.9299290180206299,0.1700122356414795,-1.4989125728607178,-1.110924482345581,-0.7761837244033813,0.9552274346351624,-1.3315984010696411,-0.11930631846189499,-0.515092670917511,-0.25581294298171997,1.2477325201034546,0.6729552745819092,0.022858304902911186,0
177,1769767,0.04145750775933266,-0.03949222341179848,-0.9867560863494873,0.3824440538883209,-0.06514234095811844,0.1911705583333969,30.065176010131836,-10.175199508666992,40.48351287841797,0.08273502439260483,-0.968311071395874,-2.5748870372772217,-0.5163224935531616,1.826861023902893,0.3210676312446594,1.460471749305725,2.484964609146118,0.6559046506881714,-0.48686355352401733,0.6649313569068909,0.33551135659217834,0.05613820254802704,1.0901529788970947,1.0191714763641357,0
178,1779991,-0.026473654434084892,0.03115968033671379,-1.0032713413238525,0.27201512455940247,-0.7026517987251282,0.299132376909256,30.185104370117188,-7.859814167022705,39.47793960571289,-1.0978245735168457,1.0540529489517212,0.17591111361980438,0.422544002532959,0.8031378388404846,-0.005534156691282988,1.6629492044448853,0.2097010463476181,1.2610706090927124,0.9407609701156616,-0.05257748067378998,-0.4022805392742157,0.36998555064201355,-1.2412861585617065,-0.7001423239707947,0
179,1789863,-0.04968894273042679,-0.012164708226919174,-1.0062763690948486,-0.3388655483722687,-0.3417286276817322,-0.32110530138015747,31.611663818359375,-9.504486083984375,38.53815841674805,0.10074275732040405,0.19133922457695007,0.9203245043754578,0.6779483556747437,-1.5417563915252686,-0.1543758064508438,-2.544630765914917,-1.4075337648391724,0.09321441501379013,-0.7029062509536743,0.16093699634075165,0.09441421180963516,0.23365364968776703,1.1813256740570068,-0.7553082704544067,0
180,1799990,-0.07429978251457214,0.05112016201019287,-0.9664928317070007,0.6751249432563782,0.27278876304626465,-0.7463575601577759,31.508392333984375,-11.44967269897461,38.97578430175781,-0.42519065737724304,-0.7052747011184692,1.0927578210830688,-1.0414912700653076,-0.1955307424068451,-0.27239304780960083,0.6671837568283081,0.41359859704971313,0.8008310794830322,0.10488298535346985,-1.067130446434021,1.0184125900268555,0.43129822611808777,0.738304078578949,-0.6742926239967346,0
181,1810068,-0.04552830383181572,0.05643657222390175,-1.0017249584197998,-0.06989813596010208,-0.3184000849723816,0.21435068547725677,29.60357093811035,-9.255819320678711,39.90102767944336,1.1790086030960083,0.3469482362270355,0.5107231140136719,0.16846805810928345,-0.2329270988702774,1.0728760957717896,1.0572010278701782,0.24019040167331696,-0.007595614530146122,-1.1415655612945557,0.04527931660413742,-0.3443925678730011,1.3802907466888428,0.24690401554107666,0.14971254765987396,0
182,1819605,0.0030011446215212345,-0.04449285566806793,-0.9334610104560852,-0.7360597252845764,-0.872995138168335,0.14843349158763885,30.16847801208496,-11.00162410736084,39.34404373168945,0.020748790353536606,-0.15530100464820862,0.6302266716957092,-0.23707669973373413,1.0987147092819214,-0.28081297874450684,0.1055421456694603,2.5991954803466797,1.7482905387878418,-0.2748475968837738,-0.2933993637561798,-0.031225554645061493,-0.0963851660490036,0.9227221012115479,0.9942710995674133,0
183,1829716,-0.00023742525081615895,-0.06765855103731155,-0.988251268863678,0.2116142213344574,0.4937821924686432,-0.23732854425907135,30.66823959350586,-8.231827735900879,39.34176254272461,-0.8018796443939209,-0.20348037779331207,-0.6291796565055847,0.15438394248485565,0.6108217835426331,-0.6572957038879395,0.305819571018219,0.19838714599609375,-0.13281765580177307,0.6188884973526001,0.5766562223434448,-2.951878547668457,-2.2788960933685303,0.01640322618186474,0.018424294888973236,0
184,1839920,-0.05240805447101593,0.033698178827762604,-1.005015254020691,0.6483939290046692,0.016835400834679604,0.2949046194553375,30.112035751342773,-8.95267105102539,40.254844665527344,0.3717026114463806,-0.278733491897583,0.3929755389690399,0.05853235721588135,-0.121364064514637,-0.18586628139019012,-0.6389958262443542,-0.4962080121040344,0.4467562139034271,0.15040737390518188,-1.5969245433807373,-0.6231638193130493,0.544091522693634,0.6297621130943298,-0.846422016620636,0
185,1849987,0.10714881867170334,-0.04448412358760834,-1.008872389793396,-0.4052576720714569,0.14961124956607819,0.8497238755226135,31.666948318481445,-10.901335716247559,39.153358459472656,1.292269229888916,1.1540496349334717,0.9377493262290955,0.02721983753144741,-0.29040050506591797,-1.540997862815857,1.0425838232040405,-1.4607998132705688,-0.4392375349998474,-0.5928118228912354,-1.3869333267211914,0.7502331137657166,-0.4351842701435089,-1.5940526723861694,0.3530590236186981,0
186,1859938,0.11081387102603912,0.00046520534669980407,-0.9863794445991516,0.5945139527320862,0.2351710945367813,0.4560096859931946,29.75459098815918,-9.687759399414062,39.8164176940918,-1.4963648319244385,-0.657419741153717,3.058516502380371,0.33513587713241577,-0.3211076259613037,-0.43165937066078186,0.517854630947113,-2.5635523796081543,0.08397302776575089,-0.27223411202430725,-1.0152177810668945,-0.6712456345558167,-0.9133564233779907,0.509119987487793,-1.9852992296218872,0
187,1869971,0.035230472683906555,-0.04852522909641266,-0.9763117432594299,0.9634071588516235,-0.4335702061653137,0.5578673481941223,30.639188766479492,-11.135540008544922,40.724143981933594,-0.6929629445075989,1.2130916118621826,0.9622536897659302,1.6245793104171753,1.8480286598205566,-0.14063109457492828,-1.028634786605835,0.5713328123092651,0.5037066340446472,0.9701916575431824,-0.8175819516181946,1.3216216564178467,-0.3244169056415558,0.6003389358520508,1.2821568250656128,0
188,1880149,0.06102854385972023,-0.0344296395778656,-0.9875124096870422,-0.7074662446975708,0.2630273699760437,0.5832517743110657,30.354204177856445,-9.79684066772461,41.10699462890625,-0.9278843402862549,-0.6401258707046509,-0.3609992563724518,-2.753041982650757,-1.4564049243927002,-0.6090708374977112,0.4248271882534027,0.4152439534664154,0.06133647263050079,1.9289251565933228,-1.0158542394638062,0.14222563803195953,-0.4131896495819092,0.9867368936538696,-1.5967146158218384,0
189,1889836,0.061314184218645096,0.0661134421825409,-0.9870094656944275,0.2407260239124298,0.6371240019798279,-0.47048553824424744,30.673656463623047,-10.148091316223145,40.1770133972168,-1.479686975479126,-0.4442773461341858,0.34322676062583923,0.9755439758300781,-0.7094820141792297,0.11069977283477783,0.8583833575248718,-2.0089480876922607,0.46203723549842834,-1.200178623199463,-0.47694528102874756,-0.04603918269276619,-0.2639533579349518,2.0874099731445312,0.39413803815841675,0
190,1899995,0.010310152545571327,0.0012302057584747672,-0.9895215630531311,0.17158876359462738,-0.24548907577991486,0.008467541076242924,30.5260066986084,-11.083121299743652,41.426029205322266,-1.1525969505310059,-1.4972329139709473,0.09036198258399963,-1.3664956092834473,1.299960970878601,-0.5697720646858215,-1.136141061782837,-1.1584810018539429,0.8194472193717957,-0.6421833038330078,-1.188576340675354,-0.2563105523586273,1.2910892963409424,-1.27475905418396,1.0800182819366455,0
191,1909667,0.02832072228193283,-0.014653628692030907,-0.9780212640762329,0.3713396191596985,-0.2775031328201294,-0.2521549463272095,28.46428871154785,-9.716756820678711,39.90950012207031,-0.10088922083377838,-0.4179178476333618,-0.1795141100883484,-0.7580340504646301,0.6599401235580444,-1.151387333869934,0.3001854717731476,-0.35605427622795105,-0.31730926036834717,0.8475189805030823,-0.5413398742675781,-1.007164478302002,-0.3628476858139038,-1.9234302043914795,0.04439657926559448,0
192,1919861,0.08227786421775818,0.08024656772613525,-0.999897301197052,0.2725682854652405,0.14762958884239197,-1.438094139099121,31.015827178955078,-9.95959758758545,39.810787200927734,-0.5972164273262024,0.36707746982574463,1.1183005571365356,-1.321236252784729,0.9411598443984985,-2.5000174045562744,-1.6560003757476807,-0.4628791809082031,-2.3074758052825928,0.04109974950551987,-0.31053805351257324,2.003704071044922,0.6897512674331665,0.4525170624256134,-0.7090399265289307,0
193,1929899,-0.0035013589076697826,-0.007243243977427483,-0.9830806851387024,-0.07901598513126373,0.7393283843994141,-0.34342628717422485,30.332595825195312,-9.543702125549316,39.58584213256836,0.00756909279152751,0.3700638711452484,-1.5846728086471558,1.242864966392517,0.8689021468162537,0.3402017652988434,-0.164964959025383,0.19759808480739594,-0.4413765072822571,0.8337860107421875,0.4251426160335541,1.8606449365615845,-2.0693929195404053,0.5227479934692383,0.7228304743766785,0
194,1940008,-0.00717865489423275,-0.04174613207578659,-1.00990891456604,-0.5992040634155273,0.8502623438835144,-0.7562105059623718,29.698686599731445,-10.034729957580566,39.46908950805664,1.7491650581359863,-0.08382828533649445,0.3833775818347931,0.49017632007598877,-0.28602394461631775,-1.1963382959365845,-1.042541742324829,0.5606442093849182,1.0751806497573853,-1.8895200490951538,-1.5908783674240112,1.6478019952774048,-0.10868814587593079,1.9253437519073486,-1.2616244554519653,0
195,1949880,-0.06499730795621872,0.047024715691804886,-1.0020861625671387,0.48153001070022583,0.2667112648487091,-0.19284379482269287,31.263734817504883,-10.761446952819824,39.6303825378418,1.2583903074264526,1.3876463174819946,-0.005212804302573204,-1.6561920642852783,2.975578546524048,0.35202664136886597,1.5859425067901611,-0.8997498750686646,1.0406676530838013,-0.48218169808387756,-1.89669668674469,-2.844939947128296,-0.3559250235557556,-0.6522629261016846,0.12110442668199539,0
196,1959985,0.04059598967432976,-0.02063741348683834,-1.0041898488998413,0.25078269839286804,-0.8434542417526245,0.8899730443954468,30.74471092224121,-9.831380844116211,39.03960037231445,1.3921767473220825,-0.26090261340141296,1.638168454170227,0.15404832363128662,0.7987745404243469,1.7656463384628296,1.3390213251113892,-1.8435291051864624,-0.7366081476211548,0.7095931172370911,-0.02567632682621479,0.6985340118408203,-0.5268844962120056,0.4222047030925751,1.0498005151748657,0
197,1970114,0.050966136157512665,0.025058526545763016,-0.9870414733886719,0.2400563806295395,-0.5514068007469177,0.31812334060668945,29.587066650390625,-11.680784225463867,39.47739028930664,1.314159870147705,0.7929239869117737,1.2592177391052246,-0.15167130529880524,-1.5597597360610962,0.14577098190784454,0.45226672291755676,0.8061698079109192,0.11569247394800186,-1.3084545135498047,-0.5929846167564392,-1.1167553663253784,0.6192122101783752,-0.259364515542984,0.1655033826828003,0
198,1980102,-0.004286631941795349,0.08485162258148193,-1.0080344676971436,-0.3619377911090851,1.0737673044204712,-0.19110195338726044,30.36007308959961,-11.002416610717773,39.96174621582031,0.9125693440437317,0.7634143829345703,-0.004453653935343027,2.3729586601257324,-2.001467704772949,0.7733862400054932,0.1472255438566208,1.370869517326355,0.2840419411659241,0.7024514079093933,1.1394541263580322,0.41747692227363586,-0.3573683500289917,-0.6136718392372131,0.5588549375534058,0
199,1989996,-0.030178243294358253,0.04924159124493599,-1.0248303413391113,0.6573020219802856,0.8156008720397949,0.01947869174182415,30.675416946411133,-11.107170104980469,41.607276916503906,0.701807975769043,-0.5487550497055054,-0.833271324634552,0.6740174293518066,0.9698746800422668,-1.044168472290039,0.12806788086891174,-0.37022843956947327,-1.5563719272613525,-0.4120047688484192,-1.3473892211914062,1.262972354888916,-0.20038241147994995,0.6815908551216125,0.4479776620864868,0
200,1999825,-0.02756413072347641,-0.06375373154878616,-1.0210936069488525,-0.4154253602027893,-0.7487675547599792,0.37667521834373474,30.114089965820312,-9.904404640197754,39.445648193359375,1.799006700515747,-0.8131637573242188,-1.9825791120529175,-0.6221240162849426,-1.5208275318145752,0.4825502038002014,-0.9007845520973206,0.755666196346283,1.3841596841812134,-0.69480961561203,-1.9547407627105713,0.46747148036956787,-0.7370134592056274,-0.6204127669334412,0.42956992983818054,0
201,2009965,0.03295410796999931,0.04107748344540596,-1.0184695720672607,0.5553621053695679,-0.08202306181192398,0.5446903109550476,30.317686080932617,-9.6639986038208,39.25487518310547,1.6251152753829956,-0.10451698303222656,-1.2239220142364502,0.49198535084724426,-0.7000866532325745,1.1099640130996704,-0.4262562096118927,-0.9179225564002991,-0.42932116985321045,-0.11491435766220093,0.873557448387146,-0.3881326913833618,0.9712892770767212,0.22151191532611847,1.3865268230438232,0
202,2019883,0.10313504934310913,0.004274854436516762,-0.9744061827659607,-0.0921366736292839,0.5584763884544373,0.4835655093193054,31.680553436279297,-10.222161293029785,40.264434814453125,-0.9366811513900757,-0.2212243378162384,-0.9076531529426575,0.014187861233949661,-0.7084885835647583,-0.48866963386535645,-0.7551451921463013,0.8767921328544617,-1.0716791152954102,-0.5363870859146118,-1.0434736013412476,1.1484698057174683,-1.5371325016021729,0.5966190099716187,0.011124365031719208,0
203,2030168,-0.023432917892932892,-0.0006898986757732928,-1.0285414457321167,-0.1650548130273819,0.5444011092185974,-0.19848701357841492,31.22400665283203,-9.97189712524414,39.726566314697266,0.8614265322685242,-2.156909704208374,-0.053375642746686935,1.9067164659500122,-1.5414912700653076,0.32014456391334534,0.41328078508377075,-0.6006831526756287,-0.9415556192398071,2.520049571990967,0.17658768594264984,-1.292309284210205,0.780440092086792,0.5595542788505554,2.028987407684326,0
204,2039734,0.015258506871759892,0.05046820268034935,-0.9949315190315247,-0.5860617160797119,0.5747216939926147,0.4659062325954437,28.62862777709961,-10.101744651794434,38.44471740722656,-0.7800362706184387,-1.3612101078033447,-0.4967903196811676,-1.3681200742721558,-0.36129695177078247,-1.0524159669876099,-0.4018319249153137,-0.24029521644115448,0.6878563761711121,-0.027197089046239853,-1.2170233726501465,-0.3918936550617218,1.5333303213119507,0.12879016995429993,-0.2618432343006134,0
205,2050125,-0.042761001735925674,0.0005079586408101022,-0.97941654920578,0.3533918261528015,0.06420896202325821,-1.025968313217163,29.71976661682129,-10.670512199401855,40.58407211303711,1.0827031135559082,0.109405517578125,1.1409986019134521,-0.9525293111801147,0.19973094761371613,-0.7201895117759705,-1.1012301445007324,-1.4563684463500977,-0.7058698534965515,-0.5958210825920105,-0.5030404329299927,-1.7982465028762817,-1.2532985210418701,-0.6562691330909729,0.9830904006958008,0
206,2060124,-0.010039646178483963,-0.005727891344577074,-1.0087673664093018,0.37613561749458313,0.039468295872211456,-0.3268775939941406,31.19297218322754,-10.500174522399902,39.17652893066406,-1.3997321128845215,0.9145963788032532,-1.9534722566604614,1.0048493146896362,-0.42930275201797485,1.2400269508361816,-1.4224363565444946,-0.2570858895778656,0.3588281273841858,0.007419082336127758,1.318862795829773,-0.7335376143455505,-0.9498699903488159,0.5514712929725647,0.8367368578910828,0
207,2070116,0.016572315245866776,-0.08015599101781845,-1.021250605583191,-1.2969419956207275,0.5119550824165344,0.4024907350540161,31.45781135559082,-8.621115684509277,39.93305587768555,-0.19643229246139526,-0.7789373397827148,1.1434581279754639,-1.982447862625122,0.11839175969362259,0.9438653588294983,0.16966556012630463,0.2562502920627594,-1.1011384725570679,-0.3457072973251343,-1.1385096311569214,-1.1676368713378906,1.927648663520813,0.7359856367111206,-0.6484453678131104,0
208,2079795,-0.042709048837423325,-0.011544391512870789,-1.0125808715820312,-0.040491651743650436,-0.7819029092788696,-0.16416281461715698,29.866411209106445,-9.792819023132324,39.195556640625,1.6394920349121094,2.866368532180786,-2.2826101779937744,1.063844919204712,-1.4273086786270142,0.49717187881469727,0.6254042983055115,1.0346777439117432,0.2802620828151703,0.1323908418416977,0.7223261594772339,-1.5586674213409424,1.0444034337997437,-0.2803265452384949,-0.9187931418418884,0
209,2089875,0.05648625269532204,0.05520603433251381,-1.0391875505447388,0.05461805313825607,0.1701202392578125,-0.28512290120124817,30.450332641601562,-9.950756072998047,40.840126037597656,1.3209294080734253,1.0010918378829956,-0.6967095732688904,-0.16415540874004364,-0.44573521614074707,0.7703636288642883,-1.1134352684020996,0.9296367764472961,-0.11889155209064484,-0.9983680844306946,-1.1564116477966309,-2.3240866661071777,0.5100564360618591,-1.5773462057113647,-1.4964475631713867,0
210,2100061,0.14006198942661285,-0.04012380912899971,-0.975963830947876,0.25223633646965027,0.29683634638786316,0.07442460209131241,30.276355743408203,-9.882444381713867,40.45359420776367,1.4100148677825928,-2.3550631999969482,-0.4650368392467499,-0.9367818236351013,-0.6025408506393433,-1.3181031942367554,-1.007546305656433,-0.6116641759872437,0.3564910888671875,2.5975844860076904,-0.481130450963974,0.5868934988975525,0.5075571537017822,-0.00835817027837038,0.8998995423316956,0
211,2109930,0.06012815982103348,-0.007640032097697258,-0.9899104237556458,-0.17676730453968048,-0.5329859256744385,0.6021661758422852,30.219690322875977,-11.156499862670898,40.612491607666016,-0.06617847084999084,0.45876747369766235,0.5943762063980103,-0.9210929274559021,0.6900303959846497,-0.5231338143348694,0.26548391580581665,0.99701988697052,0.6875690817832947,0.5149092674255371,2.5566322803497314,0.5772263407707214,0.5797333121299744,0.6781690120697021,0.7108750343322754,0
212,2120152,0.07310137152671814,-0.05133189260959625,-1.0192455053329468,-0.589098334312439,0.8976779580116272,-0.5214055776596069,28.906021118164062,-8.84543228149414,39.27419662475586,-0.7600818872451782,-0.7521076202392578,0.7649485468864441,-1.3092502355575562,-1.1801058053970337,0.7098344564437866,0.0684836134314537,-0.6809060573577881,-0.11912989616394043,0.03745757043361664,-0.6448408365249634,-0.8876209855079651,0.07351237535476685,0.3813426196575165,-2.1356441974639893,0
213,2130154,-0.0021274476312100887,0.07435866445302963,-1.0003695487976074,-0.1947365701198578,0.1717413067817688,0.23415698111057281,30.16718864440918,-8.62742805480957,38.65483856201172,-0.35614773631095886,-1.3126178979873657,0.801753044128418,0.841309130191803,-0.9466981887817383,1.6488845348358154,-0.8311226963996887,-0.8606665134429932,0.08227674663066864,0.4656868278980255,0.9868670105934143,1.1187044382095337,0.05354674905538559,0.8257858753204346,-0.24424079060554504,0
214,2140045,0.039063747972249985,0.01755426824092865,-0.9691028594970703,0.05601945519447327,-0.2250901162624359,-0.6876981258392334,28.735807418823242,-10.08216381072998,40.713375091552734,-0.13854283094406128,-1.5298357009887695,0.18077121675014496,-0.06711362302303314,-0.1455017775297165,1.0759491920471191,-1.510675311088562,-1.247191071510315,0.8423073887825012,-1.2859364748001099,0.42050477862358093,0.1984935998916626,-0.40681707859039307,0.9841902256011963,1.3462179899215698,0
215,2149864,0.0011341936187818646,0.020462073385715485,-1.0359472036361694,0.030910823494195938,0.9350660443305969,-0.2838907241821289,28.130952835083008,-10.074947357177734,39.729026794433594,-0.2603236436843872,-0.16684749722480774,-0.8843775391578674,1.1163500547409058,1.0800637006759644,0.8655394315719604,0.15529997646808624,0.2760453224182129,1.2803336381912231,0.73784339427948,0.8480289578437805,-1.0709816217422485,2.6408793926239014,2.2748777866363525,0.5295554399490356,0
216,2160007,0.00015135391731746495,-0.07560332864522934,-0.9695678353309631,1.3555740118026733,-0.7332822680473328,0.4724682569503784,30.361724853515625,-10.536213874816895,38.4867057800293,-0.24293527007102966,1.5815614461898804,-1.2121858596801758,0.10919903218746185,0.46161553263664246,-1.138869047164917,0.8730571269989014,-0.10854324698448181,-0.09537474066019058,0.8379893898963928,1.4888242483139038,1.1163437366485596,0.14153586328029633,-0.3760881721973419,-0.8239462971687317,0
217,2170056,-0.019187157973647118,-0.01898489147424698,-0.9611210227012634,0.06964293867349625,0.1377566009759903,0.32314130663871765,30.034088134765625,-10.631519317626953,40.8821907043457,0.05900075286626816,-0.6227230429649353,0.8642627000808716,0.8051230907440186,1.3126893043518066,-1.0984110832214355,0.23435182869434357,0.16009682416915894,0.6311777234077454,-2.0255050659179688,-0.5080824494361877,-0.12427512556314468,2.2736990451812744,-0.24415144324302673,0.2615497410297394,0
218,2180106,-0.03318219631910324,-0.047725874930620193,-1.0142388343811035,0.030017485842108727,-0.4346480667591095,0.2354574352502823,29.352136611938477,-9.35644817352295,39.453369140625,0.6032671332359314,-2.093858480453491,-1.8732033967971802,1.5726670026779175,0.7137756943702698,0.35539162158966064,-0.13575106859207153,0.4942091703414917,1.9592581987380981,0.8371352553367615,-0.7003529667854309,1.0939692258834839,0.13325618207454681,1.3805413246154785,-0.7508721351623535,0
219,2189644,0.13335669040679932,-0.02703048102557659,-0.9854255318641663,-0.17992821335792542,0.4455849528312683,0.5594381093978882,30.469608306884766,-11.373590469360352,39.7894287109375,-0.4121452867984772,2.0585994720458984,-0.06245048716664314,1.3384865522384644,-1.8764991760253906,0.29516634345054626,0.11964619159698486,-1.15030038356781,1.0764156579971313,-3.126692533493042,0.05260622128844261,-1.2831310033798218,-1.366003394126892,1.1966480016708374,1.04554283618927,0
220,2199970,-0.03920929133892059,0.09152135998010635,-0.9907174110412598,0.4485437273979187,-0.12365245819091797,-0.8714182376861572,30.978084564208984,-9.911309242248535,39.005470275878906,0.6486102342605591,-0.5216472744941711,-0.9799031615257263,0.9161785244941711,0.2706126570701599,0.7654502987861633,-0.28535693883895874,1.2950717210769653,-1.2405345439910889,1.8798717260360718,-1.20477294921875,0.8279522061347961,-1.0507901906967163,0.5058154463768005,-0.5377960801124573,0
221,2210298,0.010791878215968609,0.04258827492594719,-1.0089917182922363,0.34616175293922424,0.4880020022392273,0.19558113813400269,31.09661293029785,-8.2471284866333,40.7579460144043,-1.5526092052459717,-0.7283121943473816,0.7594214677810669,-1.4505878686904907,0.6010067462921143,1.7348814010620117,-0.4890221953392029,-0.17940355837345123,-1.5374352931976318,-0.41111186146736145,1.3163009881973267,1.5100643634796143,0.45769762992858887,-1.413094401359558,0.2116071581840515,0
222,2219949,0.09263718128204346,0.05670742690563202,-1.0107910633087158,-0.2304810732603073,-0.11447876691818237,0.11766675114631653,30.367359161376953,-11.55474853515625,39.78773880004883,-0.5276796221733093,1.6972559690475464,-1.436265468597412,-1.2157238721847534,0.35651469230651855,1.0240988731384277,1.294193148612976,-1.1568214893341064,-0.9798758625984192,-0.22511877119541168,0.42388981580734253,-1.0608831644058228,0.12338859587907791,0.05404161661863327,1.602378487586975,0
223,2230098,-0.062203068286180496,-0.03590812161564827,-1.0164233446121216,0.609957218170166,-0.4116589426994324,-0.08467837423086166,29.35451889038086,-8.333617210388184,41.695106506347656,0.7983773350715637,-0.8158671855926514,0.15825998783111572,0.9854626655578613,-0.4740118980407715,0.029584338888525963,-0.9780739545822144,-0.6801417469978333,-1.58668053150177,0.23570901155471802,0.39458709955215454,-0.9537810683250427,-1.6815147399902344,-0.21662753820419312,-1.4746867418289185,0
224,2240110,-0.007771819364279509,0.027816543355584145,-1.0131499767303467,0.40128955245018005,-0.27287259697914124,0.5287837982177734,29.658098220825195,-9.308719635009766,40.45106506347656,-0.5359205007553101,0.2339760959148407,1.2501622438430786,0.7268950343132019,-1.3432613611221313,0.21610280871391296,-2.0755774974823,-1.3500722646713257,-0.575310230255127,0.486335813999176,-0.7516616582870483,-0.5076572299003601,-1.5359890460968018,-0.5009951591491699,-0.30122384428977966,0
225,2249929,0.041051462292671204,-0.0011788301635533571,-0.9928324818611145,-0.5699542164802551,-0.32287612557411194,0.1190486028790474,30.235633850097656,-10.769156455993652,41.10383605957031,-0.8070268630981445,0.5937685966491699,-2.3301281929016113,-0.43935471773147583,-0.695777952671051,0.9353523254394531,-0.032175641506910324,-0.13856583833694458,-0.7474978566169739,-1.2570209503173828,1.6012845039367676,0.6057854890823364,-0.8778339624404907,0.24979278445243835,-0.6867386698722839,0
226,2260254,0.08131222426891327,-0.02663630060851574,-0.9971625804901123,0.5680761337280273,0.9273662567138672,0.08071419596672058,30.60492706298828,-8.500068664550781,39.773250579833984,0.785717248916626,1.5420310497283936,0.3494700491428375,-0.7770767211914062,-1.1201685667037964,2.108187675476074,0.4292289614677429,-1.9336329698562622,1.1464893817901611,1.5999159812927246,-0.15970511734485626,-1.3006372451782227,0.06883855909109116,0.23788845539093018,0.6715588569641113,0
227,2270006,-0.0743168368935585,-0.08100538700819016,-0.9988773465156555,0.3274855315685272,-0.24265320599079132,0.0010118784848600626,29.847389221191406,-9.503519058227539,40.29952621459961,-0.261747807264328,1.3453902006149292,0.09737361967563629,0.6249479651451111,1.0461921691894531,1.0958054065704346,-0.9077014327049255,-0.5838784575462341,-0.20363374054431915,0.38215360045433044,0.348004549741745,0.6440344452857971,0.45499688386917114,-0.07362452149391174,0.7505004405975342,0
228,2280211,-0.001240319455973804,0.004012258257716894,-1.0008152723312378,-1.326072335243225,-0.01957746408879757,-0.2480406016111374,29.486116409301758,-10.830693244934082,40.96821594238281,0.40015020966529846,0.2337125986814499,-0.6839190125465393,-0.12769202888011932,1.137848138809204,0.2423713505268097,-0.8510839343070984,0.2293875813484192,-0.04022260382771492,0.18724119663238525,1.6298937797546387,-1.5317093133926392,-0.39937254786491394,0.9576326012611389,0.09748076647520065,0
229,2289796,-0.02431323379278183,-0.026024537160992622,-1.0290675163269043,-0.3071145713329315,0.3585650324821472,-0.19318318367004395,30.307138442993164,-9.774611473083496,39.02278137207031,0.17676469683647156,-1.4678605794906616,-1.2658743858337402,0.22932836413383484,-1.5542703866958618,-0.47011831402778625,-0.26501980423927307,-0.2413034290075302,0.429445743560791,0.08329398185014725,0.18866653740406036,0.5261663794517517,0.6783393025398254,1.3419793844223022,1.0745846033096313,0
230,2300114,0.08416511118412018,0.09101966768503189,-0.9927806854248047,1.2148277759552002,-0.011301939375698566,-0.31370314955711365,31.16240882873535,-8.874412536621094,39.76349639892578,0.9286842942237854,0.12220118194818497,-0.26268792152404785,-0.5504007339477539,-1.7965137958526611,-0.8118634819984436,-1.1736326217651367,-0.1401478499174118,-0.7523977756500244,-1.1842796802520752,1.1608972549438477,0.07289841026067734,-0.3757553994655609,-0.48151013255119324,-0.019652297720313072,0
231,2310041,-0.018055345863103867,-0.049510657787323,-0.9981083273887634,-0.253595769405365,0.7493361234664917,0.5491713285446167,29.315753936767578,-10.09051513671875,39.013484954833984,0.5101128816604614,1.1068710088729858,-0.3846595883369446,-0.2820114493370056,-0.625132143497467,-0.5224525332450867,-0.7655872702598572,1.3480937480926514,0.6787912845611572,1.5889170169830322,0.451112300157547,-0.21792273223400116,-0.690182089805603,0.7369025945663452,1.719087839126587,0
232,2319807,-0.05498362332582474,-0.11362989991903305,-1.0061908960342407,0.7665538191795349,-0.6272882223129272,-0.33016055822372437,30.54926872253418,-8.166805267333984,37.88521957397461,0.6686097383499146,-1.8143818378448486,0.8500095009803772,-0.9100571870803833,-0.85932856798172,-0.5974797010421753,-0.8590691089630127,-1.2301433086395264,-1.0574009418487549,1.1895649433135986,-1.299869179725647,1.0897215604782104,0.9155576825141907,-0.014155002310872078,1.0366657972335815,0
233,2330072,0.014943471178412437,0.12839001417160034,-1.0103557109832764,0.04809986427426338,0.02237848751246929,-0.35986462235450745,29.537656784057617,-9.45993709564209,39.765018463134766,-0.4109632968902588,1.6913154125213623,0.14063723385334015,2.4284496307373047,-0.7072920203208923,-0.43392127752304077,-2.3637030124664307,-0.41395244002342224,0.4289233982563019,-0.1898493617773056,-0.17264917492866516,-0.041459035128355026,-1.2573472261428833,-1.0126525163650513,-0.5411996245384216,0
234,2340257,-0.040093857795000076,-0.009833056479692459,-0.989208459854126,-0.19308429956436157,0.4577912986278534,0.8179529309272766,30.715087890625,-9.30631160736084,40.587066650390625,1.7746633291244507,0.1607227474451065,-0.7307619452476501,-0.0841841995716095,-1.348258376121521,-0.08893091231584549,0.21036234498023987,-0.37946778535842896,2.294654130935669,-0.7180196642875671,1.5561282634735107,1.8882784843444824,0.9882768988609314,1.1342450380325317,-1.4011659622192383,0
235,2349942,0.05326751247048378,0.0012429718626663089,-0.9985252618789673,-0.255430668592453,1.0144444704055786,-0.18529458343982697,29.079570770263672,-9.777305603027344,39.21636962890625,1.3569921255111694,0.781844973564148,-0.4478958249092102,-0.21420396864414215,0.13330276310443878,-0.0626126080751419,-0.29888495802879333,0.3715444505214691,1.2756682634353638,-0.4190210998058319,-1.3113844394683838,-1.4259474277496338,2.27780818939209,-1.1896957159042358,0.09712452441453934,0
236,2360030,0.10367147624492645,-0.0020099375396966934,-0.9813050031661987,-0.43769893050193787,0.8731123805046082,-0.3255617618560791,29.45961570739746,-11.192280769348145,38.66220474243164,-1.7425340414047241,-1.4615085124969482,-0.6765971183776855,0.2852717339992523,-1.3439489603042603,1.2541226148605347,0.2565048933029175,1.2342101335525513,-0.08561565726995468,-1.059381365776062,-0.20038121938705444,-0.02903561480343342,0.46892231702804565,-0.24259863793849945,1.6338505744934082,0
237,2369953,-0.027873482555150986,0.04266449064016342,-0.9776581525802612,0.022132424637675285,-0.0035169189795851707,0.6429718136787415,29.8814754486084,-10.723320007324219,40.63528060913086,2.0340397357940674,-1.1597633361816406,1.1963800191879272,0.9974445700645447,0.5452592968940735,1.6099960803985596,-0.6004086136817932,-0.5783784985542297,-0.42942413687705994,0.004066836088895798,0.4817045032978058,-0.5037453770637512,1.239090085029602,-0.24661563336849213,-0.22561250627040863,0
238,2380166,-0.005506371613591909,-0.003108308184891939,-1.0039578676223755,-0.10414183884859085,-0.462471067905426,0.11762412637472153,27.891998291015625,-9.489538192749023,40.183406829833984,1.3295701742172241,-0.9886186122894287,-0.19255627691745758,0.6424763798713684,-1.3596887588500977,1.030291199684143,-0.15203142166137695,-1.8596735000610352,1.974853515625,0.8078941702842712,1.5682406425476074,0.2018459439277649,-0.6934216022491455,1.084079623222351,-0.6744011044502258,0
239,2390055,0.0723288431763649,-0.004460794851183891,-1.0130982398986816,0.7337923049926758,-0.6081737875938416,-0.2450934648513794,29.164173126220703,-8.563258171081543,39.12312316894531,0.8416950702667236,0.00050656235544011,-0.3182103633880615,0.2257126271724701,0.7738473415374756,1.614374041557312,1.15860116481781,-0.3370414972305298,-0.46028414368629456,0.4918912947177887,-0.5670512318611145,-0.5394408702850342,-1.1869839429855347,0.7555474638938904,-1.0866106748580933,0
240,2400150,-0.004309759475290775,-0.062377698719501495,-1.0009130239486694,-0.14371168613433838,0.1341390609741211,0.7192077040672302,29.689233779907227,-10.119564056396484,39.918365478515625,0.7212327122688293,0.595363974571228,-0.698065459728241,-0.1423005610704422,1.2333557605743408,2.1773762702941895,-2.6793859004974365,0.7382215857505798,1.0237468481063843,0.060206279158592224,1.144003987312317,0.23462440073490143,0.24861061573028564,-0.6128354668617249,0.4859692454338074,0
241,2410049,0.033455196768045425,-0.028804389759898186,-1.0241652727127075,-0.5969313979148865,-0.02229522541165352,0.42244815826416016,29.962915420532227,-9.650809288024902,39.635807037353516,0.5636598467826843,0.24292293190956116,-1.0611512660980225,-0.8873353004455566,1.032455563545227,0.7701241970062256,0.14623531699180603,1.118703007698059,1.1172451972961426,0.6714474558830261,-0.15675628185272217,-0.3266696631908417,-0.6972023844718933,-0.3180297315120697,0.32281795144081116,0
242,2419973,-0.05865867808461189,0.050817154347896576,-0.981051504611969,-0.13195839524269104,0.016764188185334206,0.6973326206207275,29.707304000854492,-9.417569160461426,40.24546432495117,-1.4560260772705078,-2.378089666366577,-0.23610977828502655,-2.0105621814727783,0.5580283403396606,-1.4642598628997803,0.7218607664108276,-1.2389414310455322,1.1249667406082153,0.46687421202659607,0.06150655075907707,-0.3463381826877594,-0.5036660432815552,0.4864230453968048,0.8871781229972839,0
243,2429877,-0.08361061662435532,0.04404058679938316,-0.9678838849067688,-0.6353456377983093,0.18320325016975403,0.07174932211637497,31.06393051147461,-9.665363311767578,40.31623840332031,-1.039202094078064,-0.06304309517145157,1.3439644575119019,-0.48530223965644836,2.576983690261841,0.7130699157714844,-1.3384791612625122,0.34789133071899414,-1.1290357112884521,-0.11208866536617279,1.0787262916564941,-0.16636712849140167,-1.8632152080535889,-1.2232152223587036,-1.5759063959121704,0
244,2439926,0.03022604249417782,-0.06878878176212311,-0.9879652261734009,0.26134026050567627,-0.5987847447395325,-0.2853667736053467,30.575149536132812,-9.523452758789062,39.02228927612305,1.0004494190216064,0.5316503047943115,0.8528748154640198,0.09080337733030319,-0.9138992428779602,0.38345974683761597,0.4546792805194855,0.30894583463668823,0.5022941827774048,-1.5703177452087402,2.140489339828491,0.7091428637504578,0.6103569269180298,-1.6020338535308838,-0.13226483762264252,0
245,2449946,-0.08685755729675293,0.08940161019563675,-1.0093008279800415,0.6445968151092529,-0.5532222390174866,0.6977686285972595,31.039819717407227,-9.963623046875,40.54267883300781,0.4771532416343689,-1.4380525350570679,-1.2325514554977417,-0.50871741771698,0.34866636991500854,-1.950249195098877,1.0672134160995483,1.0290088653564453,1.06167733669281,-0.8175083994865417,-0.9769992232322693,-0.47624820470809937,0.41173532605171204,-0.49629610776901245,0.20576031506061554,0
