seq,time_us,ax,ay,az,gx,gy,gz,mx,my,mz,roll_gyro,pitch_gyro,yaw_gyro,roll_cf,pitch_cf,yaw_cf,roll_ekf,pitch_ekf,yaw_ekf,roll_madgwick,pitch_madgwick,yaw_madgwick,roll_mahony,pitch_mahony,yaw_mahony,drop_flag
0,0,0.011643086560070515,-0.06749650090932846,-1.02069890499115,-0.3335241973400116,0.6130866408348083,-0.36352285742759705,29.608020782470703,-10.357746124267578,39.03805923461914,0
1,10038,0.05650709569454193,0.03598031401634216,-1.007398009300232,-0.23051317036151886,-0.3014196455478668,-0.9635289311408997,30.468957901000977,-8.366915702819824,40.80506134033203,0
2,19907,0.06073347106575966,-0.06924225389957428,-0.9836094975471497,0.45801618695259094,-0.18323396146297455,0.279029905796051,30.624242782592773,-8.947721481323242,39.274410247802734,0
3,30102,-0.026996370404958725,0.00747913820669055,-0.9911097884178162,-0.29095259308815,0.004681366961449385,-0.7367807030677795,30.898775100708008,-8.404231071472168,40.65605163574219,0
4,39766,-0.012045308947563171,-0.04070960730314255,-1.0277122259140015,0.7683444023132324,-0.2812364101409912,0.02272595837712288,29.130985260009766,-10.388442993164062,41.35349655151367,0
5,50195,0.036973126232624054,0.012791936285793781,-1.0066453218460083,-0.64643394947052,0.6528422236442566,0.6766163110733032,30.58469009399414,-10.059136390686035,40.98952102661133,0
6,60021,0.08991297334432602,-0.010101393796503544,-0.9983720183372498,0.21251483261585236,-0.8650286793708801,-0.09997280687093735,30.261608123779297,-9.866085052490234,39.95332717895508,0
7,69886,-0.04809699207544327,-0.04481857642531395,-1.0289579629898071,0.1286437064409256,-1.203391671180725,-0.4414479732513428,30.872365951538086,-9.933265686035156,40.56446838378906,0
8,80107,-0.03307382017374039,0.12699879705905914,-1.0461866855621338,0.31894752383232117,-0.8614201545715332,0.3988817036151886,30.584808349609375,-9.889012336730957,40.15214920043945,0
9,90181,-0.02853299491107464,-0.059952545911073685,-0.9850713014602661,0.29160699248313904,0.14362704753875732,0.2784186899662018,29.3275089263916,-10.429011344909668,39.48173141479492,0
10,99975,0.034678708761930466,-0.07950260490179062,-1.0172960758209229,0.3870571255683899,0.06844186782836914,-0.5283535718917847,29.508769989013672,-10.314769744873047,40.00447082519531,0
11,109992,5.558697012020275e-05,0.0439533032476902,-1.0080974102020264,0.22335177659988403,0.15523073077201843,0.4444087743759155,30.92098617553711,-10.393054962158203,38.227699279785156,0
12,120026,-0.05425945669412613,0.030878646299242973,-1.0307427644729614,0.22891324758529663,-0.6614109873771667,-0.4227529764175415,30.544395446777344,-11.036988258361816,39.44837188720703,0
13,129838,-0.03664707764983177,-0.01743428036570549,-0.9823138117790222,-0.08249405026435852,-0.2756832540035248,0.3527401387691498,29.967926025390625,-8.793611526489258,40.977333068847656,0
14,140044,-0.00020079089154023677,-0.05566489323973656,-0.9816395044326782,-0.23485593497753143,0.42052358388900757,0.17835481464862823,30.51875114440918,-9.145247459411621,38.39260482788086,0
15,149752,-0.002741475123912096,0.007956603541970253,-0.9820315837860107,0.8567640781402588,0.14745599031448364,-0.20241287350654602,30.14910888671875,-11.123438835144043,39.412315368652344,0
16,159898,0.023324983194470406,-0.009500124491751194,-0.9905790090560913,0.5731328129768372,-0.2614321708679199,-0.14277157187461853,29.751575469970703,-12.412693977355957,39.649940490722656,0
17,170038,0.039989400655031204,-0.01894133910536766,-1.0095341205596924,-0.8235147595405579,-0.7986254692077637,0.37189680337905884,29.374269485473633,-10.62456226348877,40.981666564941406,0
18,179919,0.07160317152738571,0.07667221873998642,-1.0014022588729858,-0.7111949920654297,-0.46891626715660095,0.11385829746723175,30.223608016967773,-10.942678451538086,39.98933029174805,0
19,190217,-0.029914209619164467,-0.013179074041545391,-1.0193580389022827,-0.2907719016075134,-0.43567952513694763,0.2637265920639038,29.916309356689453,-8.9833402633667,41.90626525878906,0
20,200205,-0.029369419440627098,0.02014126442372799,-0.9916020035743713,0.9233936667442322,-0.5789919495582581,-0.309396892786026,29.605812072753906,-11.092777252197266,39.74153518676758,0
21,209702,-0.01362115703523159,0.06373609602451324,-1.0009276866912842,0.3093627989292145,0.435672402381897,-0.4810308516025543,29.31047248840332,-11.802640914916992,38.700836181640625,0
22,220132,-0.10887313634157181,-0.043566931039094925,-0.9945051670074463,-0.06466984748840332,-0.7439107298851013,0.08724024891853333,30.791057586669922,-9.72741985321045,40.4389762878418,0
23,229732,0.00443344796076417,0.027306191623210907,-0.9811009168624878,0.023801982402801514,0.31148651242256165,-0.14812876284122467,28.70965003967285,-10.705355644226074,39.46826934814453,0
24,240161,0.009696130640804768,0.0036655489820986986,-0.9912516474723816,-0.18356956541538239,-0.3743804395198822,0.06714429706335068,29.646892547607422,-8.612051010131836,39.375160217285156,0
25,249814,-0.02407618798315525,-0.004271510057151318,-1.0330675840377808,-0.15134119987487793,-0.6259763836860657,-0.3057605028152466,29.245607376098633,-8.488143920898438,40.54079818725586,0
26,259659,0.04843241721391678,0.02439826726913452,-0.9929847121238708,-0.5091021656990051,-0.5378386378288269,-0.4201546609401703,31.14325523376465,-10.179121017456055,39.94401168823242,0
27,269935,0.06560160219669342,0.023212213069200516,-0.9988182187080383,-0.23295854032039642,-0.843336820602417,0.28196921944618225,28.20563507080078,-9.699893951416016,38.91560363769531,0
28,280352,0.011693768203258514,0.025080643594264984,-0.9856063723564148,0.3204721510410309,-0.483959436416626,0.07800787687301636,28.551063537597656,-9.068766593933105,41.23649978637695,0
29,289854,-0.03424055874347687,-0.0023609804920852184,-1.015952467918396,0.5048200488090515,0.7768785953521729,-0.5380532741546631,28.77668571472168,-8.635539054870605,39.5254020690918,0
30,300038,0.012583432719111443,-0.028263891115784645,-0.9892330169677734,-0.607616662979126,0.1475476622581482,0.5784942507743835,30.41016960144043,-11.044953346252441,39.806766510009766,0
31,310134,-0.01117707323282957,0.07091935724020004,-0.9842400550842285,0.5898340344429016,-0.20832858979701996,-0.47850069403648376,29.16286277770996,-11.041431427001953,41.242069244384766,0
32,319944,-0.07065079361200333,0.00830467976629734,-1.0157277584075928,-0.013913189060986042,1.0209808349609375,-0.7019957900047302,31.501916885375977,-10.25098705291748,40.916934967041016,0
33,329957,-0.014493723399937153,-0.015528175048530102,-0.9734075665473938,0.3799299895763397,0.18280372023582458,-0.015926683321595192,27.6500244140625,-10.205513000488281,39.24576950073242,0
34,339915,-0.024006761610507965,0.011152338236570358,-0.9887178540229797,-0.2618141770362854,0.23469068109989166,-0.3651902377605438,28.35511016845703,-10.597167015075684,39.742435455322266,0
35,349990,0.05691882595419884,-0.03761853650212288,-0.9998399019241333,-0.16007350385189056,0.39627501368522644,0.21682292222976685,31.152578353881836,-10.151291847229004,40.49662780761719,0
36,360199,0.05257006362080574,0.04367836192250252,-1.0104954242706299,0.20417281985282898,-0.7635242342948914,0.03804559260606766,29.791893005371094,-10.851741790771484,39.29578399658203,0
37,369958,-0.07791789621114731,-0.01823159120976925,-0.9773167967796326,-0.0655282586812973,-0.4796198606491089,0.5058435797691345,31.597637176513672,-10.938812255859375,39.996891021728516,0
38,379843,0.029264073818922043,-0.04314050078392029,-0.9863677620887756,0.6185309290885925,0.3828374445438385,-0.14798462390899658,30.040700912475586,-10.370485305786133,41.077022552490234,0
39,390235,-0.05863923579454422,0.04891447722911835,-1.0216290950775146,0.11663991957902908,-0.27077656984329224,-0.11177413910627365,29.95846176147461,-10.149468421936035,39.36453628540039,0
40,399914,-0.05176657438278198,-0.04307873547077179,-1.0257703065872192,-0.6148160696029663,-0.11016906797885895,-0.28625643253326416,29.572294235229492,-10.217026710510254,39.762725830078125,0
41,409814,0.001717503648251295,0.022967422381043434,-0.9925643801689148,0.4085453450679779,0.2031998336315155,0.021492211148142815,30.13505744934082,-10.518339157104492,39.161827087402344,0
42,419859,0.034390658140182495,0.01129746064543724,-0.9808531999588013,-1.0219289064407349,-0.186659574508667,-1.0094718933105469,32.25682067871094,-11.142156600952148,40.362735748291016,0
43,429885,-0.04552096128463745,-0.04926689714193344,-1.04464852809906,-0.02721787616610527,-0.3379405438899994,0.22099292278289795,30.330162048339844,-9.951861381530762,37.87921142578125,0
44,440166,0.011512539349496365,0.09468528628349304,-1.0375221967697144,-0.7671371102333069,-0.48752737045288086,0.07551813125610352,31.442262649536133,-9.364967346191406,38.81025695800781,0
45,449945,0.0066645266488194466,-0.007692147511988878,-1.0120426416397095,0.0032709611114114523,-0.051340002566576004,-0.11946526914834976,28.70660400390625,-9.493659973144531,40.37071228027344,0
46,459998,-0.02274775505065918,-0.0641966164112091,-1.0092426538467407,-0.03168680518865585,-0.14829175174236298,0.5556038618087769,30.36566162109375,-10.83387565612793,38.69887161254883,0
47,470083,0.06523393839597702,0.1026453971862793,-1.0107479095458984,0.20623716711997986,0.0647924542427063,0.3532989025115967,31.316312789916992,-10.180244445800781,40.961883544921875,0
48,480063,0.01802436076104641,-0.0048831491731107235,-1.016958236694336,0.3457096517086029,0.23650617897510529,0.825078547000885,32.50656509399414,-10.679720878601074,39.579586029052734,0
49,489973,-0.06715971231460571,-0.016719935461878777,-0.9796034693717957,-0.4000575840473175,0.1387273222208023,0.5841496586799622,31.49118423461914,-11.949416160583496,39.579925537109375,0
50,499948,-0.0027615774888545275,-0.004432469606399536,-1.0439523458480835,-0.3502885103225708,-0.44775375723838806,-0.763264536857605,30.902360916137695,-11.750547409057617,40.94881820678711,0
51,509695,-0.0021214159205555916,-0.04852516949176788,-1.04521906375885,-0.2021193504333496,0.45205920934677124,-0.33022618293762207,29.472742080688477,-9.402667999267578,40.474708557128906,0
52,519880,0.08217921108007431,0.04446064308285713,-0.9966393113136292,-0.5026220679283142,0.0669994130730629,0.06880003958940506,29.130489349365234,-10.798263549804688,40.404483795166016,0
53,529902,-0.06902831792831421,-0.01715061441063881,-0.9625344276428223,0.5681335926055908,0.6740258932113647,0.02947818860411644,29.018291473388672,-10.19199275970459,38.39442825317383,0
54,539972,0.02046814002096653,0.017718827351927757,-0.9996111392974854,-0.42018407583236694,0.15395773947238922,0.3972610831260681,31.27927589416504,-11.192962646484375,41.15205764770508,0
55,550046,-0.01493240799754858,-0.05027388036251068,-0.9974576830863953,0.12699125707149506,0.2301938235759735,0.15471509099006653,30.25190544128418,-11.841355323791504,39.630401611328125,0
56,560001,-0.10452020913362503,0.021498586982488632,-1.028902292251587,0.596473753452301,-0.8013283014297485,0.13352057337760925,29.491531372070312,-10.639164924621582,40.91790771484375,0
57,569877,-0.03118814341723919,-0.04419846460223198,-0.998588502407074,-0.4663597345352173,-0.23011375963687897,-0.8555819392204285,30.489151000976562,-10.851713180541992,39.73301696777344,0
58,580138,-0.04570408910512924,0.018063701689243317,-0.9786733388900757,-0.09521909803152084,-0.2334657460451126,-0.11938849091529846,31.11603355407715,-10.983914375305176,38.24785614013672,0
59,589986,0.06678272038698196,0.0025417383294552565,-0.9926642179489136,0.1958024799823761,-0.15511035919189453,0.36088070273399353,29.411664962768555,-9.228412628173828,40.669403076171875,0
60,599929,-0.027985794469714165,-0.034188877791166306,-0.9917086958885193,0.1509518176317215,0.5211343765258789,-1.3132140636444092,29.441457748413086,-10.315027236938477,39.82734680175781,0
61,610306,-0.07491359114646912,0.0027098453138023615,-0.998902440071106,0.11952468007802963,0.31488391757011414,-0.8040620684623718,30.447338104248047,-9.746685028076172,38.626712799072266,0
62,619621,0.02217159979045391,0.04743190482258797,-0.9810442924499512,-0.07619926333427429,-0.20393362641334534,0.997488796710968,29.58854866027832,-11.401792526245117,41.4515380859375,0
63,629952,-0.024436963722109795,-0.06601783633232117,-0.9890639781951904,1.0654644966125488,-0.3456006646156311,0.07897529751062393,30.403038024902344,-9.804115295410156,41.1025390625,0
64,640126,-0.04553111642599106,0.007818173617124557,-0.9836352467536926,-0.4918079376220703,0.3428362011909485,-0.17746800184249878,29.96165657043457,-11.067956924438477,38.930335998535156,0
65,649868,-0.012089037336409092,-0.09086231142282486,-1.0346132516860962,-0.2725512683391571,-0.315032958984375,-0.20208200812339783,29.02327537536621,-9.993569374084473,39.845947265625,0
66,660000,-0.06170102581381798,0.028653714805841446,-1.0039900541305542,-0.12758347392082214,-0.7723566293716431,-0.6750989556312561,27.984485626220703,-9.766597747802734,39.45189666748047,0
67,669918,0.02418414130806923,0.05266788229346275,-1.0247701406478882,0.48230648040771484,0.006635271478444338,0.23873208463191986,29.263622283935547,-10.818196296691895,40.89320373535156,0
68,679977,-0.009339774027466774,-0.023401981219649315,-1.0067771673202515,-0.4331980049610138,-0.13021866977214813,-0.5212304592132568,29.682252883911133,-8.02245807647705,36.534210205078125,0
69,690047,-0.0048380764201283455,0.015861818566918373,-0.9858497977256775,-0.6837682127952576,-0.025501837953925133,0.230933278799057,30.029653549194336,-10.202441215515137,40.441200256347656,0
70,700219,-0.04874013364315033,-0.004948947578668594,-0.9739714860916138,0.64382404088974,-0.38762202858924866,1.6073583364486694,30.19586753845215,-12.69472885131836,39.64615249633789,0
71,710080,-0.03381350263953209,0.043666936457157135,-1.0079731941223145,-0.16633445024490356,-0.06083778664469719,0.16550865769386292,29.02979850769043,-10.231668472290039,40.30168151855469,0
72,720006,-0.011655529960989952,0.006647712551057339,-0.9890691637992859,-0.10245829820632935,0.8284155130386353,0.987848162651062,29.42790412902832,-8.68666934967041,41.62507629394531,0
73,729754,0.050669360905885696,-0.1077800840139389,-1.019852876663208,-0.5337560772895813,0.8057084679603577,0.0606752373278141,30.20048713684082,-8.772929191589355,40.05804443359375,0
74,740083,0.046545837074518204,-0.027984468266367912,-0.9777591228485107,-0.38165217638015747,0.07260410487651825,-0.46183857321739197,30.181230545043945,-7.405243396759033,40.27793502807617,0
75,750206,-0.014401277527213097,0.02118145488202572,-1.0073262453079224,0.4962173402309418,0.05510601028800011,-0.8654873967170715,29.902647018432617,-9.356179237365723,41.22211456298828,0
76,760085,-0.03716868534684181,0.039032232016325,-1.0090807676315308,-0.3733513355255127,0.21559572219848633,0.7041197419166565,28.864959716796875,-9.825294494628906,40.16108322143555,0
77,769797,-0.0400303453207016,0.05243837088346481,-1.0103684663772583,0.16287359595298767,-0.43093711137771606,-0.39907559752464294,29.41054344177246,-9.009344100952148,39.81304931640625,0
78,779822,-0.057346124202013016,0.058131929486989975,-1.0584295988082886,0.8285820484161377,-0.2508118748664856,0.5568442940711975,31.067052841186523,-11.769391059875488,40.46318435668945,0
79,789667,0.03339911624789238,-0.011013208888471127,-1.0464168787002563,-0.954767644405365,0.49669840931892395,-0.5436652302742004,31.318159103393555,-9.930569648742676,39.6183967590332,0
80,800058,0.028564222157001495,0.012043721973896027,-1.0195645093917847,0.7015671730041504,-0.031287334859371185,0.40916958451271057,31.814743041992188,-10.536820411682129,40.90691375732422,0
81,810162,-0.013659194111824036,-0.05198650807142258,-1.022729516029358,-1.0315593481063843,0.26091107726097107,-0.8701879978179932,30.841293334960938,-9.399836540222168,41.042724609375,0
82,819620,-0.014159859158098698,-0.04008417949080467,-0.9806393980979919,-0.4028788208961487,-0.22914999723434448,-0.37294939160346985,30.564044952392578,-11.863770484924316,41.075748443603516,0
83,829952,-0.004162706434726715,-0.003966528922319412,-1.0548738241195679,-0.7207126021385193,0.7674544453620911,-0.10763701051473618,28.562881469726562,-8.554220199584961,41.16442108154297,0
84,840013,0.05088067054748535,-0.030443277209997177,-1.0000582933425903,0.28496232628822327,-0.516344428062439,0.44680169224739075,29.666440963745117,-9.86555290222168,41.06222152709961,0
85,850164,-0.09498143941164017,-0.054200634360313416,-1.0124050378799438,-0.2996506094932556,0.1277080774307251,-0.47495850920677185,29.724992752075195,-11.70893669128418,40.33069610595703,0
86,860192,0.05811412259936333,-0.005022791214287281,-0.9792439341545105,-0.9091752767562866,-0.1647774875164032,1.051207423210144,29.802688598632812,-11.396014213562012,40.141902923583984,0
87,869890,0.018290875479578972,0.11353600770235062,-0.9801225066184998,0.36442840099334717,0.06263313442468643,-0.4264144003391266,28.96213150024414,-10.163215637207031,38.97406768798828,0
88,879956,0.04291404038667679,-0.10678081214427948,-0.9989362359046936,-0.46856942772865295,-0.43854081630706787,-0.2514972388744354,32.935611724853516,-9.00426959991455,39.77792739868164,0
89,890172,0.012610267847776413,0.07596103847026825,-0.9853156805038452,-0.12244486063718796,-0.8550962209701538,0.04552372917532921,28.910892486572266,-9.418970108032227,38.459190368652344,0
90,900126,-0.03413330391049385,0.033949483186006546,-0.9906852841377258,-0.5143451690673828,-0.707142174243927,0.1385856568813324,30.02298355102539,-9.171405792236328,41.10026931762695,0
91,910118,0.18743906915187836,-0.019344789907336235,-1.0232645273208618,-0.7762300372123718,-0.7913128137588501,0.21268713474273682,30.033166885375977,-9.951194763183594,40.104034423828125,0
92,920013,-0.06533417105674744,0.09988569468259811,-1.0098249912261963,-0.8825620412826538,0.06007258966565132,0.2009781152009964,29.93526840209961,-11.381851196289062,40.936744689941406,0
93,929831,0.012072988785803318,0.029531201347708702,-0.9721131920814514,0.10124054551124573,0.6166307926177979,-0.024381471797823906,28.839046478271484,-9.311566352844238,40.9350700378418,0
94,940011,-0.005070098210126162,-0.029174812138080597,-1.0639064311981201,0.26496464014053345,0.33614465594291687,0.3169063627719879,29.522441864013672,-9.472691535949707,39.151493072509766,0
95,949960,-0.008306551724672318,-0.012882419861853123,-0.9788417220115662,-0.7429718971252441,-0.04376775026321411,-0.5778020620346069,30.185754776000977,-9.393009185791016,40.30918884277344,0
96,960105,-0.10015831887722015,0.11265312880277634,-1.0104737281799316,-0.7460255026817322,0.20791751146316528,-0.16590066254138947,30.692541122436523,-11.564770698547363,39.810577392578125,0
97,970187,0.056335486471652985,0.023404378443956375,-0.9297892451286316,-0.9731603264808655,-0.34218624234199524,0.483792781829834,31.796167373657227,-10.351954460144043,39.659759521484375,0
98,980012,0.10452716797590256,-0.09697716683149338,-0.9781320095062256,0.24572312831878662,-0.699700117111206,-0.6258240938186646,29.085132598876953,-9.774616241455078,40.576534271240234,0
99,990062,-0.07150080800056458,-0.004504225682467222,-0.9953143000602722,-0.7263569831848145,0.3954765498638153,0.007358659990131855,29.376766204833984,-10.133373260498047,40.35499572753906,0
100,1000118,-0.10416272282600403,-0.05316208302974701,-1.0035995244979858,-0.0477168895304203,-0.7502638101577759,-0.9779618382453918,31.00385856628418,-11.29406452178955,40.25758743286133,0
101,1009864,0.025123145431280136,-0.04959074407815933,-0.9635365009307861,0.2739976942539215,0.2722712457180023,0.10939430445432663,30.37932014465332,-9.627747535705566,37.60008239746094,0
102,1020084,0.022277791053056717,-0.003751195967197418,-1.0012216567993164,-0.24026526510715485,0.2539198398590088,0.6661878228187561,28.65911293029785,-10.230323791503906,38.99799728393555,0
103,1030088,0.018867405131459236,0.07781042903661728,-1.0085816383361816,0.5758388042449951,-0.2192336469888687,0.6842820048332214,33.3433952331543,-10.903403282165527,40.20586013793945,0
104,1039941,-0.005911037791520357,0.03306010738015175,-0.9928479194641113,0.05685052648186684,-0.3582296073436737,0.25296932458877563,30.0675106048584,-10.014694213867188,40.92722702026367,0
105,1049841,0.008946838788688183,-0.006645685061812401,-1.0081706047058105,-0.06202608346939087,-0.4570075571537018,0.2817460596561432,30.928529739379883,-10.75206470489502,39.847537994384766,0
106,1059830,-0.0374986007809639,-0.10040446370840073,-1.0198745727539062,0.06842328608036041,0.5131065249443054,-0.13631746172904968,30.911813735961914,-9.635826110839844,40.56885528564453,0
107,1069850,0.09522721916437149,0.020125750452280045,-1.0108623504638672,-0.15088042616844177,-0.227663055062294,-0.11094214022159576,29.983095169067383,-11.28586483001709,41.27931213378906,0
108,1079993,-0.029733631759881973,-0.035348620265722275,-1.0028223991394043,0.3573973774909973,0.4572608470916748,-0.15087354183197021,30.61029052734375,-11.610387802124023,40.2218017578125,0
109,1090067,-0.05132457986474037,0.018612965941429138,-1.018579363822937,0.12200623005628586,0.4438750743865967,-1.0288379192352295,31.161767959594727,-10.27400016784668,38.47539520263672,0
110,1099894,-0.08947185426950455,-0.025470325723290443,-0.9725343585014343,-1.245805025100708,-0.032799527049064636,0.5073506236076355,28.788145065307617,-10.136502265930176,40.28251266479492,0
111,1110232,-0.06395827978849411,-0.0464840903878212,-0.9832852482795715,0.509081244468689,-0.5351434946060181,-0.4910297989845276,30.016427993774414,-10.208352088928223,40.699058532714844,0
112,1120004,-0.03414430469274521,-0.025423837825655937,-0.993549644947052,-0.44440972805023193,0.3971651494503021,-0.6642165184020996,30.69514274597168,-11.161674499511719,38.43711853027344,0
113,1129878,-0.01201807614415884,0.030871523544192314,-0.9883301258087158,-0.4571874737739563,0.303619921207428,0.3463873863220215,28.98784065246582,-10.433502197265625,39.60380554199219,0
114,1139991,-0.031253520399332047,-0.07846750319004059,-1.0296015739440918,0.38055187463760376,0.3702761232852936,0.3006878197193146,29.678382873535156,-10.530132293701172,39.80033874511719,0
115,1150037,0.07246806472539902,0.012283707968890667,-0.9963806867599487,0.42644640803337097,0.36442917585372925,0.9806088209152222,29.452259063720703,-11.4661226272583,40.2473258972168,0
116,1159728,-0.02439940720796585,-0.05305761098861694,-0.9847838878631592,-0.21531745791435242,0.33760905265808105,-0.1764238327741623,31.31903076171875,-10.735485076904297,40.74928665161133,0
117,1170017,-0.04605570435523987,-0.009952424094080925,-0.9905505776405334,0.24796108901500702,-0.08326905965805054,-0.02265872061252594,31.548585891723633,-8.59035873413086,42.305992126464844,0
118,1180140,-0.07155229896306992,-0.01312802080065012,-1.0102089643478394,0.3138851225376129,-0.3354056477546692,0.16150379180908203,28.85715675354004,-9.989910125732422,40.74068069458008,0
119,1189756,-0.058436065912246704,-0.044824760407209396,-0.9848023056983948,-0.20505797863006592,0.0744006410241127,0.156601682305336,30.1558780670166,-9.4575834274292,38.201416015625,0
120,1200119,-0.0007392340339720249,-0.05259305238723755,-1.029468297958374,0.10650940984487534,-0.7238772511482239,-0.2677396237850189,30.14638328552246,-10.807064056396484,39.99712371826172,0
121,1210077,0.03904102370142937,0.02659621275961399,-1.0246163606643677,-0.9393189549446106,0.6330514550209045,-0.8930753469467163,30.13351821899414,-10.662182807922363,38.551090240478516,0
122,1219770,-0.0025633692275732756,0.035129111260175705,-0.9855932593345642,-1.0043902397155762,0.051885731518268585,0.0850951075553894,27.040462493896484,-9.082633972167969,39.91489028930664,0
123,1230254,-0.02888939529657364,-0.05452638864517212,-0.9663557410240173,0.02120663970708847,0.17359793186187744,-0.34848394989967346,29.453426361083984,-10.169889450073242,41.269309997558594,0
124,1240179,-0.0031590883154422045,0.03100932203233242,-0.973961591720581,0.41856515407562256,-0.2599171996116638,-0.32203593850135803,30.87009620666504,-9.804292678833008,40.49338912963867,0
125,1249880,0.07467903196811676,0.03631829097867012,-1.0075385570526123,0.4613124430179596,0.6731040477752686,0.5864320993423462,30.739952087402344,-7.421173572540283,39.982479095458984,0
126,1260297,0.029647093266248703,0.05114749073982239,-1.0049023628234863,0.5013275146484375,0.7314376831054688,-0.43196991086006165,30.679506301879883,-10.489118576049805,39.78934097290039,0
127,1269966,-0.011109728366136551,-0.04409991577267647,-1.0006513595581055,0.3313157260417938,-0.029197920113801956,-0.3027530312538147,29.59233856201172,-9.595942497253418,39.32658386230469,0
128,1279924,0.007123748306185007,0.03552327677607536,-1.0123308897018433,-0.09565111994743347,0.4920528531074524,-0.13983067870140076,30.366268157958984,-10.309438705444336,40.48664474487305,0
129,1290037,0.002406160347163677,-0.011136134155094624,-1.005874514579773,-0.6445960998535156,0.4007531702518463,-0.051828641444444656,29.019107818603516,-10.303767204284668,39.56861877441406,0
130,1299863,-0.010161525569856167,0.015017302706837654,-0.9742045402526855,0.40266963839530945,-0.01521459873765707,-0.38376471400260925,30.509946823120117,-11.300107955932617,39.12001037597656,0
131,1310126,-0.01453414373099804,-0.039403121918439865,-1.0039862394332886,-0.2709442675113678,0.32800135016441345,0.8263845443725586,30.2205810546875,-10.049382209777832,41.896976470947266,0
132,1319801,0.06943006068468094,-0.00896359235048294,-1.0379773378372192,-0.7033818960189819,0.8909898996353149,0.43619051575660706,30.53960609436035,-8.801426887512207,40.929779052734375,0
133,1329938,-0.004112908151000738,-0.025827957317233086,-1.0005848407745361,0.1593453735113144,0.34279361367225647,-1.1200357675552368,30.218706130981445,-9.813782691955566,41.11996078491211,0
134,1340160,0.08895432204008102,-0.04605851694941521,-0.9575573801994324,-0.09094537049531937,0.15065482258796692,-0.08449476212263107,30.997814178466797,-9.898223876953125,41.92444610595703,0
135,1350117,0.02361185848712921,0.026486042886972427,-0.9938140511512756,0.08240114152431488,-0.6969720125198364,-0.21330896019935608,31.491966247558594,-9.761364936828613,40.13600158691406,0
136,1359821,-0.04388968646526337,0.01665790006518364,-0.9672548770904541,-0.46486127376556396,-0.3597393333911896,-0.09597355872392654,30.05585479736328,-9.15540885925293,39.33015823364258,0
137,1369768,0.05729275196790695,-0.016821464523673058,-1.0011725425720215,-0.05059970170259476,1.0728155374526978,1.4281930923461914,30.6165771484375,-8.76460075378418,41.58730697631836,0
138,1379990,0.0367254801094532,0.026634657755494118,-1.0102542638778687,-0.8356335759162903,0.6969994902610779,-0.01953944005072117,28.775665283203125,-10.129658699035645,41.3182258605957,0
139,1390027,0.049408238381147385,0.0047415513545274734,-1.014243721961975,0.7121438980102539,-0.21666987240314484,0.1108977273106575,29.273784637451172,-10.26137638092041,40.02098846435547,0
140,1399764,0.0038740811869502068,0.005069923121482134,-0.9938449263572693,0.8303505778312683,0.33600863814353943,-0.15594102442264557,29.711166381835938,-9.968807220458984,39.72105026245117,0
141,1410056,0.0783003717660904,0.009437654167413712,-0.990821123123169,-0.6452821493148804,0.5086289048194885,0.08751042187213898,29.951126098632812,-8.966519355773926,40.08391189575195,0
142,1419997,0.03582959622144699,0.03852410241961479,-1.0168989896774292,-0.3001174330711365,-0.7196303606033325,0.2714841961860657,29.428787231445312,-10.532571792602539,39.41956329345703,0
143,1430007,0.07237803936004639,-0.02052909880876541,-1.0045212507247925,0.5298975706100464,0.6583981513977051,0.4045979082584381,30.568552017211914,-10.912216186523438,39.893218994140625,0
144,1439687,0.03987511247396469,0.1159738227725029,-0.9946363568305969,-0.6177606582641602,0.2353784590959549,0.5487586259841919,30.26797866821289,-9.449865341186523,41.048465728759766,0
145,1450015,0.043927501887083054,0.04718403518199921,-0.9998124837875366,0.3652063310146332,0.6946797370910645,-0.4761533737182617,30.591672897338867,-8.920928001403809,40.410888671875,0
146,1460038,0.12023133039474487,0.06503988057374954,-1.0161054134368896,-0.5096555352210999,0.30728545784950256,0.06280957907438278,30.569011688232422,-10.887923240661621,38.818294525146484,0
147,1470321,-0.00031537030008621514,0.06785916537046432,-0.9878990650177002,-0.26706311106681824,-0.22453226149082184,-1.1353843212127686,30.957897186279297,-10.538688659667969,40.03358459472656,0
148,1480021,0.03120841458439827,-0.0003533556591719389,-1.0120468139648438,0.26440972089767456,-0.005351717118173838,0.6737109422683716,29.681407928466797,-10.264453887939453,40.48491668701172,0
149,1490222,-0.09045808017253876,-0.012690209783613682,-1.021401286125183,-0.2915570139884949,0.49609220027923584,-0.19734030961990356,29.402978897094727,-10.536996841430664,41.49931716918945,0
150,1499948,0.005489640403538942,0.03276938945055008,-1.0196268558502197,-0.7350497245788574,-0.5024784803390503,-0.48193132877349854,29.768783569335938,-10.315971374511719,38.34238052368164,0
151,1510122,0.03608623519539833,-0.034290771931409836,-1.0005511045455933,0.052074551582336426,0.9635998606681824,-0.1054910272359848,29.198970794677734,-10.320062637329102,38.46455001831055,0
152,1520074,0.02432248368859291,-0.012516343966126442,-1.0026073455810547,1.1954976320266724,-0.5154495239257812,-0.2656651735305786,31.06667137145996,-9.691248893737793,39.48288345336914,0
153,1530030,0.06126929447054863,0.027904890477657318,-0.9739591479301453,-0.6704980134963989,0.789160430431366,0.226065531373024,30.361051559448242,-10.09091567993164,40.230411529541016,0
154,1540043,-0.058145541697740555,-0.06251858919858932,-1.0020111799240112,0.8952029943466187,-0.4211096167564392,-0.10357564687728882,29.421302795410156,-10.340681076049805,39.76786422729492,0
155,1550149,-0.001039662747643888,-0.04019511118531227,-0.9826468825340271,-0.5371425151824951,0.3399510383605957,0.7752981185913086,30.616436004638672,-9.372191429138184,40.076236724853516,0
156,1560053,0.06935468316078186,0.005228239111602306,-1.005818247795105,-0.06522330641746521,-0.37993893027305603,-0.2515389919281006,31.846324920654297,-9.399680137634277,36.89700698852539,0
157,1570088,-0.007601278834044933,-0.004950949922204018,-0.9940944910049438,-0.2346949577331543,-0.08251664787530899,-0.0629274994134903,30.72481918334961,-11.725214958190918,40.5667724609375,0
158,1580040,-0.07201097905635834,-0.02503027208149433,-0.9901570081710815,-0.304187536239624,0.7849897742271423,-0.07586772739887238,27.538942337036133,-11.05803394317627,41.97534942626953,0
159,1589699,-0.057620540261268616,0.03044905699789524,-0.972210705280304,0.039483729749917984,0.36063772439956665,0.9345051646232605,29.969839096069336,-10.205726623535156,38.794189453125,0
160,1600008,0.014303456991910934,0.03361465036869049,-0.9985795021057129,-0.12909969687461853,0.4346955418586731,-0.6556763052940369,31.136943817138672,-8.61654281616211,40.05143737792969,0
161,1609970,-0.03599740192294121,0.04221644625067711,-1.0008968114852905,0.699826180934906,0.28873568773269653,0.3877996504306793,30.28561782836914,-11.162060737609863,39.18574905395508,0
162,1619953,0.06035011634230614,-0.013039403595030308,-1.0253905057907104,-0.6023789644241333,0.6232145428657532,-0.08663784712553024,30.631366729736328,-12.139570236206055,39.1374626159668,0
163,1630040,-0.013904391787946224,-0.010862238705158234,-0.9930604100227356,-0.4235309362411499,-0.04298940300941467,0.10766177624464035,28.569181442260742,-10.1858491897583,39.58723831176758,0
164,1640064,0.07356062531471252,-0.001294862711802125,-0.9782347083091736,0.7904550433158875,-0.021390141919255257,-0.05041009932756424,30.34842300415039,-11.196374893188477,40.45589065551758,0
165,1649946,0.09393559396266937,0.017299257218837738,-1.0111572742462158,0.6409236788749695,0.14260810613632202,0.016397198662161827,30.012413024902344,-10.58787727355957,40.5684700012207,0
166,1660012,-0.017100926488637924,-0.05459132418036461,-0.9984361529350281,-0.05738484486937523,0.2735873758792877,-0.3291062116622925,30.5590763092041,-10.272393226623535,40.218048095703125,0
167,1670028,0.08180389553308487,0.015231382101774216,-0.9889767169952393,0.3732335567474365,0.24287839233875275,-0.02870621718466282,30.328292846679688,-9.225552558898926,39.23753356933594,0
168,1680100,-0.034315917640924454,-0.0403255894780159,-1.0300146341323853,-0.5506912469863892,0.7098550200462341,0.06653384864330292,29.389862060546875,-10.07387924194336,41.14356231689453,0
169,1689981,0.026122860610485077,-0.013759195804595947,-1.0178333520889282,0.21698741614818573,-0.647246778011322,0.12965694069862366,29.746625900268555,-9.567008018493652,40.429473876953125,0
170,1699958,-0.03622579202055931,0.039708878844976425,-1.0305653810501099,-0.3019889295101166,0.02903563901782036,0.21341156959533691,30.30644989013672,-11.002782821655273,41.83540725708008,0
171,1710056,-0.00978098064661026,-0.038725048303604126,-0.9981403946876526,-0.5372371673583984,-0.3102431297302246,-0.2898290455341339,28.420949935913086,-10.491774559020996,40.249717712402344,0
172,1719961,-0.02088451199233532,-0.10083813220262527,-1.0345454216003418,0.005442922469228506,-0.1374852955341339,-0.07509293407201767,31.803871154785156,-11.224063873291016,37.51835632324219,0
173,1729839,-0.055589377880096436,-0.04098721593618393,-0.991596519947052,0.05005359277129173,0.06962437182664871,-0.11881224066019058,30.63953971862793,-11.645252227783203,39.09434127807617,0
174,1740158,-0.016142942011356354,0.0015647707041352987,-0.9721786975860596,-0.1468127816915512,0.9101014137268066,-0.5929836630821228,29.869871139526367,-9.976042747497559,41.63905334472656,0
175,1749961,0.10489855706691742,0.011147208511829376,-1.0256116390228271,-0.5255323052406311,0.32932400703430176,0.09229648858308792,29.85936164855957,-9.84438419342041,40.40720748901367,0
176,1759678,-0.01881786622107029,0.06865204125642776,-0.9825184941291809,0.2319079041481018,-1.1678334474563599,0.7999876141548157,30.481185913085938,-7.4833784103393555,41.777191162109375,0
177,1769979,0.01175485085695982,0.018793758004903793,-1.0206124782562256,-0.19698204100131989,0.06704819947481155,-0.8241493701934814,30.65953254699707,-8.379101753234863,40.08099365234375,0
178,1779989,0.059693437069654465,-0.05272207409143448,-0.9918556213378906,1.2520219087600708,-0.3058748245239258,0.10498074442148209,29.2412166595459,-7.940495014190674,40.1090087890625,0
179,1790111,-0.019047770649194717,0.0006936367135494947,-1.0062721967697144,-0.1383724808692932,0.4492805600166321,-0.18361437320709229,29.163013458251953,-10.833450317382812,38.08502960205078,0
180,1799977,0.009760227054357529,-0.033115189522504807,-0.9987090826034546,1.3323512077331543,0.44412001967430115,0.02659148909151554,27.621564865112305,-10.07265567779541,40.23264694213867,0
181,1809841,-0.07130347192287445,-0.04394010454416275,-0.9780106544494629,0.3362203538417816,-0.0660085454583168,0.09819942712783813,30.116605758666992,-9.64898681640625,39.20468521118164,0
182,1820143,0.009597262367606163,-0.008219818584620953,-1.0119365453720093,-0.3818984925746918,0.012746225111186504,0.7154554724693298,28.211444854736328,-11.606369018554688,39.108341217041016,0
183,1829942,-0.04139314219355583,0.04579734802246094,-0.9696748852729797,0.41944658756256104,-1.4124194383621216,-0.15822733938694,31.265613555908203,-11.956799507141113,40.60019302368164,0
184,1840241,0.017604971304535866,-0.032786156982183456,-0.9961692690849304,0.006879591848701239,-0.8226452469825745,0.09462189674377441,30.14666748046875,-10.09935474395752,41.03194808959961,0
185,1849856,-0.008859191089868546,-0.05535752698779106,-0.9797614216804504,-0.250771701335907,-0.8679558038711548,0.1421825885772705,29.70145606994629,-10.453873634338379,41.94824981689453,0
186,1859915,0.03562353923916817,-0.03469465300440788,-1.0113071203231812,0.5062685608863831,0.15240952372550964,0.5995798707008362,29.679058074951172,-9.599807739257812,41.33672332763672,0
187,1869812,-0.06800567358732224,0.039309073239564896,-0.9691209197044373,-0.3090488910675049,-0.008531821891665459,0.7323395013809204,29.084983825683594,-10.421849250793457,40.06532669067383,0
188,1880006,0.06185948848724365,-0.06408024579286575,-1.0098066329956055,-0.09490872919559479,0.130399689078331,-0.47094157338142395,29.97325325012207,-10.403345108032227,39.4578857421875,0
189,1889733,-0.01877419836819172,0.017827259376645088,-1.0240795612335205,-0.3570172190666199,0.5650046467781067,0.3989229202270508,29.30545425415039,-8.551703453063965,40.51349639892578,0
190,1900038,0.008692644536495209,0.027712928131222725,-0.9833466410636902,-1.0455223321914673,0.15603871643543243,-0.7172476053237915,31.085527420043945,-11.974793434143066,39.72557830810547,0
191,1910201,0.055186446756124496,-0.035416118800640106,-0.9952180981636047,0.07729135453701019,0.22370842099189758,-0.21301023662090302,31.56130027770996,-11.773197174072266,39.895999908447266,0
192,1919762,-0.023597760125994682,0.009696029126644135,-0.9879982471466064,0.15847332775592804,0.3127904236316681,-0.12107570469379425,29.16575813293457,-10.963479042053223,40.04774475097656,0
193,1929860,-0.013291028328239918,-0.012477844022214413,-1.0096944570541382,0.314650297164917,-0.9961126446723938,0.520663321018219,27.967308044433594,-9.476946830749512,40.574222564697266,0
194,1940120,0.01415412500500679,-0.11024566739797592,-0.9862633943557739,0.030519481748342514,-0.6358855366706848,0.0671309232711792,29.91647720336914,-10.289113998413086,41.72409439086914,0
195,1949847,0.06223945692181587,0.02736695297062397,-1.0173872709274292,0.09048737585544586,0.2237396091222763,-0.15113908052444458,29.89979362487793,-8.882189750671387,40.84833908081055,0
196,1960040,-0.04165313392877579,0.032301194965839386,-1.0495549440383911,0.06724324822425842,-0.5115661025047302,-0.3014557957649231,28.867294311523438,-11.190901756286621,40.32087707519531,0
197,1970076,-0.09839630872011185,0.002306923270225525,-0.955694317817688,0.2738615572452545,0.24806690216064453,-0.7208975553512573,30.153987884521484,-10.05143928527832,39.82309341430664,0
198,1979948,-0.11204930394887924,0.01029115729033947,-1.0134220123291016,0.5189005732536316,-0.5041652917861938,0.6419390439987183,30.497451782226562,-10.716121673583984,40.49900817871094,0
199,1990204,0.06069163233041763,0.005040333140641451,-0.9786575436592102,0.5297709107398987,0.3286959230899811,0.033712539821863174,30.30982208251953,-9.253990173339844,41.08668899536133,0
200,1999826,-0.034111276268959045,-0.06626270711421967,-0.982092022895813,0.0338209867477417,0.3846912086009979,0.6460960507392883,28.54136848449707,-10.359142303466797,37.95573425292969,0
201,2010061,0.007254194002598524,0.06094765663146973,-0.9829416871070862,-0.17875754833221436,0.2425042986869812,0.8326077461242676,30.72154998779297,-8.246216773986816,41.27715301513672,0
202,2019953,0.007243460509926081,0.03162672370672226,-1.0119892358779907,0.36729758977890015,0.5910330414772034,-0.4802028238773346,29.257461547851562,-7.899416446685791,40.2316780090332,0
203,2030187,0.06602317839860916,0.014987527392804623,-0.9974700808525085,0.14970475435256958,0.38613519072532654,0.11678823083639145,30.03936767578125,-10.450352668762207,41.26544952392578,0
204,2039951,0.07730386406183243,-0.09059522300958633,-1.0023750066757202,0.391264945268631,-0.3780826926231384,0.295236736536026,31.35110855102539,-9.585322380065918,40.76890563964844,0
205,2050157,-0.0018817965174093843,-0.07138600945472717,-1.0237404108047485,0.5418580174446106,-0.8534914255142212,-0.028999943286180496,29.001792907714844,-9.912174224853516,39.076866149902344,0
206,2059916,0.010771739296615124,-0.021493926644325256,-1.0347557067871094,0.41973456740379333,0.2894623279571533,-0.28433486819267273,31.445396423339844,-10.221602439880371,39.788856506347656,0
207,2069881,-0.03815964236855507,-0.003349520731717348,-0.9923200011253357,0.020745372399687767,-0.7328832149505615,0.9990586042404175,30.7437744140625,-9.891375541687012,41.00697326660156,0
208,2080093,-0.033588625490665436,-0.08057699352502823,-1.0119438171386719,0.24941419064998627,0.133745476603508,-0.6819624900817871,29.183870315551758,-10.92881965637207,40.79483413696289,0
209,2090271,-0.006654071621596813,-0.012249363586306572,-1.0099036693572998,-0.10284760594367981,0.2857819199562073,-0.7814076542854309,30.581995010375977,-10.622190475463867,40.04686737060547,0
210,2099883,0.06620367616415024,-0.00047232533688656986,-1.0395042896270752,0.36161261796951294,0.4621236026287079,0.498603880405426,30.172502517700195,-11.033650398254395,41.41042709350586,0
211,2109984,-0.016637934371829033,0.03958354890346527,-1.0146656036376953,1.088417649269104,0.43163618445396423,-0.6892436742782593,30.845783233642578,-11.669687271118164,39.487953186035156,0
212,2120043,-0.04034218564629555,0.0458609014749527,-0.9947047829627991,-0.3255983591079712,-0.18756535649299622,-0.2956424653530121,31.385759353637695,-10.225512504577637,41.08353805541992,0
213,2129770,-0.061113566160202026,0.05653652921319008,-1.017202615737915,-0.6513702273368835,0.8065093159675598,-0.35376501083374023,29.535070419311523,-9.667744636535645,40.21718215942383,0
214,2139935,0.0927693098783493,0.004479014780372381,-0.9856307506561279,0.23666273057460785,0.07970170676708221,-0.46127378940582275,29.209463119506836,-9.545500755310059,39.627227783203125,0
215,2150132,-0.0857321172952652,0.013199803419411182,-0.985889196395874,0.31394168734550476,0.4909955859184265,-0.14802683889865875,30.046531677246094,-11.627817153930664,40.38861846923828,0
216,2159762,0.08846481889486313,0.02471369504928589,-1.0011619329452515,-0.16010726988315582,0.31466591358184814,0.8795892596244812,29.751527786254883,-9.771627426147461,39.50369644165039,0
217,2170307,-0.06792748719453812,-0.07582873106002808,-0.9818120002746582,0.12162791192531586,0.5375558733940125,-0.1185918003320694,30.226154327392578,-11.392410278320312,39.6359977722168,0
218,2180134,-0.026143023744225502,-0.062177013605833054,-0.9925874471664429,-1.0051443576812744,-0.5429205298423767,-0.29658064246177673,32.358524322509766,-10.270129203796387,39.133663177490234,0
219,2189928,-0.05006634443998337,-0.029639214277267456,-1.0108165740966797,0.09820598363876343,0.26789602637290955,-0.4887656569480896,32.05752944946289,-9.84448528289795,40.36686706542969,0
220,2200143,0.03429965302348137,-0.0012635153252631426,-1.007237434387207,-0.3785041868686676,0.7199274301528931,0.2209330052137375,28.443517684936523,-11.441818237304688,40.52543258666992,0
221,2210060,0.010468551889061928,-0.030195284634828568,-1.00022292137146,-0.08060017973184586,0.36939382553100586,-0.45703551173210144,28.618162155151367,-10.970623970031738,40.15443420410156,0
222,2220048,-0.034041665494441986,-0.11611545085906982,-0.9904687404632568,-0.011545831337571144,-0.1444670855998993,0.05084921047091484,30.314815521240234,-11.894501686096191,39.780643463134766,0
223,2229983,-0.07085993885993958,-0.015739625319838524,-1.0173484086990356,0.24847574532032013,-0.11987031251192093,0.21467344462871552,29.32029151916504,-10.055933952331543,39.92974853515625,0
224,2240167,-0.016057804226875305,0.04516918212175369,-0.9942590594291687,-0.03551164269447327,-0.02736792340874672,-0.15197890996932983,29.657468795776367,-11.151322364807129,40.98797607421875,0
225,2250028,-9.538693848298863e-05,-0.023204432800412178,-1.031224250793457,0.1497081071138382,0.03940567001700401,-0.42206478118896484,28.54851722717285,-10.917223930358887,39.78758239746094,0
226,2260031,-0.06773511320352554,-0.021675778552889824,-1.014756441116333,0.3751218616962433,0.7751117944717407,-0.190873920917511,31.230073928833008,-10.824705123901367,38.021854400634766,0
227,2270021,0.01363582257181406,0.01091083511710167,-1.0350360870361328,-0.730512797832489,-0.034651994705200195,0.334440141916275,28.821897506713867,-9.161943435668945,40.89646911621094,0
228,2280016,0.12980715930461884,0.04117182269692421,-1.0433671474456787,1.3393230438232422,0.7150158286094666,-0.44189998507499695,28.577804565429688,-11.045923233032227,39.9788818359375,0
229,2290000,-0.060883160680532455,-0.06286318600177765,-0.9952442646026611,1.0269697904586792,0.14707499742507935,0.5761920809745789,28.84075355529785,-9.552938461303711,40.81461715698242,0
230,2300238,0.007332423236221075,0.057432107627391815,-0.9957700371742249,-0.5619608759880066,-0.11973512917757034,0.008777321316301823,28.580360412597656,-9.599119186401367,37.87729263305664,0
231,2310036,-0.030439235270023346,-0.008556284010410309,-1.0208288431167603,0.043854936957359314,0.4544944167137146,0.10585124045610428,31.003355026245117,-9.947759628295898,41.12498092651367,0
232,2319989,-0.037489354610443115,-0.013363669626414776,-1.0047788619995117,-0.5563680529594421,-1.0293058156967163,-0.12375976890325546,30.16899299621582,-10.642841339111328,37.880123138427734,0
233,2329797,0.036518096923828125,-0.024493135511875153,-0.9792605638504028,0.9719520211219788,-0.18408867716789246,0.13525845110416412,29.213729858398438,-9.60990047454834,38.419063568115234,0
234,2339874,0.09960651397705078,0.017428580671548843,-1.0115209817886353,0.0393444187939167,0.7915096282958984,0.05711257457733154,28.45699119567871,-11.121601104736328,39.3330078125,0
235,2349984,-0.006802324205636978,-0.005699866451323032,-1.0557836294174194,0.29836559295654297,-0.5584421157836914,0.4049127697944641,28.334732055664062,-11.397216796875,39.8741455078125,0
236,2359963,-0.0022065003868192434,-0.024019930511713028,-1.0552375316619873,-0.6415810585021973,0.9843683242797852,-0.14401444792747498,29.061338424682617,-9.607929229736328,41.45236587524414,0
237,2370172,0.08985419571399689,0.0011103061260655522,-0.9914619326591492,0.09694723039865494,0.6624284982681274,0.19090507924556732,30.137609481811523,-9.583659172058105,38.57057571411133,0
238,2380066,-0.0037752746138721704,-0.0006864460883662105,-0.9799848198890686,-0.8486424684524536,-0.872554361820221,-0.0406326949596405,30.987178802490234,-10.738398551940918,39.08230972290039,0
239,2389838,-0.018183335661888123,-0.0362672433257103,-1.0134968757629395,0.20464617013931274,-0.3278489112854004,-0.7513552308082581,27.031301498413086,-9.626089096069336,37.92118453979492,0
240,2399852,-0.029516777023673058,-0.025427497923374176,-0.9879270792007446,0.19607822597026825,-0.072149857878685,-0.39030706882476807,29.657136917114258,-9.504929542541504,42.42091369628906,0
241,2410093,-0.04621421545743942,0.004399568308144808,-0.998843252658844,-0.34248796105384827,0.28540220856666565,-0.7181923389434814,29.245262145996094,-10.661974906921387,39.538604736328125,0
242,2419865,-0.0036541931331157684,0.0019853711128234863,-0.9921172261238098,0.007153087295591831,-0.2776714265346527,0.8372740745544434,30.413864135742188,-8.545727729797363,38.39324188232422,0
243,2430043,-0.018048780038952827,-0.022045694291591644,-1.018231987953186,-0.2837584316730499,-0.3656686544418335,0.4148341119289398,30.096088409423828,-10.13703727722168,39.662296295166016,0
244,2439945,-0.019968410953879356,-0.017235182225704193,-0.9889446496963501,0.07722510397434235,-0.0008924530702643096,-0.3272455334663391,29.944639205932617,-11.50407600402832,40.46357727050781,0
245,2449998,-0.013892152346670628,0.0301319919526577,-1.025073766708374,-0.18020325899124146,0.08311766386032104,-0.43916651606559753,30.341236114501953,-10.760004997253418,40.09684371948242,0
246,2459999,-0.04437362402677536,0.004538856912404299,-1.0228139162063599,-0.9133602380752563,-0.9082412719726562,0.16995146870613098,30.41155242919922,-7.3366379737854,39.3939323425293,0
247,2469882,-0.0334249809384346,0.05888897553086281,-0.9935868382453918,0.5788306593894958,1.4458694458007812,0.20322899520397186,29.729949951171875,-10.012548446655273,39.226619720458984,0
248,2479935,-0.010319280438125134,-0.08986330032348633,-0.9965785145759583,-0.5242249369621277,-0.09506342560052872,0.01594305783510208,28.801538467407227,-10.668560028076172,39.47249221801758,0
249,2489918,0.009360307827591896,-0.01109065767377615,-0.9781968593597412,-1.1252259016036987,-0.5445511937141418,-0.3883652985095978,29.76604652404785,-8.614940643310547,38.93337631225586,0
250,2499814,0.03638683259487152,-0.031993135809898376,-1.0069652795791626,1.411513090133667,0.5365173816680908,-0.3438686728477478,28.459341049194336,-7.919878005981445,41.00680160522461,0
251,2509873,-0.03271164000034332,-0.06754455715417862,-1.0096995830535889,0.007553619332611561,-0.6786072254180908,-0.8694894909858704,31.71589469909668,-11.524511337280273,40.10599136352539,0
252,2519807,-0.02251265197992325,-0.00841210875660181,-1.0234777927398682,0.1820174753665924,0.6445292234420776,0.4067171812057495,31.835294723510742,-8.953713417053223,39.72178649902344,0
253,2529944,0.09272678196430206,-0.07624276727437973,-1.0272878408432007,-0.5829563736915588,0.12686768174171448,0.28665751218795776,29.159656524658203,-11.624547958374023,40.38791275024414,0
254,2540233,0.07707022875547409,-0.01792794093489647,-0.9987345337867737,0.11617936939001083,0.5946882963180542,0.7553668022155762,27.9033145904541,-10.722777366638184,41.38130569458008,0
255,2549916,0.009817342273890972,0.06731186807155609,-1.0071356296539307,-0.17476819455623627,-0.11044158041477203,-0.29070231318473816,31.077714920043945,-10.706521034240723,39.65424728393555,0
256,2560053,0.003486157860606909,0.009384306147694588,-0.9824289679527283,-0.5279201865196228,-0.10303006321191788,0.4688582420349121,30.0779972076416,-9.47391128540039,39.743438720703125,0
257,2569971,0.05212912708520889,-0.07082575559616089,-1.0215340852737427,0.17218638956546783,0.21928392350673676,0.9634531736373901,28.317026138305664,-9.009805679321289,38.405094146728516,0
258,2580182,-0.021731795743107796,0.020750602707266808,-1.0053282976150513,0.12444914877414703,-0.3999326527118683,-1.1309504508972168,30.415233612060547,-9.125438690185547,38.94453048706055,0
259,2590063,0.04894236847758293,0.031117109581828117,-1.0047311782836914,-0.5236577987670898,1.3229851722717285,0.15923839807510376,29.499841690063477,-10.783873558044434,38.757198333740234,0
260,2600083,0.01713043823838234,0.13780251145362854,-1.0011743307113647,-0.778870165348053,0.195163294672966,-0.22489146888256073,29.834877014160156,-10.408926963806152,43.22126388549805,0
261,2610015,0.0770958662033081,0.03084215335547924,-1.0079874992370605,0.419063925743103,-0.6766167283058167,0.28267109394073486,29.37990951538086,-8.988327026367188,38.603118896484375,0
262,2620044,-0.004632243886590004,-0.03180919960141182,-0.9986218214035034,-0.18613854050636292,0.027795683592557907,0.8185352683067322,30.110904693603516,-10.60025405883789,40.15687561035156,0
263,2629935,-0.0006961963954381645,-0.028110887855291367,-0.9830511212348938,0.17264056205749512,-0.6326160430908203,-0.5734571814537048,30.92885398864746,-9.15351390838623,38.97576904296875,0
264,2640025,-0.03143459931015968,-0.0031790847424417734,-0.9996173977851868,0.6504337191581726,-0.10921216011047363,-0.3193151354789734,28.907787322998047,-9.535164833068848,38.60142517089844,0
265,2650250,0.04349313676357269,0.001681743306107819,-0.9673558473587036,-0.1690051257610321,0.5700992345809937,1.131644606590271,30.523202896118164,-9.422625541687012,41.42797088623047,0
266,2659833,0.031914494931697845,0.05951850116252899,-0.9823126196861267,-0.31566405296325684,0.2862410247325897,0.4435740113258362,32.339439392089844,-10.859633445739746,41.5012321472168,0
267,2669824,-0.09900176525115967,0.005780569277703762,-0.9845173358917236,-0.4297536015510559,0.43340104818344116,-0.2620748281478882,31.4677734375,-10.851167678833008,40.0546989440918,0
268,2680031,-0.03318537771701813,0.0542280338704586,-1.0022361278533936,0.53086918592453,0.4254470467567444,-0.29944583773612976,30.23276138305664,-10.550445556640625,39.36771774291992,0
269,2689949,0.07314101606607437,-0.053812697529792786,-1.013518214225769,-1.24513578414917,-0.2581097483634949,-0.671908438205719,31.025192260742188,-12.056571960449219,38.731101989746094,0
270,2700129,0.07514796406030655,0.03704414516687393,-0.9788184762001038,0.13415539264678955,-0.13361530005931854,-0.32253390550613403,29.792390823364258,-11.138492584228516,39.356475830078125,0
271,2710064,0.08718246966600418,0.10631022602319717,-1.004738211631775,-0.6679826378822327,0.08113598078489304,0.15469017624855042,30.311500549316406,-12.419805526733398,40.2491340637207,0
272,2719902,0.05126044899225235,0.04456289857625961,-0.9923540353775024,0.06451793015003204,-0.035047370940446854,0.41512349247932434,31.534809112548828,-11.099308013916016,39.4912223815918,0
273,2730151,0.005094078369438648,0.04206710681319237,-0.9605489373207092,-0.2064301073551178,0.13279150426387787,-0.19573576748371124,30.44331169128418,-12.3814115524292,39.44827651977539,0
274,2740006,0.052084557712078094,0.06125037744641304,-1.0238040685653687,0.40524378418922424,0.4438052773475647,0.05167413502931595,31.05584144592285,-10.921746253967285,40.15642166137695,0
275,2750096,0.058456987142562866,-0.042625825852155685,-1.005623698234558,-0.6056864261627197,-0.3528975248336792,-0.8269208669662476,28.678369522094727,-9.668929100036621,38.794830322265625,0
276,2760017,-0.05369953066110611,-0.03767610341310501,-0.969620943069458,0.05197431892156601,1.0687129497528076,-0.36546987295150757,29.84480094909668,-9.838427543640137,39.90420913696289,0
277,2769866,-0.0588613897562027,-0.022350100800395012,-1.0204395055770874,-0.34711551666259766,0.13868597149848938,-0.14293625950813293,30.32770347595215,-7.848613739013672,38.9395751953125,0
278,2779853,0.027873627841472626,-0.049967363476753235,-1.0080540180206299,0.7754918932914734,0.314848929643631,-0.15304720401763916,27.667606353759766,-10.568802833557129,40.25669860839844,0
279,2789789,-0.04187609255313873,-0.035113200545310974,-1.0226224660873413,0.671532928943634,-0.2911158800125122,0.17830510437488556,30.06996726989746,-9.712418556213379,39.50752258300781,0
280,2799898,-0.04972165450453758,-0.007377617061138153,-1.049520492553711,-0.4842095375061035,-0.08431240171194077,-0.2693168818950653,31.2298526763916,-11.114713668823242,39.084651947021484,0
281,2810136,0.03511878475546837,-0.0031638718210160732,-1.010376214981079,0.15288561582565308,-0.1392976939678192,-0.816755473613739,30.192888259887695,-8.053995132446289,38.2301139831543,0
282,2819849,-0.04384588822722435,0.08059802651405334,-1.0009294748306274,0.3078022301197052,-0.07571612298488617,-0.01545450184494257,29.1998348236084,-9.46901798248291,42.332496643066406,0
283,2830004,0.0355355404317379,0.030487051233649254,-0.9900685548782349,-0.6049357056617737,0.5204728841781616,0.07239998131990433,30.292802810668945,-8.69070816040039,41.1182975769043,0
284,2839738,-0.05205196142196655,-0.0023826956748962402,-0.9831005334854126,-0.06708578020334244,0.26986703276634216,0.17793260514736176,31.11485481262207,-9.973055839538574,41.501590728759766,0
285,2849674,0.03695618733763695,0.03678024560213089,-1.0112555027008057,0.019841117784380913,0.203093022108078,0.9008400440216064,31.147836685180664,-10.253874778747559,39.39938735961914,0
286,2860091,0.058928992599248886,-0.05970998853445053,-0.9963023066520691,-0.6412005424499512,-0.2736263871192932,-0.28963813185691833,28.591415405273438,-10.869499206542969,39.475440979003906,0
287,2870060,0.010737184435129166,-0.07854705303907394,-0.9469614028930664,-0.3538176715373993,0.09550715237855911,0.4090707302093506,29.07004165649414,-9.889532089233398,39.9299201965332,0
288,2880007,0.012274075299501419,0.00254052528180182,-1.0009547472000122,0.4059827923774719,0.03781268373131752,0.86807781457901,29.287158966064453,-10.707974433898926,41.268733978271484,0
289,2889950,0.045829132199287415,-0.018932800740003586,-1.0127722024917603,-0.5456687808036804,-0.3269934356212616,0.5942041873931885,29.850610733032227,-9.801006317138672,39.77302169799805,0
290,2899861,0.027115553617477417,-0.03490457683801651,-0.9964322447776794,-0.157099649310112,0.4388156235218048,-0.3781931698322296,29.72197151184082,-10.434379577636719,39.61359405517578,0
291,2910208,-0.10202322155237198,0.06453163176774979,-0.9897037148475647,0.6907110810279846,0.44633927941322327,0.6931192874908447,29.430734634399414,-10.351286888122559,40.200843811035156,0
292,2919883,0.053414832800626755,0.05512510985136032,-1.0259171724319458,0.29908084869384766,0.7170010805130005,0.22313947975635529,28.559541702270508,-9.649925231933594,40.09726333618164,0
293,2930144,-0.01849943958222866,-0.11583948135375977,-0.9879941940307617,-1.268908143043518,0.9390719532966614,0.5801668763160706,29.98720359802246,-9.22509479522705,39.315826416015625,0
294,2940102,-0.05426902323961258,0.02474185824394226,-0.992538571357727,0.7376999258995056,0.6365664005279541,-0.45942890644073486,30.329526901245117,-8.695819854736328,38.035282135009766,0
295,2950016,0.04508776217699051,0.11628884822130203,-1.0031487941741943,0.3491576910018921,-1.0221813917160034,0.8734685182571411,28.148347854614258,-10.331199645996094,38.275665283203125,0
296,2959734,-0.12011273205280304,-0.05385667085647583,-0.9880401492118835,-0.3976605236530304,1.2694978713989258,-1.044871211051941,31.611886978149414,-9.696157455444336,41.29876708984375,0
297,2970114,0.03709835186600685,-0.025690756738185883,-1.013056993484497,0.5258371233940125,-0.6196995377540588,0.24836276471614838,30.551557540893555,-8.901957511901855,40.72224044799805,0
298,2979725,0.017118772491812706,-0.046135205775499344,-0.9849984645843506,-0.17083802819252014,0.6984663605690002,0.08137572556734085,28.77849769592285,-10.634074211120605,39.89347839355469,0
299,2989815,0.0741129145026207,0.0005593528621830046,-1.0037883520126343,0.6667181849479675,0.058606769889593124,-0.3038155734539032,32.1881217956543,-10.840996742248535,38.638153076171875,0
300,2999832,0.003911294974386692,-0.009380064904689789,-1.0083537101745605,0.012830388732254505,0.2355343997478485,0.5537136793136597,30.700176239013672,-9.989073753356934,41.671142578125,0
301,3010258,-0.013272403739392757,-0.025592543184757233,-1.0263842344284058,0.41926801204681396,-0.23605604469776154,-0.07567489147186279,29.723066329956055,-9.080382347106934,40.97265625,0
302,3020125,-0.007070119492709637,-0.0127562265843153,-0.9493585228919983,-0.5316433906555176,0.004671434406191111,-0.5337232351303101,30.649438858032227,-10.435544967651367,39.56887435913086,0
303,3030169,0.032519254833459854,0.025246553122997284,-0.9840731024742126,0.22616003453731537,0.478971928358078,0.4030866324901581,29.815662384033203,-10.290839195251465,39.70344161987305,0
304,3040044,0.08061974495649338,0.020351475104689598,-1.0145525932312012,-0.5849375128746033,-0.06575824320316315,0.1412002295255661,31.403060913085938,-8.659968376159668,40.458534240722656,0
305,3049900,0.05198327824473381,-0.02665429748594761,-1.0122383832931519,0.23691228032112122,-0.1300031840801239,-0.5156490206718445,28.794267654418945,-10.412429809570312,39.2160530090332,0
306,3060145,-0.043748799711465836,0.062189050018787384,-0.9871742129325867,0.5795318484306335,-0.5593307614326477,-0.5502899885177612,29.53274917602539,-9.415045738220215,38.65200424194336,0
307,3069851,0.03396233171224594,-0.015416262671351433,-1.0138667821884155,0.23981083929538727,-0.4712401032447815,0.4990833103656769,29.066614151000977,-10.696295738220215,40.4742431640625,0
308,3080044,-0.02274841070175171,-0.06147073954343796,-0.9885395765304565,1.574572205543518,0.19509604573249817,0.05015705153346062,28.900049209594727,-11.198027610778809,39.44786071777344,0
309,3090000,-0.026524504646658897,-0.05537819862365723,-1.0093762874603271,-0.674967885017395,0.22173723578453064,0.32864606380462646,31.115127563476562,-9.271249771118164,37.613407135009766,0
310,3099735,0.015236779116094112,0.029094073921442032,-1.0156968832015991,-0.8209743499755859,-0.28948014974594116,-0.6528635025024414,28.887088775634766,-7.3096160888671875,38.44363021850586,0
311,3109860,-0.05351449176669121,0.055452872067689896,-0.9861950874328613,-0.05936391279101372,0.2320200502872467,-0.40549060702323914,31.448810577392578,-9.313994407653809,39.45736312866211,0
312,3120267,-0.020774956792593002,0.009458535350859165,-0.9896529316902161,-0.1958433985710144,0.2694712281227112,-0.14393843710422516,30.41103172302246,-10.81114387512207,39.56855010986328,0
313,3130196,0.004936710931360722,0.034750886261463165,-1.0393812656402588,0.0063216895796358585,-0.6412038207054138,-0.5442973375320435,30.280393600463867,-9.171998023986816,38.224002838134766,0
314,3139705,0.11360252648591995,0.09372770041227341,-1.0088022947311401,-0.7484186887741089,0.25314292311668396,-0.4793086647987366,30.3654727935791,-11.548608779907227,40.366233825683594,0
315,3150173,-0.004350794013589621,0.024815276265144348,-1.0107901096343994,-0.36191534996032715,-0.0011753099970519543,0.8436535000801086,30.74813461303711,-10.901796340942383,40.47968292236328,0
316,3159785,-0.023508179932832718,-0.010121471248567104,-0.9919715523719788,0.2189420610666275,-0.10560748726129532,0.9855634570121765,28.8135986328125,-11.62559700012207,40.30582809448242,0
317,3170198,-0.048540323972702026,0.0014488999731838703,-1.0232654809951782,-0.7405235767364502,-0.15496911108493805,-1.1253626346588135,28.801576614379883,-10.089349746704102,40.937660217285156,0
318,3180057,-0.020755372941493988,0.0061510587111115456,-0.9995326995849609,-0.4668063521385193,-0.6646705865859985,-0.5050804018974304,29.928497314453125,-9.304508209228516,40.98162078857422,0
319,3189599,-0.030041154474020004,0.017248066142201424,-0.9837305545806885,-0.11318899691104889,-0.2333582192659378,0.914055585861206,31.604930877685547,-10.586694717407227,42.399131774902344,0
320,3199989,0.020594310015439987,-0.008236692287027836,-1.0083870887756348,-0.7194559574127197,-0.1915745735168457,-0.6096032857894897,30.36537742614746,-8.887961387634277,39.63203430175781,0
321,3209843,0.008458413183689117,-0.00038133611087687314,-1.0064656734466553,-0.7782281041145325,-0.2096380740404129,0.02058153599500656,29.94369888305664,-11.019906044006348,41.153194427490234,0
322,3220086,0.06791803985834122,0.05998745560646057,-1.012500524520874,-0.6643205881118774,-0.9777965545654297,0.15811458230018616,28.862533569335938,-9.08930492401123,40.806941986083984,0
323,3230385,0.062492385506629944,0.039715349674224854,-0.9916878342628479,-0.7329345345497131,-1.420276403427124,0.7489030957221985,31.23712921142578,-11.158276557922363,42.17604064941406,0
324,3239935,-0.07191137224435806,0.0227038711309433,-1.0024466514587402,0.027498116716742516,0.3671770393848419,0.20790518820285797,27.64570426940918,-10.679549217224121,39.882225036621094,0
325,3249868,-0.049250777810811996,0.04000216722488403,-1.0221127271652222,-0.06998060643672943,-0.24517115950584412,0.21533875167369843,30.419553756713867,-10.77939510345459,40.17680358886719,0
326,3259801,2.849838710972108e-05,-0.0030286815017461777,-1.018759846687317,-0.7780115604400635,-0.2456330806016922,-0.3955266773700714,30.677753448486328,-9.845255851745605,38.65337371826172,0
327,3270069,0.01671498641371727,0.01353439036756754,-1.005957841873169,0.0981525182723999,0.7316057085990906,-0.4375903308391571,30.647035598754883,-9.942663192749023,41.580345153808594,0
328,3280019,0.007225806824862957,0.028335772454738617,-0.9852094054222107,1.3950554132461548,-0.180752694606781,-0.009625444188714027,29.202253341674805,-10.366352081298828,40.45549392700195,0
329,3290009,-0.01627703197300434,0.08887822180986404,-1.0120121240615845,-0.9606196880340576,0.45020392537117004,0.7210478782653809,29.579790115356445,-9.881254196166992,40.646453857421875,0
330,3299908,0.052735570818185806,-0.06928912550210953,-1.0344288349151611,-0.7004228830337524,-0.49047383666038513,0.029953492805361748,30.522655487060547,-11.451804161071777,40.353153228759766,0
331,3309922,-0.017635783180594444,0.05216299742460251,-0.9568864107131958,-0.6989541053771973,0.5600716471672058,1.2842936515808105,29.459705352783203,-8.37587833404541,39.92986297607422,0
332,3320032,-0.09897411614656448,-0.03931566700339317,-0.9885790348052979,0.03363466262817383,0.5425724387168884,0.39892199635505676,29.576623916625977,-9.23611068725586,39.945167541503906,0
333,3330164,0.03631002828478813,-0.022150952368974686,-1.002846360206604,0.2448064535856247,-1.1027909517288208,0.18257857859134674,31.49810218811035,-10.70718002319336,39.751365661621094,0
334,3340066,-0.0058246213011443615,-0.058955125510692596,-1.0136711597442627,0.25421983003616333,0.43824076652526855,1.0714462995529175,30.742801666259766,-10.826058387756348,39.087493896484375,0
335,3349801,-0.04864171892404556,-0.0009830370545387268,-0.9971922636032104,-0.3250775933265686,-0.02434530109167099,1.4419763088226318,30.341812133789062,-9.87417221069336,39.77507019042969,0
336,3360181,-0.037121936678886414,-0.04850989952683449,-1.0162111520767212,-0.1466490477323532,0.23213700950145721,-0.2960011959075928,29.515146255493164,-10.73194408416748,40.09226989746094,0
337,3369828,0.08693794161081314,0.046228740364313126,-1.0268831253051758,-0.45298105478286743,-0.37776097655296326,-0.23915648460388184,30.364919662475586,-8.978205680847168,40.846710205078125,0
338,3379951,0.024633442983031273,0.027776041999459267,-0.979768693447113,-0.00318050105124712,-0.32387205958366394,0.17010854184627533,28.735366821289062,-8.085235595703125,39.68310546875,0
339,3390363,-0.032660048454999924,-0.10490404814481735,-1.0144455432891846,0.14985795319080353,-0.46394574642181396,0.7801810503005981,29.99263572692871,-10.881830215454102,40.15553283691406,0
340,3400010,-0.04128602519631386,0.011219698935747147,-1.017513394355774,0.545738160610199,-0.826671302318573,-0.07885593920946121,31.412593841552734,-10.853315353393555,41.77213668823242,0
341,3409893,-0.004955565556883812,0.0020220819860696793,-1.0075584650039673,0.1862466037273407,0.93108731508255,0.17987549304962158,30.860197067260742,-9.713369369506836,40.442291259765625,0
342,3419955,-0.016058512032032013,-0.024961113929748535,-1.001070261001587,0.24714241921901703,-0.6214357018470764,-0.0014261401956900954,29.1431941986084,-8.932130813598633,38.39616012573242,0
343,3429960,-0.02133670262992382,-0.021679610013961792,-1.0182775259017944,0.7159839272499084,0.3584219813346863,-0.5742939710617065,29.315778732299805,-10.941106796264648,38.623321533203125,0
344,3439983,-0.04377204179763794,0.022596074268221855,-1.0197913646697998,-0.2461978942155838,0.09496510028839111,0.2155027538537979,29.473827362060547,-7.759156227111816,40.06964111328125,0
345,3450023,0.02509748563170433,-0.043866269290447235,-1.0112839937210083,0.031003888696432114,-0.8523019552230835,0.6561294794082642,29.909303665161133,-9.812971115112305,38.85099411010742,0
346,3460078,-0.02157427929341793,0.028684360906481743,-1.0126371383666992,-0.5177106261253357,-0.07136347144842148,0.26463764905929565,30.881088256835938,-8.103240966796875,39.36824035644531,0
347,3470027,0.009252144023776054,0.01715712435543537,-0.9708316326141357,0.5037114024162292,-0.5357399582862854,0.7660525441169739,30.208066940307617,-10.380885124206543,41.76576232910156,0
348,3480027,0.03366251289844513,-0.020421301946043968,-0.9977028369903564,-0.3788703382015228,0.004139088559895754,-0.23463912308216095,31.227258682250977,-10.108053207397461,41.07426071166992,0
349,3489996,0.009167737327516079,0.0552644282579422,-0.9910179972648621,0.1963413804769516,0.5865089297294617,-0.49563202261924744,28.800357818603516,-9.62494945526123,38.937339782714844,0
350,3500330,-0.0913807600736618,0.13724613189697266,-1.0004500150680542,0.13452143967151642,-0.03106399066746235,-0.09612097591161728,30.025909423828125,-10.659524917602539,38.981056213378906,0
351,3509876,0.008774238638579845,0.07812497764825821,-1.0116866827011108,0.48421138525009155,-0.027418330311775208,-0.4714994430541992,31.342947006225586,-9.064053535461426,39.189842224121094,0
352,3519726,-0.07114271074533463,0.03627210855484009,-1.0056802034378052,0.41719868779182434,-0.24859395623207092,-0.377808541059494,30.725494384765625,-9.316995620727539,39.191490173339844,0
353,3529885,0.006057674065232277,-0.009892817586660385,-0.9705570340156555,0.2623351216316223,-0.2713070809841156,-0.45698851346969604,29.787843704223633,-11.778545379638672,40.8948974609375,0
354,3539988,-0.016774028539657593,0.03694486618041992,-0.9850306510925293,0.6662143468856812,-0.3353986144065857,-0.14576976001262665,29.291702270507812,-10.88813304901123,39.37723922729492,0
355,3549780,0.019230874255299568,-0.015247814357280731,-0.9749601483345032,-0.06528313457965851,-0.23397333920001984,0.6077513694763184,32.13578414916992,-9.657974243164062,39.46170425415039,0
356,3560472,-0.0841195359826088,-0.06384912878274918,-1.0270915031433105,0.47382664680480957,-0.5529502034187317,0.23075264692306519,28.31381607055664,-9.666400909423828,38.63739013671875,0
357,3570225,-0.0586463063955307,0.058184124529361725,-0.9565144777297974,-0.35261014103889465,0.16418704390525818,-0.11156082153320312,29.92984390258789,-10.238737106323242,40.765987396240234,0
358,3579878,0.03362491726875305,0.00784696638584137,-0.9988961815834045,0.3128526210784912,-0.3965469002723694,0.28844672441482544,29.310657501220703,-10.630464553833008,41.70051193237305,0
359,3590049,-0.03523370251059532,-0.0034942710772156715,-0.9804571270942688,0.013156373053789139,-0.1439204216003418,0.006410034839063883,29.740650177001953,-10.849775314331055,38.910865783691406,0
360,3599719,-0.02192278578877449,0.01198396272957325,-1.0243560075759888,-0.4186636507511139,-0.7449703216552734,-1.0681828260421753,28.369213104248047,-8.66533088684082,40.565242767333984,0
361,3610147,0.01039454247802496,-0.036957211792469025,-1.0143359899520874,0.7310152053833008,0.2985173761844635,0.37169352173805237,30.374399185180664,-10.423309326171875,40.12483215332031,0
362,3619862,-0.018880391493439674,0.03089069202542305,-0.9545466899871826,-0.16790302097797394,-0.46616634726524353,0.30605244636535645,30.029926300048828,-10.62244987487793,39.4831428527832,0
363,3629740,0.01832999847829342,0.0025145718827843666,-1.0211015939712524,0.1282513290643692,-0.00746517488732934,-0.5042664408683777,28.758928298950195,-11.441251754760742,40.94681930541992,0
364,3640115,0.059346456080675125,0.021697623655200005,-0.9830607175827026,0.683484673500061,-1.1648728847503662,-0.44982996582984924,29.48990821838379,-10.193953514099121,40.74285125732422,0
365,3649855,-0.063413105905056,-0.08166821300983429,-1.0346994400024414,1.24020516872406,0.17907452583312988,-0.07261943072080612,30.616445541381836,-10.52285385131836,40.55271530151367,0
366,3660231,0.04075479507446289,-0.07115355134010315,-1.0083224773406982,-0.29346805810928345,0.5275424122810364,0.03869330883026123,28.993701934814453,-8.514518737792969,40.837059020996094,0
367,3669832,-0.08345991373062134,-0.0733177661895752,-0.9935421943664551,-0.06790192425251007,-0.6137568354606628,0.7690469622612,28.553178787231445,-10.238019943237305,39.038658142089844,0
368,3680028,0.07491809129714966,-0.013212972320616245,-0.9811084270477295,-0.07676000893115997,-0.04761534184217453,-0.34303003549575806,30.97539520263672,-11.345843315124512,39.44407653808594,0
369,3690072,-0.02694382704794407,0.02851327508687973,-0.994054913520813,-0.19212794303894043,0.061204031109809875,0.6482020616531372,31.636293411254883,-11.418561935424805,41.71484375,0
370,3700040,0.05772114545106888,0.005117908585816622,-0.9605219960212708,-0.29055526852607727,0.299981951713562,0.2644009590148926,30.868175506591797,-11.110660552978516,41.10026931762695,0
371,3710147,0.017099754884839058,-0.01845809817314148,-0.9606341123580933,0.27721938490867615,0.4447997510433197,0.03507290408015251,29.770824432373047,-11.831231117248535,38.83422088623047,0
372,3720107,-0.04554589465260506,0.024794338271021843,-1.0213651657104492,0.2550381124019623,0.2866241931915283,-0.323812872171402,30.571247100830078,-9.671348571777344,39.58619689941406,0
373,3729944,-0.025894975289702415,0.012001007795333862,-1.0011039972305298,0.04696743190288544,0.22533151507377625,-0.7355377078056335,28.923120498657227,-9.221068382263184,40.29277420043945,0
374,3740265,-0.0035946276038885117,-0.015604780055582523,-1.023806095123291,-0.05095979943871498,-0.29164519906044006,1.565474033355713,30.083181381225586,-9.70053482055664,40.441986083984375,0
375,3749774,-0.06464361399412155,-0.00512437429279089,-0.9640616774559021,0.5522634387016296,0.31342676281929016,0.3690146505832672,29.01715660095215,-12.035283088684082,41.68098449707031,0
376,3760012,-0.007420665584504604,0.0223015695810318,-0.986106812953949,-0.5460383296012878,0.28883370757102966,-0.4055050015449524,29.804073333740234,-9.854448318481445,38.55551528930664,0
377,3769784,-0.00786806270480156,-0.0462104007601738,-0.9923998713493347,-0.40460363030433655,-0.08680325746536255,-0.05718599259853363,30.391145706176758,-6.146095275878906,40.83412551879883,0
378,3779791,0.005468950141221285,-0.00737749831750989,-0.9941738247871399,-0.9587914943695068,-0.70561683177948,-0.21943922340869904,28.122074127197266,-9.505370140075684,40.64977264404297,0
379,3790061,0.045032013207674026,0.05147973820567131,-0.989104151725769,-0.4626850485801697,-0.266331285238266,-0.24682334065437317,30.38302230834961,-10.143145561218262,38.72087860107422,0
380,3799478,-0.0022875580471009016,0.024902405217289925,-0.9848248362541199,0.40214112401008606,0.18486545979976654,0.780799925327301,29.574100494384766,-10.981945991516113,38.97344970703125,0
381,3810022,-0.013513152487576008,0.028895443305373192,-1.0139955282211304,-0.03395090252161026,0.3467767834663391,0.15525385737419128,29.867403030395508,-8.374669075012207,39.58020782470703,0
382,3820209,0.018797971308231354,-0.04284033551812172,-1.0088084936141968,-0.07750920951366425,-0.3333837687969208,0.02071012556552887,29.913347244262695,-9.600933074951172,40.377281188964844,0
383,3830046,-0.019191574305295944,-0.03894074633717537,-1.0179929733276367,0.049510929733514786,-1.0593596696853638,0.44448092579841614,30.00894546508789,-9.816123962402344,40.00685119628906,0
384,3839772,0.003548647277057171,-0.01028271485120058,-1.021056056022644,0.37641650438308716,-0.18224813044071198,0.28534653782844543,30.872220993041992,-9.218289375305176,39.34791946411133,0
385,3849762,-0.05039379745721817,0.1443231850862503,-0.9809678792953491,0.11026933789253235,0.1435960829257965,-0.23274657130241394,29.723331451416016,-9.6666259765625,39.685546875,0
386,3859887,0.02779107354581356,0.029928475618362427,-1.0005306005477905,0.34332555532455444,-0.41202861070632935,-0.1888352632522583,30.244487762451172,-9.048075675964355,40.27548599243164,0
387,3869983,-0.007213514298200607,0.06429101526737213,-0.9807340502738953,-0.7876954674720764,-0.07944168895483017,-0.2165086269378662,29.19076919555664,-10.560659408569336,39.296878814697266,0
388,3879863,-0.07988394796848297,-0.03087100386619568,-1.0121115446090698,-0.33505964279174805,0.11027070879936218,-0.2669462263584137,31.25398826599121,-8.556503295898438,41.437347412109375,0
389,3889799,-0.03962419182062149,-0.011130553670227528,-0.9977080225944519,-0.44922497868537903,0.22480060160160065,-0.35863277316093445,28.893129348754883,-9.840089797973633,39.69171142578125,0
390,3899868,0.11655318737030029,0.027451908215880394,-1.028547763824463,0.6076593995094299,-0.022286929190158844,0.5716318488121033,30.898422241210938,-10.596748352050781,39.67653274536133,0
391,3910139,0.017137587070465088,-0.0609784871339798,-0.993071436882019,-0.013791453093290329,-0.3030405640602112,-0.32036298513412476,31.595415115356445,-9.203089714050293,41.40231704711914,0
392,3920088,0.040172092616558075,-0.07423826307058334,-0.9926474094390869,-0.41219234466552734,-0.2742389440536499,-0.1796657294034958,29.187915802001953,-9.870702743530273,39.24815368652344,0
393,3929882,-0.07430364191532135,0.04302855208516121,-1.0074104070663452,0.8254637122154236,0.31455618143081665,0.12538400292396545,30.66836166381836,-8.132757186889648,38.846832275390625,0
394,3940136,0.0050946869887411594,-0.023968566209077835,-0.990294873714447,0.4557564854621887,-0.03391673415899277,-0.5054048895835876,30.906518936157227,-11.23763370513916,39.97756576538086,0
395,3949831,0.08128927648067474,-0.08177824318408966,-0.9856166839599609,-0.26091450452804565,-0.3602341413497925,-0.8006468415260315,30.89602279663086,-10.045692443847656,40.60490036010742,0
396,3959576,-0.10169465094804764,0.01888682320713997,-1.0254266262054443,0.07384015619754791,0.2888852655887604,-0.3474499583244324,30.718950271606445,-10.924891471862793,39.97773361206055,0
397,3970042,0.01145127322524786,-0.05279599502682686,-0.981674313545227,-0.20720316469669342,-0.3762233257293701,-0.8144588470458984,29.11066436767578,-11.046172142028809,41.60605239868164,0
398,3980042,0.05428360402584076,-0.023394210264086723,-1.003185749053955,-1.0827422142028809,-0.1898689717054367,-0.34285494685173035,30.652456283569336,-11.97571849822998,42.026607513427734,0
399,3989856,0.027678553014993668,-0.06366942077875137,-1.0106163024902344,-0.02962665446102619,-0.054427288472652435,0.9446625113487244,29.026655197143555,-12.276300430297852,40.301849365234375,0
400,3999846,-0.0650826022028923,-0.13441069424152374,-0.9836074709892273,-0.26196908950805664,-0.40986114740371704,-0.6846976280212402,28.274885177612305,-8.614513397216797,39.601497650146484,0
401,4009857,-0.00774502195417881,-0.013584508560597897,-1.0065900087356567,1.3500440120697021,0.736799418926239,-0.0046706791035830975,30.208707809448242,-9.721414566040039,40.167606353759766,0
402,4020129,0.10588999837636948,-0.005143679678440094,-0.9908562302589417,0.8859555125236511,0.16010411083698273,0.06442688405513763,29.19027328491211,-10.281718254089355,40.37618637084961,0
403,4029957,0.09575004875659943,-0.08321714401245117,-0.9983057975769043,0.5871280431747437,-0.3928477466106415,0.3733392655849457,29.52704429626465,-10.157450675964355,40.560997009277344,0
404,4039831,0.07223138958215714,0.06763540208339691,-0.9819815158843994,0.16677096486091614,0.11681310832500458,0.4039468467235565,28.552480697631836,-9.861502647399902,40.0047721862793,0
405,4050124,0.007011436857283115,0.11799827218055725,-0.9835455417633057,-0.590735673904419,0.1265047788619995,-0.2746739685535431,30.693035125732422,-9.28612232208252,38.98052215576172,0
406,4059911,-0.010490182787179947,-0.013463729061186314,-0.989400327205658,0.10884656012058258,0.43835127353668213,-0.30646848678588867,29.2128963470459,-10.154810905456543,38.43388748168945,0
407,4070221,-0.001965146278962493,-0.05199749767780304,-1.0063800811767578,-0.3005192279815674,0.6935432553291321,0.4993603527545929,28.55199432373047,-11.023750305175781,40.63874435424805,0
408,4079852,0.034001998603343964,-0.053761787712574005,-0.9783309698104858,-0.980388343334198,-0.08082040399312973,0.21118901669979095,30.179702758789062,-10.983996391296387,38.87348556518555,0
409,4090125,0.012435670010745525,0.07810616493225098,-0.9974853992462158,-0.6370224952697754,-0.3108217418193817,-0.2893100380897522,28.454326629638672,-9.373909950256348,41.15546417236328,0
410,4100129,0.01166220847517252,-0.016661645844578743,-1.008865237236023,-0.7352141737937927,0.4091975688934326,0.01070014201104641,27.630172729492188,-9.559343338012695,39.795188903808594,0
411,4110011,-0.017055964097380638,0.04581235349178314,-0.9984040260314941,0.033432140946388245,0.13385096192359924,0.3260717988014221,30.011747360229492,-10.451546669006348,40.45485305786133,0
412,4119890,0.038836464285850525,0.07648807018995285,-0.9990070462226868,-0.6121218800544739,-0.22901354730129242,-0.4014238119125366,28.9208984375,-9.504673957824707,40.68463897705078,0
413,4129836,0.04418952018022537,-0.011262450367212296,-1.0165164470672607,-0.33407726883888245,0.16509026288986206,-0.4439505338668823,30.91486358642578,-9.718199729919434,40.53106689453125,0
414,4140355,-0.047975990921258926,0.06631306558847427,-0.9976128935813904,0.032076146453619,0.09664870798587799,-1.3656716346740723,30.224641799926758,-8.794065475463867,40.021697998046875,0
415,4149973,0.08084727823734283,-0.02660662680864334,-0.9879661798477173,-0.388968288898468,0.2413017600774765,0.28308942914009094,30.442142486572266,-11.755927085876465,38.596282958984375,0
416,4159846,0.0034454986453056335,0.023346729576587677,-0.9759358167648315,0.45784080028533936,0.37869781255722046,-0.5372241735458374,31.114782333374023,-11.200623512268066,39.37051010131836,0
417,4169992,-0.022342000156641006,0.018128054216504097,-0.9570250511169434,0.022216355428099632,0.48086249828338623,-0.2827158570289612,30.759531021118164,-9.168157577514648,39.809478759765625,0
418,4180022,-0.020017024129629135,0.010475801303982735,-0.9865341782569885,-0.16477181017398834,0.8512927293777466,-0.791304349899292,27.891311645507812,-8.364858627319336,40.27355194091797,0
419,4189719,-0.05572674423456192,0.027216298505663872,-0.9921935796737671,-0.8432145118713379,0.49256446957588196,-0.2141299545764923,29.9698543548584,-9.500749588012695,39.890254974365234,0
420,4199731,-0.021182529628276825,-0.025864291936159134,-1.0236806869506836,0.9674501419067383,0.24227674305438995,-0.6050060987472534,31.089757919311523,-8.860907554626465,40.75449752807617,0
421,4210138,-0.048411037772893906,-0.03376203030347824,-1.0006463527679443,-0.15439514815807343,-0.13011513650417328,1.1827478408813477,29.793725967407227,-9.393409729003906,39.00637435913086,0
422,4219904,0.0297832190990448,-0.0024559146258980036,-1.0315237045288086,1.0563734769821167,-0.2482578158378601,0.04324938356876373,30.90744400024414,-10.222521781921387,39.38006591796875,0
423,4230094,-0.007555694784969091,-0.0705019161105156,-0.9697650671005249,0.6522824168205261,0.13730551302433014,0.30918070673942566,29.060022354125977,-11.695533752441406,40.04033279418945,0
424,4240029,-0.011820637620985508,0.016316819936037064,-0.9927488565444946,0.08371640741825104,0.33098527789115906,0.5828396677970886,30.25225257873535,-9.763099670410156,39.22169876098633,0
425,4250134,0.049708083271980286,-0.07496318221092224,-0.9843574166297913,0.5836893916130066,-0.14457112550735474,-0.07976734638214111,31.3917236328125,-9.58098030090332,40.018367767333984,0
426,4260068,0.04470546171069145,0.017601963132619858,-0.9829818606376648,-0.857579231262207,-0.33125171065330505,-0.7128186225891113,30.152908325195312,-12.066940307617188,38.40245819091797,0
427,4270119,0.01889980025589466,-0.018858041614294052,-0.9867103695869446,-0.5063679814338684,0.11543713510036469,0.7308672666549683,29.18013572692871,-8.890562057495117,40.289249420166016,0
428,4280094,0.09040642529726028,0.04177417978644371,-1.007142424583435,0.5189515948295593,0.04320675507187843,0.3996015191078186,31.724092483520508,-11.460997581481934,39.11258316040039,0
429,4289891,0.07846993952989578,-0.022689778357744217,-0.9848185181617737,0.08570007234811783,-0.6849551796913147,0.20634877681732178,28.86520004272461,-10.528878211975098,41.75218200683594,0
430,4300075,-0.02518341690301895,0.09453229606151581,-0.9678400754928589,-0.15769821405410767,0.6680775880813599,0.17013373970985413,29.019723892211914,-8.383255004882812,40.237693786621094,0
431,4310054,-0.01837250590324402,-0.08509477972984314,-0.978017270565033,0.46359142661094666,1.1024991273880005,0.26690760254859924,30.409669876098633,-10.447057723999023,40.913631439208984,0
432,4319974,-0.011109783314168453,0.0027981773018836975,-0.9878605008125305,0.21248435974121094,0.11351718753576279,-0.036746248602867126,30.377708435058594,-9.045355796813965,40.03307342529297,0
433,4330029,0.013298004865646362,-0.033422358334064484,-1.0135821104049683,-0.09275809675455093,0.1353754997253418,-0.0756852924823761,31.304166793823242,-9.837763786315918,39.92277145385742,0
434,4340015,-0.03409390524029732,0.08789508789777756,-0.9943366050720215,-0.691702127456665,-0.42072582244873047,0.12101545929908752,31.346195220947266,-10.207194328308105,40.637081146240234,0
435,4350062,0.03009103052318096,0.0507134273648262,-0.9950044751167297,-0.14538896083831787,-1.149098515510559,0.4130921959877014,29.728519439697266,-9.662906646728516,40.79655075073242,0
436,4359652,0.05031251907348633,-0.004471263382583857,-1.0020602941513062,-0.6114670038223267,-0.8132337331771851,-0.102622389793396,28.791248321533203,-9.562932014465332,37.24846267700195,0
437,4370110,-0.03563838079571724,0.021987007930874825,-1.0102436542510986,1.4014276266098022,-0.08940646052360535,0.01766340620815754,30.989545822143555,-9.201970100402832,40.08891296386719,0
438,4380039,0.04110853001475334,-0.010315981693565845,-1.0051189661026,0.24106186628341675,-0.02017137035727501,-1.8479785919189453,29.653594970703125,-10.830831527709961,40.99907302856445,0
439,4389982,0.027014950290322304,-0.014701713807880878,-0.9871362447738647,0.7310925722122192,-0.3679341673851013,0.3709413409233093,28.666505813598633,-9.671743392944336,38.659149169921875,0
440,4399800,0.008549091406166553,0.002399411052465439,-1.017250657081604,-0.32340648770332336,0.008483444340527058,0.5028130412101746,28.990434646606445,-10.035459518432617,41.56454849243164,0
441,4409959,0.052646514028310776,-0.053469218313694,-1.0171594619750977,-0.3239000141620636,-0.13106706738471985,0.4700343608856201,30.010372161865234,-9.994001388549805,38.7867317199707,0
442,4420172,-0.10269936919212341,0.03776154667139053,-1.0029150247573853,0.6318128108978271,0.4451909363269806,0.36526229977607727,28.629409790039062,-8.933083534240723,40.189815521240234,0
443,4429967,0.03216451779007912,-0.02049914002418518,-0.9791382551193237,0.7156074047088623,-0.4307922124862671,0.2990944981575012,31.336463928222656,-9.437739372253418,39.03446960449219,0
444,4440161,0.012826274149119854,-0.04688774794340134,-0.9992451667785645,0.13571253418922424,-0.0019698499236255884,0.5152794718742371,31.753448486328125,-10.968310356140137,41.589637756347656,0
445,4450034,0.07482767850160599,-0.049625933170318604,-1.0066699981689453,-0.03165889158844948,-0.7147344350814819,-0.1548975259065628,29.715620040893555,-10.326434135437012,40.1656379699707,0
446,4459885,-0.017311941832304,-0.07399595528841019,-1.039446234703064,0.8746054172515869,-0.7550563812255859,0.6849651336669922,27.861669540405273,-10.208921432495117,42.1693115234375,0
447,4469939,-0.031489498913288116,0.004386416636407375,-1.003586769104004,0.4273795187473297,-0.4387345612049103,0.12424038350582123,31.111276626586914,-8.747758865356445,41.4019889831543,0
448,4479979,0.07936729490756989,-0.01114480011165142,-0.9364220499992371,0.3864063620567322,-0.37696632742881775,-0.24032987654209137,30.29792022705078,-10.041872024536133,40.408485412597656,0
449,4490052,-0.013705464079976082,0.01011553406715393,-1.0004656314849854,-0.28230154514312744,-1.4132368564605713,0.29257136583328247,30.61252784729004,-9.641217231750488,40.77122116088867,0
450,4500046,0.021989230066537857,0.002029663184657693,-0.9638537168502808,0.36040517687797546,0.45122018456459045,0.49985235929489136,30.233203887939453,-10.313833236694336,38.16331100463867,0
451,4509984,0.0567571260035038,0.07522322982549667,-1.0002591609954834,0.6550717353820801,-0.3627038896083832,-0.38313907384872437,30.7303524017334,-9.423079490661621,39.76553726196289,0
452,4520156,-0.0918494388461113,0.030697880312800407,-1.0299086570739746,-0.10286789387464523,-1.1217695474624634,-0.12458709627389908,31.589773178100586,-7.716938495635986,38.56597137451172,0
453,4529704,0.025082482025027275,-0.031367622315883636,-1.040187120437622,0.2238447666168213,-0.09184464812278748,-0.466261625289917,29.104618072509766,-10.704472541809082,40.3397331237793,0
454,4540186,-0.06756016612052917,0.0478321872651577,-0.9926426410675049,0.13760283589363098,-0.06098998710513115,-0.1687803864479065,30.45555877685547,-11.041116714477539,40.198822021484375,0
455,4550139,0.006212676875293255,0.012642934918403625,-0.996562659740448,0.8445870280265808,-0.7626030445098877,-0.07720908522605896,28.444143295288086,-9.216658592224121,40.292701721191406,0
456,4559938,-0.09112054854631424,-0.049244847148656845,-0.9985915422439575,0.5724607110023499,0.3953818082809448,0.08659873157739639,30.038341522216797,-9.975310325622559,40.97652053833008,0
457,4569733,0.03289147838950157,0.03298963978886604,-1.011138677597046,0.5208631157875061,0.2746999263763428,-0.1654479056596756,30.946964263916016,-10.189465522766113,39.060611724853516,0
458,4580005,0.003768929047510028,0.08485677093267441,-1.0282889604568481,0.11528211086988449,0.3008442223072052,-0.019941110163927078,28.733556747436523,-11.222347259521484,39.906429290771484,0
459,4590029,0.039303675293922424,-0.012956508435308933,-0.9897168278694153,-0.2287113219499588,-0.135297492146492,0.20972302556037903,30.77932357788086,-10.96037769317627,37.17860412597656,0
460,4600181,-0.13460704684257507,-0.015252950601279736,-0.9915362596511841,-0.18909355998039246,-0.2134399265050888,0.2299690544605255,29.875381469726562,-9.623557090759277,40.1690559387207,0
461,4610200,0.016374453902244568,0.02315927855670452,-1.0141907930374146,0.2576269209384918,-0.4355025291442871,0.19204972684383392,28.97463607788086,-9.190632820129395,40.5960693359375,0
462,4619854,0.07195328921079636,-0.05620142072439194,-1.0021003484725952,0.719071090221405,-0.255429208278656,-0.4326256811618805,27.82176399230957,-9.592154502868652,41.33302307128906,0
463,4630024,0.026248198002576828,0.019343260675668716,-0.9756441116333008,-1.2171058654785156,-0.7715964913368225,-0.2398914247751236,30.61343002319336,-9.738886833190918,40.547035217285156,0
464,4640153,-0.07482112944126129,-0.08024152368307114,-1.0458934307098389,0.04929760470986366,0.23506608605384827,0.22197102010250092,30.71338653564453,-10.117003440856934,40.6694221496582,0
465,4649865,0.12946157157421112,-0.06598418205976486,-0.9950268864631653,-0.7948861122131348,0.057889409363269806,0.09155739843845367,27.91531753540039,-8.902080535888672,39.77924346923828,0
466,4659897,0.03871430829167366,0.06567643582820892,-1.0031683444976807,0.7902931571006775,-0.4381551444530487,0.3223142623901367,28.24024772644043,-9.781875610351562,40.33395004272461,0
467,4670271,0.03342031314969063,0.0071529787965118885,-1.0081450939178467,-0.028259538114070892,-0.7765668630599976,-0.3169962167739868,29.74518394470215,-8.0657320022583,39.41900634765625,0
468,4680000,-0.0038515436463057995,0.03964247182011604,-0.9840413331985474,-0.33089542388916016,0.13043421506881714,0.048321232199668884,29.703495025634766,-10.509156227111816,39.25498580932617,0
469,4690023,0.09383929520845413,-0.038128502666950226,-1.010355830192566,-0.2810525894165039,0.194834902882576,-0.14454996585845947,30.301855087280273,-10.364029884338379,41.096107482910156,0
470,4700243,0.11380285769701004,-0.04452015832066536,-0.9954200983047485,0.14480333030223846,0.009274167940020561,0.9306764602661133,30.96257972717285,-10.034814834594727,39.998939514160156,0
471,4710222,-0.01004568301141262,-0.008184517733752728,-1.0139894485473633,-0.06005552038550377,-0.57632976770401,1.1673921346664429,27.846891403198242,-11.16258430480957,41.43755340576172,0
472,4720074,0.04766164347529411,0.006836580112576485,-1.041011929512024,0.23149548470973969,0.5660684108734131,0.26162564754486084,28.24619483947754,-9.831487655639648,39.267093658447266,0
473,4730092,0.0011829780414700508,-0.027685416862368584,-0.9648940563201904,-0.2507575750350952,-0.2711872160434723,-0.6934694051742554,29.527647018432617,-9.422497749328613,40.743751525878906,0
474,4739861,-0.06436384469270706,-0.067340187728405,-1.015108346939087,-0.37631312012672424,0.3033068776130676,0.34812915325164795,29.891145706176758,-9.602428436279297,41.59300231933594,0
475,4749828,-0.020551772788167,-0.023619702085852623,-0.9905155301094055,-0.3480268120765686,-0.7650459408760071,0.7172037363052368,29.31663703918457,-9.755871772766113,39.541927337646484,0
476,4759783,-0.016056491062045097,0.035920899361371994,-0.9817197918891907,0.5305901169776917,0.18918582797050476,0.06262937188148499,30.81161880493164,-9.00637435913086,40.32270431518555,0
477,4769989,0.03568016365170479,-0.024069763720035553,-0.9978188872337341,-0.4946957528591156,-0.12211789935827255,0.00866649765521288,28.74829864501953,-9.234842300415039,41.67055130004883,0
478,4779837,-0.02234245464205742,-0.001508007408119738,-0.9688229560852051,-0.6326029896736145,-0.06485717743635178,-0.2781978249549866,30.58603286743164,-8.613698959350586,41.077388763427734,0
479,4790101,-0.04727960750460625,-0.05492345988750458,-1.0129746198654175,-0.5715653896331787,-0.04233033210039139,0.10648346692323685,28.990930557250977,-9.570985794067383,40.249019622802734,0
480,4800132,-0.0319342315196991,-0.04459259286522865,-0.9822804927825928,0.029068101197481155,-0.5942042469978333,0.41009312868118286,30.73828125,-8.952871322631836,38.762237548828125,0
481,4809879,-0.04230925068259239,0.05058685317635536,-0.9874656796455383,-0.01863248646259308,-0.27964022755622864,-1.2108635902404785,28.98373031616211,-9.257502555847168,39.18894577026367,0
482,4820069,0.008722925558686256,-0.003769035916775465,-0.9890472888946533,-0.35176363587379456,0.469587117433548,-0.7535964250564575,32.221771240234375,-10.539979934692383,40.00121307373047,0
483,4829860,0.02501632086932659,-0.04727345332503319,-1.021299123764038,0.4200361967086792,0.6901220679283142,0.7264730930328369,29.890880584716797,-10.114537239074707,39.54533004760742,0
484,4839990,-0.0003530463727656752,-0.04495077580213547,-1.0169192552566528,-0.8081132173538208,0.08778295665979385,0.5039421916007996,31.141990661621094,-9.505187034606934,38.947696685791016,0
485,4849644,-0.061096664518117905,0.010330889374017715,-0.9880360960960388,-0.32580432295799255,-0.3858948051929474,0.1717674285173416,29.878639221191406,-8.86104679107666,40.504459381103516,0
486,4860001,-0.013543397188186646,-0.035722244530916214,-1.0148811340332031,-0.8702564239501953,0.3182353675365448,-0.3935430645942688,30.250762939453125,-8.808887481689453,37.83871078491211,0
487,4869726,0.03082491271197796,0.017098424956202507,-0.9972091913223267,0.12989582121372223,0.41553986072540283,0.31581494212150574,30.80071258544922,-8.647782325744629,40.5266227722168,0
488,4879882,-0.02243375964462757,-0.10162444412708282,-0.9816088080406189,0.6226242184638977,-0.008072937838733196,0.24361522495746613,29.707704544067383,-11.199569702148438,39.82660675048828,0
489,4889728,0.019116364419460297,0.03245050460100174,-0.9676352143287659,0.29920026659965515,-0.29913464188575745,0.12337987124919891,29.86624526977539,-8.1964750289917,40.5309944152832,0
490,4899950,-0.04840010032057762,-0.02505241334438324,-0.9834212064743042,0.446984201669693,-0.03794698789715767,0.5537698268890381,28.16729164123535,-9.86982250213623,41.13092803955078,0
491,4910079,-0.020942529663443565,-0.005718651693314314,-1.0206505060195923,-0.262858122587204,0.32481250166893005,-0.6152040958404541,29.203983306884766,-11.044550895690918,39.69160461425781,0
492,4919918,0.06290118396282196,0.005559130571782589,-0.9778473973274231,0.05461234599351883,0.17349398136138916,0.8345925807952881,29.07269859313965,-9.08902645111084,42.0987548828125,0
493,4930011,0.014318705536425114,-0.030643433332443237,-1.0207825899124146,0.33724725246429443,-0.35867685079574585,0.18431982398033142,29.87412452697754,-11.620465278625488,39.74037170410156,0
494,4940164,0.012404181063175201,0.0031704565044492483,-1.0149227380752563,0.3100965619087219,-0.004200299736112356,0.1694898009300232,30.565349578857422,-10.47725772857666,39.8392333984375,0
495,4950143,0.039308302104473114,-0.03343616798520088,-1.0212265253067017,0.3212182819843292,-0.03626811131834984,-0.427375853061676,30.010950088500977,-11.187427520751953,39.374576568603516,0
496,4959829,0.01572944037616253,-0.006028455216437578,-1.0195698738098145,-0.40815040469169617,-0.21790464222431183,-0.017746221274137497,31.385251998901367,-9.803156852722168,38.99506759643555,0
497,4970052,0.0871373787522316,-0.06423895806074142,-0.9998626112937927,-0.14360305666923523,-0.4321829080581665,0.9738394021987915,28.425594329833984,-9.292349815368652,41.34829330444336,0
498,4979920,-0.017856575548648834,-0.04027600958943367,-1.0154662132263184,-0.4307882487773895,0.05518064647912979,-0.11367209255695343,29.026885986328125,-8.901848793029785,41.76715850830078,0
499,4990156,-0.03237314149737358,0.009796750731766224,-1.009596347808838,-0.2540683448314667,0.43907228112220764,0.2758200466632843,29.12795066833496,-10.688210487365723,40.12102127075195,0
500,4999758,0.007801917381584644,-0.0319015197455883,-1.0198848247528076,-0.8883539438247681,-0.03541962429881096,0.8001949191093445,31.245267868041992,-11.018256187438965,40.54182052612305,0
501,5009875,-0.027265610173344612,-0.02633862942457199,-1.0139425992965698,0.20822523534297943,-0.3233085870742798,-0.7194458842277527,29.885372161865234,-8.700448989868164,39.43511199951172,0
502,5020064,0.002964574843645096,0.02122453972697258,-0.97944176197052,0.19750353693962097,0.06611698865890503,1.2187044620513916,30.205183029174805,-9.812599182128906,41.153594970703125,0
503,5030010,0.019932789728045464,0.0119007658213377,-1.0089211463928223,0.8385667204856873,-0.15796637535095215,-0.3274727463722229,29.928434371948242,-9.965178489685059,39.02898406982422,0
504,5040198,0.01610575243830681,0.02010761760175228,-0.9836783409118652,-0.0953073725104332,0.3182275891304016,-0.32125937938690186,29.860578536987305,-10.161166191101074,40.47494125366211,0
505,5049963,-0.00565292127430439,-0.027678312733769417,-1.0361180305480957,0.28944501280784607,-0.46420910954475403,-0.4832392930984497,30.035335540771484,-10.541505813598633,39.34915542602539,0
506,5060010,0.0277031771838665,0.020063556730747223,-1.0000081062316895,0.04117592051625252,0.08527623116970062,-0.21965201199054718,28.859851837158203,-11.334023475646973,39.28490447998047,0
507,5069748,-0.033517733216285706,-0.09524037688970566,-1.0017569065093994,0.06827066093683243,-0.28351694345474243,0.21189047396183014,28.632280349731445,-9.304354667663574,40.5070686340332,0
508,5080104,-0.09456878900527954,0.027481647208333015,-1.0434138774871826,0.4148937463760376,0.35373347997665405,0.10695060342550278,29.94484519958496,-9.779106140136719,39.60959243774414,0
509,5090154,-0.019081417471170425,-0.07526471465826035,-1.018108606338501,-0.5510454773902893,1.3085588216781616,0.2974977493286133,29.458335876464844,-9.623008728027344,40.84537887573242,0
510,5100214,0.037306614220142365,0.004332772921770811,-1.0145095586776733,-1.01047945022583,0.059509631246328354,-0.13367703557014465,29.68659019470215,-11.099512100219727,40.50768280029297,0
511,5109941,-0.03795165196061134,-0.07471811026334763,-0.997031033039093,-0.3382471799850464,0.10897782444953918,-0.14125928282737732,30.85692024230957,-10.075523376464844,39.34576416015625,0
512,5120069,-0.01748385652899742,-0.110347218811512,-1.0254648923873901,-0.19693182408809662,0.7415285110473633,-0.15033335983753204,28.799022674560547,-10.264086723327637,40.242374420166016,0
513,5129838,0.08820123225450516,0.08886431902647018,-0.9934288263320923,-0.7685239911079407,0.13746513426303864,0.49651649594306946,30.326839447021484,-9.41293716430664,40.084712982177734,0
514,5139903,-0.025178292766213417,0.09947741776704788,-1.007746934890747,-0.3428083658218384,-0.17745032906532288,-0.001918412046507001,29.349565505981445,-9.37830638885498,39.49053192138672,0
515,5150401,0.05903969332575798,-0.10125311464071274,-1.0078442096710205,-0.18346412479877472,-0.15351712703704834,-0.3300915062427521,28.33563995361328,-9.646073341369629,40.5111198425293,0
516,5159851,-0.019802475348114967,0.008894911967217922,-0.9947635531425476,0.0060191769152879715,-1.046259880065918,-0.14422476291656494,28.94510841369629,-11.161171913146973,40.025840759277344,0
517,5169907,-0.0332978218793869,-0.04940538853406906,-0.9908807873725891,-0.3898267149925232,0.4111398160457611,-0.7952072620391846,31.52505874633789,-11.092348098754883,40.26144790649414,0
518,5180040,-0.044867146760225296,0.019427374005317688,-1.0164073705673218,-0.42035627365112305,-0.8501397967338562,-0.15326626598834991,30.823625564575195,-9.076483726501465,39.75090026855469,0
519,5190073,-0.04149025306105614,-0.006138486787676811,-1.017094612121582,0.11422218382358551,-0.3167216181755066,-0.23560303449630737,30.33505630493164,-9.808947563171387,40.4889030456543,0
520,5199624,-0.025023870170116425,0.0778694823384285,-1.0203906297683716,-0.07556289434432983,-0.40360379219055176,-0.5511029958724976,29.048625946044922,-11.682778358459473,39.413368225097656,0
521,5209960,-0.033246107399463654,0.0029412652365863323,-1.029569387435913,-0.5851100087165833,-0.318654865026474,0.2560575008392334,31.267383575439453,-10.694867134094238,38.54981994628906,0
522,5219897,-0.039891988039016724,0.037869591265916824,-1.0038000345230103,0.6231791973114014,0.4728040099143982,-0.11444634199142456,28.6950740814209,-10.353166580200195,38.575416564941406,0
523,5230130,-0.048811592161655426,0.001149629009887576,-0.9855619668960571,0.24658185243606567,0.4413909912109375,-0.03544165939092636,30.33238983154297,-8.806502342224121,40.78606414794922,0
524,5240101,0.019257720559835434,0.019723016768693924,-0.9751166701316833,0.30251190066337585,-0.8864523768424988,0.0016632466576993465,31.423925399780273,-9.41541862487793,41.668983459472656,0
525,5250069,-0.04795324057340622,-0.026494812220335007,-0.9942536354064941,0.1848289519548416,0.3969440758228302,0.7117985486984253,29.05579948425293,-7.1076273918151855,40.29994583129883,0
526,5259982,-0.08356903493404388,-0.06038672849535942,-1.0020325183868408,0.7609025239944458,-0.17619027197360992,-1.167009949684143,31.19960594177246,-10.392104148864746,38.66444396972656,0
527,5269819,0.00602503027766943,-0.027417471632361412,-0.9943394660949707,-0.21842379868030548,-0.11236273497343063,-0.9829347133636475,30.489110946655273,-9.205041885375977,40.12348556518555,0
528,5280242,-0.06918364763259888,-0.0015138457529246807,-1.0067888498306274,1.1224455833435059,0.29103735089302063,-0.43693891167640686,28.879587173461914,-10.53521728515625,40.65006637573242,0
529,5289933,-0.03456754982471466,-0.0033515123650431633,-0.9920268058776855,-0.20051805675029755,0.14830510318279266,-0.4229047894477844,30.14895248413086,-9.456405639648438,40.675052642822266,0
530,5300328,-0.04046809300780296,-0.005167917348444462,-1.0011032819747925,1.3285090923309326,-0.18996751308441162,0.6845508217811584,30.887676239013672,-8.742842674255371,39.859134674072266,0
531,5309886,0.07716408371925354,-0.03723665699362755,-1.0155073404312134,-0.961268424987793,0.19395096600055695,1.1148872375488281,32.30234146118164,-10.312910079956055,40.166717529296875,0
532,5320049,-0.017940979450941086,-0.016489490866661072,-1.0274804830551147,-1.067625880241394,-0.28481701016426086,1.0852545499801636,29.768884658813477,-10.054046630859375,39.89994812011719,0
533,5329968,-0.05002637580037117,0.06266570091247559,-1.0182210206985474,-0.1785830855369568,0.5469447374343872,0.06132043898105621,28.807355880737305,-10.670180320739746,40.465362548828125,0
534,5339690,-0.002218622248619795,0.01959718018770218,-1.0137763023376465,-0.21400761604309082,0.14896246790885925,-0.08314817398786545,29.90851402282715,-9.474882125854492,41.04292297363281,0
535,5350152,0.058614883571863174,-0.0001963806280400604,-0.9901275634765625,-0.24730122089385986,0.582821786403656,0.11097228527069092,29.05218505859375,-10.460281372070312,40.360755920410156,0
536,5360069,0.0012682386441156268,-0.0729798674583435,-0.9679548144340515,-0.2827634811401367,-0.7575435638427734,0.47939473390579224,30.491588592529297,-7.925447940826416,41.443275451660156,0
537,5370013,0.02372279018163681,-0.005656315945088863,-1.0294383764266968,-0.065071702003479,0.20765067636966705,-0.864271342754364,30.228721618652344,-9.961681365966797,39.040000915527344,0
538,5380150,-0.05773205682635307,-0.043562036007642746,-1.0053503513336182,-0.05924324318766594,0.711002767086029,-0.26556453108787537,28.97817039489746,-9.55864429473877,40.309078216552734,0
539,5389981,0.047817736864089966,-0.026509353891015053,-1.0008271932601929,-0.5612077713012695,0.11883912980556488,0.060092344880104065,29.589061737060547,-11.589983940124512,39.95611572265625,0
540,5400274,-0.003135829931125045,-0.10157867521047592,-1.018146276473999,0.572588324546814,-0.2555530071258545,-0.24317437410354614,31.284582138061523,-9.875995635986328,40.76148986816406,0
541,5409969,0.027552276849746704,0.00799587182700634,-1.0034165382385254,0.1681269258260727,0.4853145182132721,0.28048714995384216,29.46010971069336,-10.173717498779297,41.24753189086914,0
542,5420175,-0.03202233090996742,-0.021871116012334824,-1.03297758102417,-0.6719558835029602,-0.8619114756584167,-0.821937620639801,31.353565216064453,-10.359615325927734,38.306556701660156,0
543,5430246,-0.005174326244741678,0.08615446835756302,-1.0053966045379639,0.001946101663634181,0.18638195097446442,-0.4016030728816986,30.661033630371094,-10.213495254516602,40.49831771850586,0
544,5439913,0.025024371221661568,0.03607230260968208,-1.0104888677597046,-0.8085198998451233,-0.7053638100624084,0.29465681314468384,29.392576217651367,-10.97264289855957,40.52872085571289,0
545,5449925,0.010434424504637718,-0.01970898173749447,-0.9913680553436279,-0.6303489208221436,0.21899206936359406,-0.2748345732688904,29.669570922851562,-10.767108917236328,40.920997619628906,0
546,5459931,0.007551389280706644,-0.01929328963160515,-1.0059667825698853,-0.14281877875328064,0.1399170309305191,0.5158026218414307,31.372026443481445,-9.898438453674316,40.74922561645508,0
547,5469935,-0.10004855692386627,0.04905683174729347,-0.9894818067550659,-0.37136438488960266,0.6233941316604614,0.19108428061008453,29.347673416137695,-9.96088695526123,39.734012603759766,0
548,5480069,-0.04164541885256767,-0.03919452428817749,-0.9909204244613647,0.3667370080947876,-0.7462460994720459,-0.6587750315666199,28.66374969482422,-9.354475021362305,40.59292221069336,0
549,5490068,0.0889204666018486,-0.07318779826164246,-1.0005568265914917,-0.5190602540969849,-0.9461051821708679,0.7352966666221619,31.838924407958984,-11.290510177612305,40.880550384521484,0
550,5500066,-0.08997086435556412,-0.054146021604537964,-0.996174693107605,-0.16905096173286438,0.17445577681064606,0.3784589469432831,30.851335525512695,-9.57108211517334,40.97759246826172,0
551,5510023,-0.04124583676457405,0.07485048472881317,-0.9862405061721802,-0.08918844908475876,-0.25338995456695557,-0.1494201421737671,30.793062210083008,-8.897804260253906,40.368892669677734,0
552,5519881,0.019598335027694702,0.08409634232521057,-1.0086219310760498,-0.1251247078180313,-0.07041206955909729,0.8131158947944641,29.97718620300293,-9.143559455871582,40.141109466552734,0
553,5529878,0.042537789791822433,0.017530011013150215,-0.9876517653465271,-0.7262463569641113,0.0260529313236475,0.9741857051849365,31.901039123535156,-7.530184745788574,40.03977584838867,0
554,5539914,0.011063680052757263,-0.03859986364841461,-1.010172963142395,0.09614790230989456,-0.7535154819488525,-0.1594536304473877,29.502622604370117,-11.718792915344238,39.16750717163086,0
555,5549966,-0.00929991900920868,0.009574351832270622,-1.0217229127883911,0.30950435996055603,0.22513650357723236,-0.3276102840900421,29.59782600402832,-8.829940795898438,39.18852233886719,0
556,5560046,0.015137297101318836,-0.00934749748557806,-1.0318784713745117,0.27465391159057617,-0.2597874701023102,-0.23251251876354218,30.918161392211914,-10.191910743713379,38.26224136352539,0
557,5570045,0.030952122062444687,-0.03869065269827843,-1.0180342197418213,-0.23740339279174805,0.22516494989395142,0.424590528011322,28.96923065185547,-9.75145435333252,38.82963943481445,0
558,5579928,0.08458610624074936,-0.0013280133716762066,-0.9764265418052673,0.44020771980285645,-0.5029970407485962,0.14211733639240265,29.925161361694336,-11.166735649108887,40.019657135009766,0
559,5590085,-0.058915652334690094,-0.0314219631254673,-1.0050750970840454,-1.4485450983047485,-1.2256412506103516,1.4038015604019165,30.138031005859375,-11.463601112365723,39.53004455566406,0
560,5600240,0.0032848529517650604,-0.04239571467041969,-0.9857638478279114,-0.8683109283447266,0.04435586929321289,-0.028020670637488365,30.755203247070312,-8.321013450622559,41.133628845214844,0
561,5609826,0.009406844154000282,0.008297257125377655,-0.9833492636680603,0.04172585904598236,-0.05847397819161415,0.43349987268447876,30.677963256835938,-8.0320463180542,40.60633850097656,0
562,5619908,0.0327560231089592,-0.046994470059871674,-0.9678753614425659,-0.7889320850372314,0.22226151823997498,0.01141124963760376,29.35639762878418,-10.471458435058594,38.7432861328125,0
563,5629799,0.037107113748788834,0.032888200134038925,-1.0063588619232178,0.7782536149024963,0.34120118618011475,-0.9465529918670654,29.705097198486328,-7.883498191833496,41.63032150268555,0
564,5640072,0.04215223714709282,-0.03961056470870972,-1.0022146701812744,0.0790008008480072,-0.0970361977815628,-0.5923696160316467,28.505340576171875,-10.042628288269043,39.66094970703125,0
565,5650163,-0.04943402484059334,0.06169642135500908,-1.0261199474334717,0.13495555520057678,-0.5504946708679199,-0.4178714454174042,30.224817276000977,-10.306341171264648,39.3361930847168,0
566,5659911,-0.035913556814193726,-0.06985390931367874,-0.9755110144615173,0.1595974713563919,-0.3810177445411682,0.0933053269982338,30.203874588012695,-10.248565673828125,40.08035659790039,0
567,5670058,-0.023388024419546127,-0.03516583517193794,-0.9934126734733582,1.6266366243362427,0.6406316757202148,0.0840027928352356,29.170608520507812,-8.978592872619629,40.647560119628906,0
568,5680068,-0.01465530414134264,0.010011225007474422,-1.0147836208343506,0.26659590005874634,0.32582271099090576,-0.12291951477527618,29.59552764892578,-9.643306732177734,40.17642593383789,0
569,5689983,-0.0027012797072529793,0.02826674096286297,-0.9930134415626526,-0.35860633850097656,0.36857694387435913,-1.1766932010650635,29.84495735168457,-10.384137153625488,41.145301818847656,0
570,5699942,-0.016279786825180054,-0.020158058032393456,-1.016481876373291,-0.005593629088252783,-0.5090462565422058,0.14560149610042572,29.595922470092773,-10.665926933288574,39.3880615234375,0
571,5709964,0.03266948461532593,0.016212625429034233,-0.9736575484275818,-0.1660812348127365,0.8080157041549683,0.07403993606567383,30.09114646911621,-10.933794021606445,39.1324577331543,0
572,5720074,0.10650087147951126,0.01760023832321167,-0.9946971535682678,-0.2398899793624878,0.8900550007820129,0.5684468746185303,31.274202346801758,-8.22107982635498,40.29355239868164,0
573,5730134,-0.023962844163179398,0.026853429153561592,-0.9908730387687683,0.013226148672401905,0.2475573718547821,-0.4499868154525757,30.245981216430664,-9.870375633239746,41.82795333862305,0
574,5740080,-0.053669847548007965,-0.009789950214326382,-1.0029348134994507,-0.6634599566459656,-0.6743464469909668,0.22585958242416382,29.70475196838379,-9.849178314208984,41.55272674560547,0
575,5750316,-0.08805375546216965,-0.019125917926430702,-0.9977557063102722,0.5745241641998291,0.44930097460746765,0.1233968585729599,29.42171859741211,-9.906452178955078,39.64836502075195,0
576,5759992,0.010026582516729832,0.04119006544351578,-0.9725426435470581,-0.46604472398757935,-0.3520878553390503,-0.20058488845825195,28.894277572631836,-10.861157417297363,38.26405715942383,0
577,5769950,0.06614700704813004,0.004012899938970804,-0.9957035183906555,-0.053346287459135056,0.32974210381507874,-0.018593572080135345,29.895898818969727,-11.131233215332031,38.86284255981445,0
578,5779959,0.04879402741789818,-0.0328582338988781,-0.9990218877792358,-1.6078902262961492e-05,-0.10805084556341171,-0.42106083035469055,30.59483528137207,-9.935885429382324,39.1720085144043,0
579,5790043,0.10398535430431366,-0.01597698964178562,-0.9947417974472046,-0.1563463658094406,0.8086608648300171,-0.31803926825523376,30.914600372314453,-9.586729049682617,38.875545501708984,0
580,5800190,0.05662503466010094,0.05164320021867752,-0.9907029271125793,-0.14966244995594025,0.0700545608997345,-0.3318382203578949,30.907432556152344,-7.544859409332275,39.92793655395508,0
581,5809993,0.04605541378259659,0.005779528059065342,-1.0236376523971558,-0.129001647233963,-0.21704120934009552,-0.2837284803390503,29.890087127685547,-9.483723640441895,39.99908447265625,0
582,5819897,0.02217574417591095,0.06288568675518036,-0.9995221495628357,0.48269015550613403,0.5447723865509033,-0.2385149449110031,30.436447143554688,-11.02459716796875,39.44753646850586,0
583,5829903,0.045533496886491776,0.08325772732496262,-1.022871732711792,0.3295530676841736,-0.924189567565918,-0.733188807964325,31.121578216552734,-7.461450576782227,41.52355194091797,0
584,5839948,0.022099807858467102,0.023532044142484665,-1.0142509937286377,-0.211196631193161,-0.2766765058040619,-0.7445533871650696,29.40116310119629,-9.867838859558105,40.48744201660156,0
585,5850145,-0.03884655237197876,0.036710791289806366,-0.9905848503112793,0.914739727973938,-0.4315710961818695,-0.5489177107810974,30.380502700805664,-9.633295059204102,40.230838775634766,0
586,5860184,-0.08524151891469955,-0.1063850075006485,-1.0093817710876465,-0.12437427043914795,0.18810638785362244,0.1477380245923996,31.078584671020508,-9.822064399719238,39.03947830200195,0
587,5870060,-0.02794412337243557,0.012005127966403961,-1.0108827352523804,-0.43944379687309265,0.49602705240249634,0.24404604732990265,30.696361541748047,-9.592753410339355,39.147239685058594,0
588,5879919,-0.040211793035268784,-0.04876730218529701,-1.0130137205123901,-0.6292473673820496,0.23586641252040863,-0.6424707174301147,31.02545928955078,-9.157573699951172,38.943695068359375,0
589,5889899,0.06634203344583511,-0.040248334407806396,-1.006781816482544,-0.9177760481834412,0.3863666355609894,-0.34699976444244385,29.506357192993164,-12.006917953491211,38.73182678222656,0
590,5900155,-0.014110585674643517,0.02826164849102497,-0.9816564917564392,-1.1609342098236084,-0.41456589102745056,-0.6332485675811768,29.93117904663086,-9.093737602233887,39.97999954223633,0
591,5910072,-0.11119557917118073,0.06000838056206703,-0.9882062077522278,-0.1702703833580017,-0.8984346985816956,0.011872980743646622,28.922412872314453,-8.925186157226562,40.1304817199707,0
592,5920099,-0.0030545666813850403,-0.03475227206945419,-1.0106337070465088,0.4166715145111084,0.6675150990486145,0.17664316296577454,29.11730194091797,-10.711918830871582,40.33927917480469,0
593,5929994,-0.030947495251893997,0.024856433272361755,-1.0009485483169556,0.5581288933753967,0.38417378067970276,-0.13025036454200745,29.888002395629883,-10.61362075805664,40.35633087158203,0
594,5940075,0.04789130017161369,0.031697582453489304,-1.0037682056427002,-0.2315400391817093,-0.0351107120513916,-0.5213401317596436,30.07105255126953,-10.431816101074219,39.658103942871094,0
595,5950083,0.08056144416332245,-0.022722791880369186,-0.9823945164680481,-0.20636719465255737,-0.25111663341522217,-0.5034461617469788,31.61023712158203,-9.070754051208496,39.74692153930664,0
596,5960296,0.044415492564439774,-0.05714939534664154,-1.0374623537063599,-0.591120719909668,0.8267048001289368,0.06686520576477051,28.1232852935791,-8.282894134521484,39.27224349975586,0
597,5970057,0.02810763567686081,0.07144854962825775,-1.0316277742385864,0.14187857508659363,-0.08339991420507431,0.28022611141204834,30.942453384399414,-10.546968460083008,39.213253021240234,0
598,5980272,0.059482142329216,-0.04924287274479866,-1.025661826133728,-0.3308810591697693,0.12625771760940552,-0.12037644535303116,31.334869384765625,-8.929142951965332,39.793556213378906,0
599,5990034,0.06836964190006256,-0.019250182434916496,-1.0039018392562866,-0.6907162070274353,-0.5471097826957703,0.14541243016719818,30.529085159301758,-9.20530891418457,40.03717803955078,0
600,5999726,-0.08009667694568634,-0.015765365213155746,-0.9849151372909546,0.17535065114498138,0.260484904050827,-0.11595796048641205,30.964513778686523,-10.609833717346191,39.58562469482422,0
601,6009907,-0.09317508339881897,0.011018780060112476,-0.9915476441383362,-0.5456278324127197,-0.18127845227718353,0.7235817313194275,30.03950309753418,-10.663028717041016,40.65614700317383,0
602,6019802,0.15668493509292603,-0.023616116493940353,-0.9924390316009521,-0.1006772592663765,0.6452986598014832,0.09006606787443161,28.649333953857422,-9.428196907043457,40.477664947509766,0
603,6030288,-0.0497058667242527,-0.04266606643795967,-1.0010906457901,0.4552868604660034,0.39433372020721436,-0.04805104807019234,29.22100257873535,-9.431390762329102,39.77167892456055,0
604,6040081,0.01042592991143465,0.0019033565185964108,-0.9583253860473633,-0.009955205023288727,-0.6984168291091919,0.14630748331546783,29.268781661987305,-9.070929527282715,39.79873275756836,0
605,6049877,-0.012206903658807278,0.040006399154663086,-0.9935480356216431,-0.26691803336143494,0.1992766559123993,0.26670581102371216,31.171588897705078,-12.357210159301758,41.426185607910156,0
606,6059716,-0.039054084569215775,0.06523685902357101,-0.9856625199317932,-0.41832852363586426,0.8458383679389954,-0.336615651845932,29.376949310302734,-9.82028865814209,39.6884651184082,0
607,6070030,0.04847034439444542,-0.003972977865487337,-0.9758360981941223,0.16743585467338562,-1.2033569812774658,-0.9022912979125977,29.53502082824707,-9.908882141113281,40.74506378173828,0
608,6080095,0.025474799796938896,-0.06806382536888123,-1.02071213722229,-0.36451876163482666,-0.016321783885359764,-0.16233135759830475,29.954511642456055,-9.523866653442383,39.46421432495117,0
609,6089872,-0.09032460302114487,0.01716972142457962,-0.9856310486793518,0.32580751180648804,-0.2992277145385742,-0.007267252076417208,30.25050163269043,-9.483343124389648,40.473358154296875,0
610,6099820,-0.0013634590432047844,0.05740427225828171,-0.988730251789093,0.2756909728050232,-0.0065901391208171844,-0.12944427132606506,29.23700523376465,-10.458491325378418,40.60350036621094,0
611,6109839,-0.03470436483621597,-0.02896292135119438,-1.0100547075271606,-0.09341330081224442,-0.07260996848344803,-0.569555401802063,30.893606185913086,-10.973565101623535,39.135799407958984,0
612,6119856,0.09450885653495789,-0.03956129401922226,-0.989147424697876,0.1069609522819519,0.2445746511220932,-0.040955618023872375,29.32101058959961,-9.100053787231445,40.18124771118164,0
613,6130066,-0.0077103194780647755,-0.05961219593882561,-1.0200691223144531,-0.627411425113678,0.5540682077407837,1.8124172687530518,31.705883026123047,-9.85002326965332,41.01219177246094,0
614,6140110,0.040803004056215286,-0.042094551026821136,-0.9937905073165894,0.19510839879512787,-0.6876119375228882,0.7205074429512024,31.18703842163086,-10.07937240600586,40.489112854003906,0
615,6149877,-0.019494935870170593,-0.06528130173683167,-1.0137945413589478,0.17240045964717865,-0.052586913108825684,-1.4947822093963623,30.741535186767578,-10.564757347106934,40.29029083251953,0
616,6160091,-0.06069324538111687,-0.008384603075683117,-0.998285174369812,-0.5139451026916504,0.19678422808647156,-0.7512252926826477,29.297502517700195,-11.999550819396973,41.236061096191406,0
617,6170011,-0.08323851227760315,0.05927859619259834,-1.0197641849517822,0.11765595525503159,-0.27958059310913086,1.409078598022461,30.64971351623535,-8.248539924621582,38.609718322753906,0
618,6180344,0.07228073477745056,0.0151683259755373,-0.9760510325431824,-0.8892252445220947,0.030988052487373352,0.6603173017501831,31.481943130493164,-10.112998962402344,39.783084869384766,0
619,6190110,0.014539809897542,-0.003961894195526838,-1.0114672183990479,0.017180966213345528,-0.3397939205169678,0.47324442863464355,29.34073257446289,-10.090567588806152,39.79734420776367,0
620,6199908,0.03645652160048485,-0.04215202480554581,-0.9739401936531067,-0.2748073935508728,0.09458137303590775,0.09724856168031693,29.602737426757812,-7.932290554046631,39.456233978271484,0
621,6210121,0.13983836770057678,0.014209318906068802,-0.9927363395690918,-0.7227789759635925,0.746418833732605,0.3892539143562317,29.206954956054688,-9.332720756530762,39.55195236206055,0
622,6219902,-0.024281978607177734,0.06674802303314209,-1.0252671241760254,-1.0376752614974976,-0.17146314680576324,-0.4347268044948578,29.749441146850586,-13.199417114257812,40.1580810546875,0
623,6229739,-0.010175332427024841,-0.013163990341126919,-1.0054477453231812,-0.2705620527267456,-0.2972557246685028,-0.3710242509841919,32.00703811645508,-11.655376434326172,39.69828796386719,0
624,6239869,0.031833332031965256,-0.024725863710045815,-1.0055307149887085,-0.2581642270088196,0.3757704198360443,-0.3118428587913513,30.873226165771484,-9.217529296875,38.994529724121094,0
