seq,time_us,ax,ay,az,gx,gy,gz,mx,my,mz,drop_flag
0,97672,-0.1015625,0.0263671875,-1.06103515625,1.15966796875,-1.15966796875,0.79345703125,-76.25,35.859375,127.4765625,0
1,107672,-0.1025390625,0.02685546875,-1.064453125,0.9765625,-1.3427734375,0.91552734375,-76.25,35.859375,127.4765625,0
2,117668,-0.10205078125,0.02392578125,-1.06005859375,1.0986328125,-1.03759765625,0.732421875,-76.25,35.859375,127.4765625,0
3,127668,-0.10107421875,0.02978515625,-1.0595703125,1.3427734375,-1.40380859375,0.67138671875,-76.25,35.859375,127.4765625,0
4,137668,-0.1025390625,0.02783203125,-1.064453125,1.0986328125,-1.3427734375,0.91552734375,-76.25,35.859375,127.4765625,0
5,147672,-0.103515625,0.0263671875,-1.06201171875,1.40380859375,-1.220703125,0.79345703125,-76.25,35.859375,127.4765625,0
6,157664,-0.10791015625,0.02294921875,-1.0576171875,1.28173828125,-1.220703125,0.732421875,-76.25,35.859375,127.4765625,0
7,167664,-0.10400390625,0.0244140625,-1.06494140625,1.0986328125,-1.40380859375,0.3662109375,-76.25,35.859375,127.4765625,0
8,177664,-0.10498046875,0.0224609375,-1.0673828125,1.03759765625,-1.28173828125,0.732421875,-76.25,35.859375,127.4765625,0
9,187668,-0.0986328125,0.0224609375,-1.0625,1.15966796875,-1.3427734375,0.67138671875,-76.25,35.859375,127.4765625,0
10,197668,-0.10302734375,0.02197265625,-1.06640625,1.15966796875,-1.15966796875,0.67138671875,-76.25,35.859375,127.4765625,0
11,207668,-0.10205078125,0.02490234375,-1.0673828125,1.15966796875,-1.220703125,0.6103515625,-77.44140625,37.0546875,129.7734375,0
12,217664,-0.1005859375,0.02783203125,-1.0634765625,1.220703125,-1.3427734375,0.6103515625,-77.44140625,37.0546875,129.7734375,0
13,227680,-0.10498046875,0.02587890625,-1.06494140625,1.220703125,-1.15966796875,0.67138671875,-77.44140625,37.0546875,129.7734375,0
14,237676,-0.10302734375,0.02734375,-1.064453125,0.9765625,-1.28173828125,0.67138671875,-77.44140625,37.0546875,129.7734375,0
15,247668,-0.10595703125,0.02685546875,-1.0576171875,1.220703125,-1.0986328125,0.48828125,-77.44140625,37.0546875,129.7734375,0
16,257664,-0.1044921875,0.02880859375,-1.064453125,1.28173828125,-1.40380859375,0.3662109375,-77.44140625,37.0546875,129.7734375,0
17,267668,-0.1025390625,0.02587890625,-1.06298828125,1.03759765625,-1.28173828125,0.8544921875,-77.44140625,37.0546875,129.7734375,0
18,277672,-0.1025390625,0.02880859375,-1.06689453125,1.3427734375,-1.220703125,0.54931640625,-77.44140625,37.0546875,129.7734375,0
19,287664,-0.10205078125,0.025390625,-1.06103515625,1.03759765625,-1.3427734375,0.79345703125,-77.44140625,37.0546875,129.7734375,0
20,297664,-0.1025390625,0.02490234375,-1.0615234375,1.15966796875,-1.15966796875,0.732421875,-77.44140625,37.0546875,129.7734375,0
21,307668,-0.1044921875,0.02490234375,-1.060546875,1.40380859375,-1.3427734375,0.6103515625,-77.44140625,37.0546875,129.7734375,0
22,317676,-0.1044921875,0.02734375,-1.06591796875,1.220703125,-1.3427734375,0.67138671875,-77.44140625,37.0546875,129.7734375,0
23,327664,-0.103515625,0.02783203125,-1.05810546875,1.15966796875,-1.220703125,0.732421875,-77.44140625,37.0546875,129.7734375,0
24,337664,-0.103515625,0.0263671875,-1.0693359375,1.3427734375,-1.28173828125,0.54931640625,-76.25,38.25,128.625,0
25,347664,-0.0986328125,0.0263671875,-1.06640625,1.0986328125,-1.220703125,0.6103515625,-76.25,38.25,128.625,0
26,357680,-0.1044921875,0.0302734375,-1.05615234375,1.03759765625,-1.15966796875,0.54931640625,-76.25,38.25,128.625,0
27,367676,-0.1015625,0.0234375,-1.06494140625,1.28173828125,-1.3427734375,0.8544921875,-76.25,38.25,128.625,0
28,377664,-0.10546875,0.02685546875,-1.06689453125,1.0986328125,-1.3427734375,0.79345703125,-76.25,38.25,128.625,0
29,387668,-0.1015625,0.02197265625,-1.06494140625,1.03759765625,-1.40380859375,0.732421875,-76.25,38.25,128.625,0
30,397676,-0.1005859375,0.025390625,-1.0615234375,1.220703125,-1.3427734375,0.79345703125,-76.25,38.25,128.625,0
31,407676,-0.107421875,0.02490234375,-1.068359375,1.15966796875,-1.0986328125,0.67138671875,-76.25,38.25,128.625,0
32,417668,-0.1025390625,0.02734375,-1.0615234375,1.28173828125,-1.46484375,0.8544921875,-76.25,38.25,128.625,0
33,427668,-0.10205078125,0.02734375,-1.0654296875,1.220703125,-0.9765625,0.91552734375,-76.25,38.25,128.625,0
34,437664,-0.1044921875,0.029296875,-1.07080078125,1.3427734375,-1.03759765625,0.67138671875,-76.25,38.25,128.625,0
35,447672,-0.1015625,0.02587890625,-1.06689453125,1.15966796875,-1.03759765625,0.6103515625,-76.25,38.25,128.625,0
36,457664,-0.1005859375,0.025390625,-1.0673828125,1.220703125,-1.3427734375,0.6103515625,-72.67578125,38.25,130.921875,0
37,467664,-0.10205078125,0.02685546875,-1.06494140625,1.28173828125,-1.3427734375,0.54931640625,-72.67578125,38.25,130.921875,0
38,477668,-0.1044921875,0.02490234375,-1.06201171875,1.03759765625,-1.28173828125,0.6103515625,-72.67578125,38.25,130.921875,0
39,487672,-0.099609375,0.02783203125,-1.0703125,0.91552734375,-1.28173828125,0.79345703125,-72.67578125,38.25,130.921875,0
40,497676,-0.1015625,0.02978515625,-1.06689453125,1.15966796875,-1.15966796875,0.79345703125,-72.67578125,38.25,130.921875,0
41,507668,-0.1025390625,0.02587890625,-1.060546875,1.220703125,-1.220703125,0.732421875,-72.67578125,38.25,130.921875,0
42,517668,-0.103515625,0.025390625,-1.05859375,1.0986328125,-1.28173828125,0.79345703125,-72.67578125,38.25,130.921875,0
43,527676,-0.1005859375,0.02294921875,-1.06005859375,1.28173828125,-1.220703125,0.67138671875,-72.67578125,38.25,130.921875,0
44,537676,-0.1005859375,0.02685546875,-1.0595703125,1.03759765625,-1.15966796875,0.79345703125,-72.67578125,38.25,130.921875,0
45,547664,-0.1044921875,0.0263671875,-1.056640625,0.9765625,-1.3427734375,0.79345703125,-72.67578125,38.25,130.921875,0
46,557664,-0.1044921875,0.02587890625,-1.0634765625,1.15966796875,-1.52587890625,0.42724609375,-72.67578125,38.25,130.921875,0
47,567672,-0.10302734375,0.025390625,-1.0634765625,1.15966796875,-1.220703125,0.67138671875,-72.67578125,38.25,130.921875,0
48,577676,-0.10107421875,0.0205078125,-1.0693359375,0.9765625,-1.40380859375,0.67138671875,-75.05859375,39.4453125,130.921875,0
49,587664,-0.09912109375,0.0244140625,-1.06494140625,1.15966796875,-1.46484375,0.8544921875,-75.05859375,39.4453125,130.921875,0
50,597664,-0.10693359375,0.02587890625,-1.06884765625,1.220703125,-1.40380859375,0.67138671875,-75.05859375,39.4453125,130.921875,0
51,607664,-0.1044921875,0.025390625,-1.06396484375,1.220703125,-1.28173828125,0.67138671875,-75.05859375,39.4453125,130.921875,0
52,617668,-0.10205078125,0.02880859375,-1.0693359375,1.0986328125,-1.220703125,0.54931640625,-75.05859375,39.4453125,130.921875,0
53,627668,-0.1044921875,0.025390625,-1.0654296875,1.15966796875,-1.52587890625,0.79345703125,-75.05859375,39.4453125,130.921875,0
54,637668,-0.10498046875,0.02685546875,-1.0634765625,1.28173828125,-1.15966796875,0.67138671875,-75.05859375,39.4453125,130.921875,0
55,647668,-0.10400390625,0.02392578125,-1.06103515625,1.0986328125,-1.15966796875,0.67138671875,-75.05859375,39.4453125,130.921875,0
56,657668,-0.1025390625,0.02734375,-1.06884765625,1.220703125,-1.0986328125,0.42724609375,-75.05859375,39.4453125,130.921875,0
57,667672,-0.10205078125,0.02197265625,-1.0615234375,1.15966796875,-1.46484375,0.732421875,-75.05859375,39.4453125,130.921875,0
58,677668,-0.103515625,0.02392578125,-1.068359375,1.220703125,-1.220703125,0.732421875,-75.05859375,39.4453125,130.921875,0
59,687664,-0.10205078125,0.0244140625,-1.06298828125,1.15966796875,-1.220703125,0.67138671875,-75.05859375,39.4453125,130.921875,0
60,697676,-0.103515625,0.0263671875,-1.060546875,1.220703125,-1.28173828125,0.67138671875,-73.8671875,35.859375,130.921875,0
61,707672,-0.10546875,0.02880859375,-1.06591796875,1.28173828125,-1.220703125,0.79345703125,-73.8671875,35.859375,130.921875,0
62,717664,-0.1015625,0.0263671875,-1.05859375,1.0986328125,-1.3427734375,0.732421875,-73.8671875,35.859375,130.921875,0
63,727664,-0.1025390625,0.02490234375,-1.06982421875,1.40380859375,-1.3427734375,0.79345703125,-73.8671875,35.859375,130.921875,0
64,737668,-0.10107421875,0.02783203125,-1.0634765625,1.15966796875,-1.28173828125,0.6103515625,-73.8671875,35.859375,130.921875,0
65,747672,-0.09912109375,0.02880859375,-1.06787109375,1.03759765625,-1.0986328125,0.79345703125,-73.8671875,35.859375,130.921875,0
66,757664,-0.10400390625,0.0263671875,-1.068359375,1.220703125,-1.28173828125,0.67138671875,-73.8671875,35.859375,130.921875,0
67,767668,-0.10546875,0.025390625,-1.06689453125,0.79345703125,-1.28173828125,0.732421875,-73.8671875,35.859375,130.921875,0
68,777668,-0.10498046875,0.02392578125,-1.0625,1.3427734375,-1.220703125,0.732421875,-73.8671875,35.859375,130.921875,0
69,787672,-0.10498046875,0.025390625,-1.06494140625,1.28173828125,-1.15966796875,0.67138671875,-73.8671875,35.859375,130.921875,0
70,797664,-0.10498046875,0.0244140625,-1.0625,1.0986328125,-0.91552734375,0.67138671875,-73.8671875,35.859375,130.921875,0
71,807664,-0.10205078125,0.02734375,-1.0654296875,1.15966796875,-1.0986328125,0.91552734375,-73.8671875,35.859375,130.921875,0
72,817664,-0.10205078125,0.02587890625,-1.0625,1.03759765625,-1.40380859375,0.9765625,-73.8671875,35.859375,130.921875,0
73,827668,-0.1005859375,0.02490234375,-1.0693359375,1.220703125,-1.46484375,0.67138671875,-76.25,37.0546875,127.4765625,0
74,837672,-0.10498046875,0.02197265625,-1.0693359375,1.15966796875,-1.03759765625,0.79345703125,-76.25,37.0546875,127.4765625,0
75,847668,-0.10595703125,0.025390625,-1.0625,0.9765625,-1.28173828125,0.79345703125,-76.25,37.0546875,127.4765625,0
76,857668,-0.09814453125,0.029296875,-1.06201171875,0.91552734375,-1.0986328125,0.732421875,-76.25,37.0546875,127.4765625,0
77,867680,-0.10107421875,0.0234375,-1.0703125,1.03759765625,-1.220703125,0.54931640625,-76.25,37.0546875,127.4765625,0
78,877676,-0.10400390625,0.02490234375,-1.06591796875,1.0986328125,-1.0986328125,0.732421875,-76.25,37.0546875,127.4765625,0
79,887668,-0.103515625,0.02392578125,-1.06640625,1.15966796875,-1.220703125,0.79345703125,-76.25,37.0546875,127.4765625,0
80,897668,-0.0986328125,0.0234375,-1.06201171875,1.15966796875,-1.40380859375,0.9765625,-76.25,37.0546875,127.4765625,0
81,907672,-0.1015625,0.02685546875,-1.0625,1.220703125,-1.40380859375,0.8544921875,-76.25,37.0546875,127.4765625,0
82,917672,-0.10205078125,0.02294921875,-1.060546875,0.8544921875,-1.220703125,0.67138671875,-76.25,37.0546875,127.4765625,0
83,927664,-0.10107421875,0.02734375,-1.06298828125,1.03759765625,-0.9765625,0.732421875,-76.25,37.0546875,127.4765625,0
84,937668,-0.0986328125,0.02783203125,-1.068359375,1.0986328125,-1.3427734375,0.79345703125,-76.25,37.0546875,127.4765625,0
85,947664,-0.1044921875,0.0283203125,-1.06591796875,1.28173828125,-1.0986328125,0.91552734375,-73.8671875,40.640625,132.0703125,0
86,957676,-0.10205078125,0.0234375,-1.06396484375,1.0986328125,-1.28173828125,0.6103515625,-73.8671875,40.640625,132.0703125,0
87,967664,-0.10205078125,0.02880859375,-1.06494140625,1.0986328125,-1.220703125,0.732421875,-73.8671875,40.640625,132.0703125,0
88,977664,-0.10205078125,0.02099609375,-1.06884765625,0.9765625,-1.220703125,0.67138671875,-73.8671875,40.640625,132.0703125,0
89,987664,-0.103515625,0.02783203125,-1.06396484375,1.3427734375,-1.220703125,0.91552734375,-73.8671875,40.640625,132.0703125,0
90,997672,-0.10400390625,0.029296875,-1.07275390625,1.3427734375,-1.28173828125,0.54931640625,-73.8671875,40.640625,132.0703125,0
91,1007676,-0.1025390625,0.025390625,-1.06591796875,1.220703125,-1.220703125,0.48828125,-73.8671875,40.640625,132.0703125,0
92,1017664,-0.10107421875,0.0283203125,-1.05810546875,1.28173828125,-1.40380859375,0.67138671875,-73.8671875,40.640625,132.0703125,0
93,1027668,-0.103515625,0.0263671875,-1.06005859375,1.15966796875,-1.220703125,0.6103515625,-73.8671875,40.640625,132.0703125,0
94,1037676,-0.10400390625,0.02685546875,-1.06591796875,1.220703125,-1.220703125,0.79345703125,-73.8671875,40.640625,132.0703125,0
95,1047672,-0.1015625,0.02587890625,-1.0634765625,1.220703125,-1.220703125,0.54931640625,-73.8671875,40.640625,132.0703125,0
96,1057668,-0.10205078125,0.02783203125,-1.0576171875,1.28173828125,-1.0986328125,0.79345703125,-73.8671875,40.640625,132.0703125,0
97,1067664,-0.103515625,0.02392578125,-1.06201171875,1.28173828125,-1.28173828125,0.67138671875,-75.05859375,37.0546875,130.921875,0
98,1077664,-0.10205078125,0.0263671875,-1.07080078125,1.220703125,-1.28173828125,0.67138671875,-75.05859375,37.0546875,130.921875,0
99,1087672,-0.10205078125,0.02392578125,-1.06787109375,1.220703125,-1.40380859375,0.48828125,-75.05859375,37.0546875,130.921875,0
100,1097664,-0.1015625,0.0263671875,-1.06494140625,1.3427734375,-1.3427734375,0.8544921875,-75.05859375,37.0546875,130.921875,0
101,1107660,-0.1025390625,0.0263671875,-1.06201171875,1.15966796875,-1.0986328125,0.8544921875,-75.05859375,37.0546875,130.921875,0
102,1117664,-0.10595703125,0.029296875,-1.06201171875,1.0986328125,-1.28173828125,0.67138671875,-75.05859375,37.0546875,130.921875,0
103,1127672,-0.1015625,0.02685546875,-1.064453125,1.03759765625,-1.46484375,0.6103515625,-75.05859375,37.0546875,130.921875,0
104,1137676,-0.1044921875,0.02587890625,-1.06396484375,1.15966796875,-1.28173828125,0.6103515625,-75.05859375,37.0546875,130.921875,0
105,1147664,-0.10009765625,0.0283203125,-1.06591796875,1.3427734375,-1.3427734375,0.67138671875,-75.05859375,37.0546875,130.921875,0
106,1157664,-0.1025390625,0.025390625,-1.06201171875,1.0986328125,-1.3427734375,0.732421875,-75.05859375,37.0546875,130.921875,0
107,1167676,-0.10009765625,0.02685546875,-1.060546875,1.03759765625,-1.40380859375,0.79345703125,-75.05859375,37.0546875,130.921875,0
108,1177676,-0.10498046875,0.02392578125,-1.06640625,1.0986328125,-1.28173828125,0.732421875,-75.05859375,37.0546875,130.921875,0
109,1187664,-0.1025390625,0.02783203125,-1.0693359375,1.15966796875,-1.40380859375,0.732421875,-75.05859375,37.0546875,130.921875,0
110,1197664,-0.1015625,0.02587890625,-1.06689453125,1.220703125,-1.40380859375,0.42724609375,-76.25,37.0546875,128.625,0
111,1207672,-0.10205078125,0.02392578125,-1.0673828125,1.220703125,-1.28173828125,0.67138671875,-76.25,37.0546875,128.625,0
112,1217676,-0.10693359375,0.02685546875,-1.0625,1.220703125,-1.0986328125,0.732421875,-76.25,37.0546875,128.625,0
113,1227664,-0.1044921875,0.029296875,-1.05908203125,1.03759765625,-1.3427734375,0.8544921875,-76.25,37.0546875,128.625,0
114,1237664,-0.10205078125,0.02392578125,-1.0634765625,1.0986328125,-1.0986328125,0.79345703125,-76.25,37.0546875,128.625,0
115,1247664,-0.10302734375,0.025390625,-1.0673828125,1.15966796875,-1.3427734375,0.67138671875,-76.25,37.0546875,128.625,0
116,1257668,-0.10205078125,0.03173828125,-1.072265625,1.15966796875,-1.15966796875,0.6103515625,-76.25,37.0546875,128.625,0
117,1267668,-0.10302734375,0.0234375,-1.0654296875,1.28173828125,-1.3427734375,0.732421875,-76.25,37.0546875,128.625,0
118,1277664,-0.10205078125,0.02880859375,-1.064453125,1.0986328125,-1.220703125,0.67138671875,-76.25,37.0546875,128.625,0
119,1287668,-0.1044921875,0.02294921875,-1.0634765625,1.28173828125,-1.40380859375,0.91552734375,-76.25,37.0546875,128.625,0
120,1297672,-0.1025390625,0.02197265625,-1.0625,0.91552734375,-1.0986328125,0.732421875,-76.25,37.0546875,128.625,0
121,1307676,-0.107421875,0.029296875,-1.068359375,0.9765625,-1.46484375,0.8544921875,-76.25,37.0546875,128.625,0
122,1317668,-0.10498046875,0.025390625,-1.06298828125,0.8544921875,-1.46484375,0.79345703125,-75.05859375,38.25,127.4765625,0
123,1327668,-0.10205078125,0.025390625,-1.06494140625,1.220703125,-1.220703125,0.67138671875,-75.05859375,38.25,127.4765625,0
124,1337680,-0.1025390625,0.02734375,-1.06591796875,1.220703125,-1.46484375,0.79345703125,-75.05859375,38.25,127.4765625,0
125,1347672,-0.10009765625,0.029296875,-1.0654296875,1.220703125,-1.0986328125,0.6103515625,-75.05859375,38.25,127.4765625,0
126,1357664,-0.10400390625,0.02587890625,-1.05810546875,1.40380859375,-1.46484375,0.6103515625,-75.05859375,38.25,127.4765625,0
127,1367664,-0.10546875,0.03125,-1.0634765625,1.03759765625,-1.15966796875,0.8544921875,-75.05859375,38.25,127.4765625,0
128,1377668,-0.103515625,0.02197265625,-1.05859375,1.220703125,-1.3427734375,0.732421875,-75.05859375,38.25,127.4765625,0
129,1387672,-0.1015625,0.025390625,-1.06396484375,1.03759765625,-1.40380859375,0.6103515625,-75.05859375,38.25,127.4765625,0
130,1397668,-0.1015625,0.02734375,-1.06591796875,1.220703125,-1.15966796875,0.6103515625,-75.05859375,38.25,127.4765625,0
131,1407668,-0.10400390625,0.02587890625,-1.05810546875,1.28173828125,-1.15966796875,0.54931640625,-75.05859375,38.25,127.4765625,0
132,1417668,-0.10107421875,0.02392578125,-1.060546875,0.9765625,-0.9765625,0.54931640625,-75.05859375,38.25,127.4765625,0
133,1427672,-0.1064453125,0.02587890625,-1.064453125,1.28173828125,-1.46484375,0.48828125,-75.05859375,38.25,127.4765625,0
134,1437664,-0.10400390625,0.02392578125,-1.06591796875,1.03759765625,-1.3427734375,0.54931640625,-73.8671875,38.25,129.7734375,0
135,1447664,-0.1064453125,0.025390625,-1.06591796875,1.46484375,-1.0986328125,0.732421875,-73.8671875,38.25,129.7734375,0
136,1457664,-0.10546875,0.02978515625,-1.06884765625,1.28173828125,-1.3427734375,0.6103515625,-73.8671875,38.25,129.7734375,0
137,1467668,-0.0986328125,0.03369140625,-1.07080078125,1.220703125,-1.40380859375,0.79345703125,-73.8671875,38.25,129.7734375,0
138,1477672,-0.10107421875,0.02392578125,-1.0634765625,1.15966796875,-1.28173828125,0.79345703125,-73.8671875,38.25,129.7734375,0
139,1487668,-0.10302734375,0.02880859375,-1.0615234375,1.15966796875,-1.15966796875,0.48828125,-73.8671875,38.25,129.7734375,0
140,1497664,-0.10302734375,0.0302734375,-1.06591796875,1.0986328125,-1.28173828125,0.732421875,-73.8671875,38.25,129.7734375,0
141,1507680,-0.10107421875,0.02490234375,-1.0615234375,1.15966796875,-1.15966796875,0.91552734375,-73.8671875,38.25,129.7734375,0
142,1517676,-0.10302734375,0.02587890625,-1.05859375,0.9765625,-1.28173828125,0.9765625,-73.8671875,38.25,129.7734375,0
143,1527668,-0.103515625,0.02294921875,-1.06396484375,1.220703125,-1.28173828125,0.79345703125,-73.8671875,38.25,129.7734375,0
144,1537664,-0.10205078125,0.0234375,-1.0654296875,1.0986328125,-1.52587890625,0.67138671875,-73.8671875,38.25,129.7734375,0
145,1547668,-0.10205078125,0.02685546875,-1.06591796875,1.0986328125,-1.03759765625,0.6103515625,-73.8671875,38.25,129.7734375,0
146,1557668,-0.10107421875,0.02587890625,-1.06298828125,1.220703125,-1.46484375,0.8544921875,-73.8671875,38.25,129.7734375,0
147,1567664,-0.1005859375,0.02734375,-1.0693359375,1.15966796875,-1.40380859375,0.67138671875,-73.8671875,38.25,128.625,0
148,1577664,-0.1064453125,0.02978515625,-1.06884765625,1.15966796875,-1.3427734375,0.79345703125,-73.8671875,38.25,128.625,0
149,1587668,-0.1005859375,0.02734375,-1.064453125,1.220703125,-1.15966796875,0.48828125,-73.8671875,38.25,128.625,0
150,1597676,-0.1064453125,0.02490234375,-1.06396484375,1.3427734375,-1.220703125,0.48828125,-73.8671875,38.25,128.625,0
151,1607664,-0.10546875,0.02490234375,-1.060546875,1.220703125,-1.220703125,0.48828125,-73.8671875,38.25,128.625,0
152,1617664,-0.109375,0.03076171875,-1.06640625,0.9765625,-1.28173828125,0.54931640625,-73.8671875,38.25,128.625,0
153,1627664,-0.1064453125,0.0263671875,-1.05908203125,1.220703125,-1.3427734375,0.8544921875,-73.8671875,38.25,128.625,0
154,1637672,-0.1015625,0.02392578125,-1.0634765625,1.0986328125,-1.46484375,0.79345703125,-73.8671875,38.25,128.625,0
155,1647676,-0.10205078125,0.02490234375,-1.06005859375,1.3427734375,-1.3427734375,0.3662109375,-73.8671875,38.25,128.625,0
156,1657664,-0.10205078125,0.0244140625,-1.0576171875,1.40380859375,-1.52587890625,0.6103515625,-73.8671875,38.25,128.625,0
157,1667668,-0.1025390625,0.025390625,-1.06591796875,1.0986328125,-1.28173828125,0.79345703125,-73.8671875,38.25,128.625,0
158,1677676,-0.1005859375,0.02197265625,-1.0634765625,1.220703125,-1.220703125,0.6103515625,-73.8671875,38.25,128.625,0
159,1687672,-0.10498046875,0.02734375,-1.0615234375,1.40380859375,-1.15966796875,0.91552734375,-76.25,37.0546875,129.7734375,0
160,1697668,-0.103515625,0.0283203125,-1.0615234375,1.15966796875,-1.40380859375,0.67138671875,-76.25,37.0546875,129.7734375,0
161,1707668,-0.1015625,0.02783203125,-1.06494140625,1.15966796875,-1.28173828125,0.79345703125,-76.25,37.0546875,129.7734375,0
162,1717664,-0.1044921875,0.0283203125,-1.056640625,1.15966796875,-1.28173828125,0.6103515625,-76.25,37.0546875,129.7734375,0
163,1727672,-0.103515625,0.03125,-1.0625,1.03759765625,-1.28173828125,0.79345703125,-76.25,37.0546875,129.7734375,0
164,1737664,-0.10205078125,0.02490234375,-1.0615234375,1.220703125,-1.0986328125,0.79345703125,-76.25,37.0546875,129.7734375,0
165,1747664,-0.10546875,0.0244140625,-1.0634765625,1.03759765625,-1.15966796875,0.6103515625,-76.25,37.0546875,129.7734375,0
166,1757668,-0.10009765625,0.02294921875,-1.06640625,1.40380859375,-0.9765625,0.8544921875,-76.25,37.0546875,129.7734375,0
167,1767672,-0.1015625,0.02734375,-1.0595703125,0.91552734375,-1.28173828125,0.54931640625,-76.25,37.0546875,129.7734375,0
168,1777676,-0.1005859375,0.0263671875,-1.0673828125,1.0986328125,-1.3427734375,0.8544921875,-76.25,37.0546875,129.7734375,0
169,1787668,-0.1015625,0.02783203125,-1.06640625,1.03759765625,-1.3427734375,0.732421875,-76.25,37.0546875,129.7734375,0
170,1797668,-0.10302734375,0.025390625,-1.068359375,0.91552734375,-1.15966796875,0.48828125,-76.25,37.0546875,129.7734375,0
171,1807676,-0.10400390625,0.0263671875,-1.0673828125,1.03759765625,-1.40380859375,0.67138671875,-75.05859375,39.4453125,128.625,0
172,1817676,-0.10107421875,0.02734375,-1.06689453125,1.220703125,-1.46484375,0.79345703125,-75.05859375,39.4453125,128.625,0
173,1827664,-0.1025390625,0.02880859375,-1.06298828125,1.220703125,-1.28173828125,0.732421875,-75.05859375,39.4453125,128.625,0
174,1837660,-0.10205078125,0.0283203125,-1.06591796875,1.03759765625,-1.3427734375,0.79345703125,-75.05859375,39.4453125,128.625,0
175,1847672,-0.10546875,0.0263671875,-1.064453125,1.15966796875,-1.46484375,0.79345703125,-75.05859375,39.4453125,128.625,0
176,1857676,-0.10546875,0.0283203125,-1.0595703125,1.0986328125,-1.0986328125,0.732421875,-75.05859375,39.4453125,128.625,0
177,1867664,-0.10400390625,0.02490234375,-1.06640625,1.0986328125,-1.15966796875,0.67138671875,-75.05859375,39.4453125,128.625,0
178,1877664,-0.1005859375,0.02197265625,-1.0615234375,0.91552734375,-1.3427734375,0.6103515625,-75.05859375,39.4453125,128.625,0
179,1887664,-0.09814453125,0.02880859375,-1.0595703125,1.220703125,-1.15966796875,0.79345703125,-75.05859375,39.4453125,128.625,0
180,1897668,-0.1015625,0.029296875,-1.064453125,1.0986328125,-1.40380859375,0.6103515625,-75.05859375,39.4453125,128.625,0
181,1907664,-0.1015625,0.02197265625,-1.0615234375,1.15966796875,-1.46484375,0.8544921875,-75.05859375,39.4453125,128.625,0
182,1917664,-0.10546875,0.02734375,-1.05810546875,1.0986328125,-1.220703125,0.42724609375,-75.05859375,39.4453125,128.625,0
183,1927664,-0.103515625,0.02587890625,-1.068359375,1.28173828125,-1.40380859375,0.48828125,-75.05859375,38.25,128.625,0
184,1937672,-0.103515625,0.0234375,-1.06396484375,1.15966796875,-1.220703125,0.8544921875,-75.05859375,38.25,128.625,0
185,1947676,-0.1025390625,0.025390625,-1.0654296875,1.15966796875,-1.28173828125,0.48828125,-75.05859375,38.25,128.625,0
186,1957664,-0.10205078125,0.025390625,-1.06884765625,1.28173828125,-1.28173828125,0.91552734375,-75.05859375,38.25,128.625,0
187,1967664,-0.109375,0.0283203125,-1.06689453125,1.0986328125,-1.5869140625,1.03759765625,-75.05859375,38.25,128.625,0
188,1977676,-0.1005859375,0.03271484375,-1.06396484375,1.15966796875,-1.46484375,0.6103515625,-75.05859375,38.25,128.625,0
189,1987672,-0.10205078125,0.0283203125,-1.06689453125,1.0986328125,-1.28173828125,0.6103515625,-75.05859375,38.25,128.625,0
190,1997664,-0.09912109375,0.0224609375,-1.05859375,1.15966796875,-1.220703125,0.6103515625,-75.05859375,38.25,128.625,0
191,2007664,-0.107421875,0.02685546875,-1.064453125,1.3427734375,-1.220703125,0.67138671875,-75.05859375,38.25,128.625,0
192,2017668,-0.103515625,0.02734375,-1.0576171875,1.15966796875,-1.220703125,0.67138671875,-75.05859375,38.25,128.625,0
193,2027672,-0.10302734375,0.0263671875,-1.06396484375,1.0986328125,-1.0986328125,0.6103515625,-75.05859375,38.25,128.625,0
194,2037664,-0.10546875,0.02734375,-1.064453125,1.28173828125,-1.28173828125,0.67138671875,-75.05859375,38.25,128.625,0
195,2047668,-0.10498046875,0.02490234375,-1.064453125,1.220703125,-1.15966796875,0.8544921875,-75.05859375,38.25,128.625,0
196,2057668,-0.0986328125,0.02587890625,-1.06884765625,1.3427734375,-1.15966796875,0.67138671875,-73.8671875,38.25,129.7734375,0
197,2067672,-0.1005859375,0.02685546875,-1.0693359375,1.03759765625,-1.28173828125,0.9765625,-73.8671875,38.25,129.7734375,0
198,2077664,-0.10546875,0.02880859375,-1.064453125,1.28173828125,-1.3427734375,0.67138671875,-73.8671875,38.25,129.7734375,0
199,2087664,-0.1015625,0.029296875,-1.064453125,0.9765625,-1.15966796875,0.91552734375,-73.8671875,38.25,129.7734375,0
200,2097664,-0.09912109375,0.0263671875,-1.06298828125,1.15966796875,-1.28173828125,0.54931640625,-73.8671875,38.25,129.7734375,0
201,2107680,-0.10498046875,0.02587890625,-1.056640625,1.28173828125,-1.220703125,0.42724609375,-73.8671875,38.25,129.7734375,0
202,2117672,-0.1044921875,0.02880859375,-1.06689453125,1.28173828125,-1.28173828125,0.8544921875,-73.8671875,38.25,129.7734375,0
203,2127664,-0.1025390625,0.025390625,-1.064453125,1.3427734375,-1.03759765625,0.79345703125,-73.8671875,38.25,129.7734375,0
204,2137664,-0.103515625,0.02392578125,-1.06201171875,1.40380859375,-1.28173828125,0.48828125,-73.8671875,38.25,129.7734375,0
205,2147680,-0.10009765625,0.0263671875,-1.06103515625,1.0986328125,-1.28173828125,0.67138671875,-73.8671875,38.25,129.7734375,0
206,2157676,-0.10546875,0.0244140625,-1.05908203125,1.0986328125,-1.28173828125,0.91552734375,-73.8671875,38.25,129.7734375,0
207,2167664,-0.10302734375,0.0283203125,-1.06787109375,1.15966796875,-1.15966796875,0.67138671875,-73.8671875,38.25,129.7734375,0
208,2177664,-0.10107421875,0.02392578125,-1.06005859375,0.9765625,-1.3427734375,0.54931640625,-72.67578125,38.25,130.921875,0
209,2187668,-0.1044921875,0.029296875,-1.06298828125,1.28173828125,-1.220703125,0.67138671875,-72.67578125,38.25,130.921875,0
210,2197668,-0.1064453125,0.029296875,-1.06689453125,1.220703125,-1.28173828125,0.67138671875,-72.67578125,38.25,130.921875,0
211,2207664,-0.1005859375,0.029296875,-1.0673828125,1.28173828125,-1.3427734375,0.79345703125,-72.67578125,38.25,130.921875,0
212,2217668,-0.1015625,0.025390625,-1.064453125,1.220703125,-1.40380859375,0.67138671875,-72.67578125,38.25,130.921875,0
213,2227664,-0.1044921875,0.02587890625,-1.06689453125,1.15966796875,-1.28173828125,0.6103515625,-72.67578125,38.25,130.921875,0
214,2237676,-0.1044921875,0.02685546875,-1.06298828125,1.28173828125,-1.15966796875,0.6103515625,-72.67578125,38.25,130.921875,0
215,2247664,-0.1064453125,0.0263671875,-1.064453125,1.0986328125,-1.46484375,0.6103515625,-72.67578125,38.25,130.921875,0
216,2257664,-0.10205078125,0.0283203125,-1.06396484375,1.15966796875,-1.03759765625,0.732421875,-72.67578125,38.25,130.921875,0
217,2267664,-0.10302734375,0.02587890625,-1.06494140625,1.40380859375,-1.28173828125,0.8544921875,-72.67578125,38.25,130.921875,0
218,2277672,-0.1064453125,0.02294921875,-1.06396484375,1.28173828125,-1.220703125,0.6103515625,-72.67578125,38.25,130.921875,0
219,2287676,-0.10302734375,0.021484375,-1.0625,1.28173828125,-1.15966796875,0.67138671875,-72.67578125,38.25,130.921875,0
220,2297664,-0.1044921875,0.0244140625,-1.06884765625,1.220703125,-1.220703125,0.732421875,-75.05859375,38.25,129.7734375,0
221,2307668,-0.1044921875,0.02587890625,-1.06787109375,1.220703125,-1.15966796875,0.732421875,-75.05859375,38.25,129.7734375,0
222,2317676,-0.1015625,0.029296875,-1.06005859375,1.28173828125,-1.15966796875,0.732421875,-75.05859375,38.25,129.7734375,0
223,2327672,-0.103515625,0.029296875,-1.07080078125,1.28173828125,-1.46484375,0.79345703125,-75.05859375,38.25,129.7734375,0
224,2337668,-0.107421875,0.02685546875,-1.06494140625,1.15966796875,-1.15966796875,0.79345703125,-75.05859375,38.25,129.7734375,0
225,2347664,-0.10302734375,0.02685546875,-1.064453125,1.15966796875,-1.220703125,0.48828125,-75.05859375,38.25,129.7734375,0
226,2357664,-0.103515625,0.02685546875,-1.05810546875,1.28173828125,-1.15966796875,0.8544921875,-75.05859375,38.25,129.7734375,0
227,2367668,-0.1044921875,0.029296875,-1.06494140625,1.0986328125,-1.3427734375,0.6103515625,-75.05859375,38.25,129.7734375,0
228,2377664,-0.10302734375,0.0283203125,-1.06005859375,1.28173828125,-1.220703125,0.6103515625,-75.05859375,38.25,129.7734375,0
229,2387664,-0.0986328125,0.02392578125,-1.06787109375,1.0986328125,-1.28173828125,0.54931640625,-75.05859375,38.25,129.7734375,0
230,2397668,-0.1005859375,0.02734375,-1.0615234375,1.46484375,-1.220703125,0.6103515625,-75.05859375,38.25,129.7734375,0
231,2407672,-0.1005859375,0.0283203125,-1.0615234375,1.220703125,-1.3427734375,0.48828125,-75.05859375,38.25,129.7734375,0
232,2417676,-0.10546875,0.02880859375,-1.06201171875,1.15966796875,-1.220703125,0.67138671875,-75.05859375,38.25,129.7734375,0
233,2427668,-0.09716796875,0.02880859375,-1.0615234375,1.220703125,-1.40380859375,0.54931640625,-75.05859375,38.25,128.625,0
234,2437664,-0.10205078125,0.029296875,-1.06640625,1.03759765625,-1.3427734375,0.732421875,-75.05859375,38.25,128.625,0
235,2447676,-0.10302734375,0.0283203125,-1.06689453125,1.3427734375,-1.0986328125,0.6103515625,-75.05859375,38.25,128.625,0
236,2457676,-0.1044921875,0.02685546875,-1.0556640625,1.15966796875,-1.220703125,0.67138671875,-75.05859375,38.25,128.625,0
237,2467664,-0.103515625,0.02587890625,-1.0615234375,0.67138671875,-1.40380859375,0.91552734375,-75.05859375,38.25,128.625,0
238,2477668,-0.10400390625,0.02685546875,-1.0625,1.0986328125,-1.15966796875,0.6103515625,-75.05859375,38.25,128.625,0
239,2487672,-0.1025390625,0.02587890625,-1.06640625,1.28173828125,-1.220703125,0.6103515625,-75.05859375,38.25,128.625,0
240,2497676,-0.10107421875,0.0302734375,-1.06787109375,1.28173828125,-1.40380859375,0.732421875,-75.05859375,38.25,128.625,0
241,2507664,-0.1064453125,0.025390625,-1.06005859375,1.28173828125,-1.40380859375,0.67138671875,-75.05859375,38.25,128.625,0
242,2517664,-0.10302734375,0.02490234375,-1.06396484375,1.15966796875,-1.28173828125,0.732421875,-75.05859375,38.25,128.625,0
243,2527664,-0.10009765625,0.02783203125,-1.06591796875,1.03759765625,-1.3427734375,0.79345703125,-75.05859375,38.25,128.625,0
244,2537668,-0.10693359375,0.0224609375,-1.0595703125,1.28173828125,-1.40380859375,0.42724609375,-75.05859375,38.25,128.625,0
245,2547664,-0.1044921875,0.02685546875,-1.0693359375,1.15966796875,-1.3427734375,0.6103515625,-72.67578125,38.25,127.4765625,0
246,2557664,-0.1044921875,0.02587890625,-1.064453125,1.15966796875,-1.46484375,0.6103515625,-72.67578125,38.25,127.4765625,0
247,2567664,-0.10107421875,0.0224609375,-1.06298828125,1.40380859375,-1.220703125,0.67138671875,-72.67578125,38.25,127.4765625,0
248,2577672,-0.1005859375,0.0302734375,-1.06591796875,1.15966796875,-1.28173828125,0.79345703125,-72.67578125,38.25,127.4765625,0
249,2587680,-0.10009765625,0.02783203125,-1.0595703125,1.220703125,-0.91552734375,0.79345703125,-72.67578125,38.25,127.4765625,0
250,2597664,-0.1044921875,0.025390625,-1.06591796875,1.15966796875,-1.28173828125,0.54931640625,-72.67578125,38.25,127.4765625,0
251,2607664,-0.099609375,0.02880859375,-1.05859375,1.15966796875,-1.52587890625,0.67138671875,-72.67578125,38.25,127.4765625,0
252,2617676,-0.10302734375,0.0224609375,-1.06396484375,1.15966796875,-1.220703125,0.6103515625,-72.67578125,38.25,127.4765625,0
253,2627672,-0.10107421875,0.02294921875,-1.06005859375,1.03759765625,-1.28173828125,0.91552734375,-72.67578125,38.25,127.4765625,0
254,2637664,-0.1005859375,0.0283203125,-1.06396484375,1.15966796875,-1.40380859375,0.54931640625,-72.67578125,38.25,127.4765625,0
255,2647664,-0.10595703125,0.02392578125,-1.06298828125,1.0986328125,-1.0986328125,0.6103515625,-72.67578125,38.25,127.4765625,0
256,2657668,-0.1025390625,0.0244140625,-1.060546875,1.0986328125,-1.28173828125,0.8544921875,-72.67578125,38.25,127.4765625,0
257,2667672,-0.1025390625,0.0234375,-1.06494140625,1.28173828125,-1.3427734375,0.6103515625,-77.44140625,38.25,132.0703125,0
258,2677664,-0.10498046875,0.02734375,-1.06396484375,1.28173828125,-1.3427734375,0.54931640625,-77.44140625,38.25,132.0703125,0
259,2687668,-0.1015625,0.0224609375,-1.056640625,1.0986328125,-1.0986328125,0.732421875,-77.44140625,38.25,132.0703125,0
260,2697668,-0.10400390625,0.025390625,-1.0615234375,0.9765625,-1.3427734375,0.91552734375,-77.44140625,38.25,132.0703125,0
261,2707672,-0.099609375,0.02685546875,-1.06494140625,1.03759765625,-1.220703125,0.79345703125,-77.44140625,38.25,132.0703125,0
262,2717664,-0.103515625,0.02978515625,-1.064453125,1.3427734375,-1.03759765625,0.67138671875,-77.44140625,38.25,132.0703125,0
263,2727664,-0.10205078125,0.0244140625,-1.06591796875,1.28173828125,-1.03759765625,0.732421875,-77.44140625,38.25,132.0703125,0
264,2737664,-0.10107421875,0.0244140625,-1.06982421875,1.0986328125,-1.3427734375,0.67138671875,-77.44140625,38.25,132.0703125,0
265,2747668,-0.10546875,0.02294921875,-1.0576171875,1.15966796875,-1.3427734375,0.79345703125,-77.44140625,38.25,132.0703125,0
266,2757672,-0.10400390625,0.02685546875,-1.0634765625,1.220703125,-1.220703125,0.8544921875,-77.44140625,38.25,132.0703125,0
267,2767668,-0.10107421875,0.0283203125,-1.0693359375,1.15966796875,-1.28173828125,0.48828125,-77.44140625,38.25,132.0703125,0
268,2777664,-0.10498046875,0.02734375,-1.06982421875,1.03759765625,-1.28173828125,0.732421875,-77.44140625,38.25,132.0703125,0
269,2787680,-0.1025390625,0.02587890625,-1.0595703125,1.15966796875,-1.0986328125,0.91552734375,-77.44140625,38.25,132.0703125,0
270,2797676,-0.10205078125,0.02392578125,-1.0615234375,1.220703125,-1.40380859375,0.67138671875,-75.05859375,39.4453125,129.7734375,0
271,2807664,-0.099609375,0.0234375,-1.06005859375,1.220703125,-1.28173828125,0.67138671875,-75.05859375,39.4453125,129.7734375,0
272,2817664,-0.10595703125,0.0283203125,-1.0634765625,1.15966796875,-1.40380859375,0.6103515625,-75.05859375,39.4453125,129.7734375,0
273,2827672,-0.10302734375,0.025390625,-1.0595703125,0.9765625,-1.03759765625,0.67138671875,-75.05859375,39.4453125,129.7734375,0
274,2837672,-0.10107421875,0.0263671875,-1.06298828125,1.28173828125,-1.220703125,0.48828125,-75.05859375,39.4453125,129.7734375,0
275,2847664,-0.10107421875,0.02587890625,-1.06640625,1.3427734375,-1.28173828125,0.6103515625,-75.05859375,39.4453125,129.7734375,0
276,2857664,-0.1025390625,0.0263671875,-1.0634765625,1.220703125,-1.220703125,0.732421875,-75.05859375,39.4453125,129.7734375,0
277,2867668,-0.1025390625,0.02490234375,-1.05908203125,1.0986328125,-1.3427734375,0.732421875,-75.05859375,39.4453125,129.7734375,0
278,2877676,-0.1005859375,0.02587890625,-1.07080078125,1.15966796875,-1.28173828125,0.67138671875,-75.05859375,39.4453125,129.7734375,0
279,2887664,-0.103515625,0.0244140625,-1.06396484375,1.15966796875,-1.220703125,0.54931640625,-75.05859375,39.4453125,129.7734375,0
280,2897664,-0.103515625,0.02490234375,-1.0576171875,1.0986328125,-1.3427734375,0.54931640625,-75.05859375,39.4453125,129.7734375,0
281,2907664,-0.10546875,0.025390625,-1.07373046875,1.40380859375,-1.220703125,0.54931640625,-75.05859375,39.4453125,129.7734375,0
282,2917680,-0.103515625,0.02685546875,-1.06982421875,1.28173828125,-1.220703125,0.48828125,-73.8671875,39.4453125,129.7734375,0
283,2927676,-0.10205078125,0.0263671875,-1.06884765625,1.03759765625,-1.28173828125,0.732421875,-73.8671875,39.4453125,129.7734375,0
284,2937664,-0.10546875,0.02734375,-1.0673828125,1.28173828125,-1.220703125,0.732421875,-73.8671875,39.4453125,129.7734375,0
285,2947668,-0.10205078125,0.02392578125,-1.06494140625,1.0986328125,-1.220703125,0.79345703125,-73.8671875,39.4453125,129.7734375,0
286,2957676,-0.10205078125,0.021484375,-1.060546875,1.0986328125,-1.3427734375,0.6103515625,-73.8671875,39.4453125,129.7734375,0
287,2967672,-0.1005859375,0.02880859375,-1.068359375,1.15966796875,-1.220703125,0.54931640625,-73.8671875,39.4453125,129.7734375,0
288,2977668,-0.10009765625,0.02685546875,-1.06298828125,1.220703125,-1.46484375,0.67138671875,-73.8671875,39.4453125,129.7734375,0
289,2987664,-0.1044921875,0.02685546875,-1.0595703125,1.15966796875,-1.220703125,0.79345703125,-73.8671875,39.4453125,129.7734375,0
290,2997664,-0.10009765625,0.0234375,-1.06494140625,1.0986328125,-1.28173828125,0.67138671875,-73.8671875,39.4453125,129.7734375,0
291,3007668,-0.10205078125,0.02587890625,-1.0576171875,1.46484375,-1.40380859375,0.54931640625,-73.8671875,39.4453125,129.7734375,0
292,3017664,-0.10302734375,0.02587890625,-1.064453125,1.220703125,-1.3427734375,0.732421875,-73.8671875,39.4453125,129.7734375,0
293,3027664,-0.1005859375,0.025390625,-1.05810546875,1.28173828125,-1.220703125,0.6103515625,-73.8671875,39.4453125,129.7734375,0
294,3037660,-0.1015625,0.025390625,-1.06396484375,1.03759765625,-1.40380859375,0.79345703125,-71.484375,37.0546875,130.921875,0
295,3047672,-0.107421875,0.0283203125,-1.064453125,1.28173828125,-1.0986328125,0.6103515625,-71.484375,37.0546875,130.921875,0
296,3057676,-0.103515625,0.0283203125,-1.0634765625,1.0986328125,-1.3427734375,0.79345703125,-71.484375,37.0546875,130.921875,0
297,3067664,-0.099609375,0.025390625,-1.06591796875,1.28173828125,-1.220703125,0.67138671875,-71.484375,37.0546875,130.921875,0
298,3077668,-0.10400390625,0.02294921875,-1.0634765625,0.9765625,-1.220703125,0.67138671875,-71.484375,37.0546875,130.921875,0
299,3087676,-0.103515625,0.02392578125,-1.07177734375,1.15966796875,-1.3427734375,0.54931640625,-71.484375,37.0546875,130.921875,0
300,3097676,-0.10693359375,0.0263671875,-1.06591796875,1.3427734375,-1.15966796875,0.6103515625,-71.484375,37.0546875,130.921875,0
301,3107664,-0.10400390625,0.0234375,-1.06494140625,1.220703125,-1.220703125,0.6103515625,-71.484375,37.0546875,130.921875,0
302,3117664,-0.1025390625,0.02587890625,-1.068359375,1.220703125,-1.220703125,0.54931640625,-71.484375,37.0546875,130.921875,0
303,3127672,-0.10205078125,0.0283203125,-1.0634765625,1.0986328125,-1.220703125,0.732421875,-71.484375,37.0546875,130.921875,0
304,3137676,-0.103515625,0.02490234375,-1.0703125,0.9765625,-1.3427734375,0.67138671875,-71.484375,37.0546875,130.921875,0
305,3147664,-0.10595703125,0.02783203125,-1.0673828125,1.3427734375,-1.0986328125,0.6103515625,-71.484375,37.0546875,130.921875,0
306,3157664,-0.1015625,0.02685546875,-1.0615234375,1.03759765625,-1.15966796875,0.732421875,-75.05859375,35.859375,129.7734375,0
307,3167664,-0.1064453125,0.025390625,-1.06298828125,0.91552734375,-1.220703125,0.42724609375,-75.05859375,35.859375,129.7734375,0
308,3177668,-0.1015625,0.0244140625,-1.0654296875,1.15966796875,-1.03759765625,0.732421875,-75.05859375,35.859375,129.7734375,0
309,3187668,-0.1015625,0.02294921875,-1.060546875,1.3427734375,-1.15966796875,0.732421875,-75.05859375,35.859375,129.7734375,0
310,3197664,-0.1015625,0.0263671875,-1.06787109375,1.15966796875,-1.52587890625,0.6103515625,-75.05859375,35.859375,129.7734375,0
311,3207668,-0.10595703125,0.029296875,-1.068359375,1.40380859375,-1.220703125,0.6103515625,-75.05859375,35.859375,129.7734375,0
312,3217668,-0.1005859375,0.02490234375,-1.05810546875,1.28173828125,-1.28173828125,0.6103515625,-75.05859375,35.859375,129.7734375,0
313,3227680,-0.103515625,0.02685546875,-1.06689453125,1.28173828125,-1.15966796875,0.54931640625,-75.05859375,35.859375,129.7734375,0
314,3237668,-0.1044921875,0.02587890625,-1.05859375,1.220703125,-1.46484375,0.79345703125,-75.05859375,35.859375,129.7734375,0
315,3247664,-0.103515625,0.02587890625,-1.06494140625,1.220703125,-1.40380859375,0.732421875,-75.05859375,35.859375,129.7734375,0
316,3257676,-0.10205078125,0.0263671875,-1.0625,1.28173828125,-0.9765625,0.54931640625,-75.05859375,35.859375,129.7734375,0
317,3267672,-0.1015625,0.02587890625,-1.0634765625,1.28173828125,-1.03759765625,0.42724609375,-75.05859375,35.859375,129.7734375,0
318,3277664,-0.10498046875,0.02490234375,-1.0654296875,1.15966796875,-1.3427734375,0.67138671875,-75.05859375,35.859375,129.7734375,0
319,3287664,-0.103515625,0.025390625,-1.0615234375,1.03759765625,-1.28173828125,0.79345703125,-71.484375,37.0546875,129.7734375,0
320,3297668,-0.10400390625,0.0283203125,-1.06787109375,0.91552734375,-1.15966796875,0.732421875,-71.484375,37.0546875,129.7734375,0
321,3307672,-0.10400390625,0.02294921875,-1.068359375,1.3427734375,-1.0986328125,0.79345703125,-71.484375,37.0546875,129.7734375,0
322,3317664,-0.10546875,0.02978515625,-1.0625,1.0986328125,-1.5869140625,0.67138671875,-71.484375,37.0546875,129.7734375,0
323,3327668,-0.10400390625,0.02490234375,-1.0634765625,1.220703125,-1.220703125,0.8544921875,-71.484375,37.0546875,129.7734375,0
324,3337664,-0.10205078125,0.02587890625,-1.0615234375,1.03759765625,-1.0986328125,0.732421875,-71.484375,37.0546875,129.7734375,0
325,3347672,-0.10205078125,0.02294921875,-1.060546875,0.91552734375,-1.28173828125,0.732421875,-71.484375,37.0546875,129.7734375,0
326,3357664,-0.1044921875,0.02587890625,-1.06494140625,1.0986328125,-1.28173828125,0.6103515625,-71.484375,37.0546875,129.7734375,0
327,3367664,-0.10302734375,0.02587890625,-1.06591796875,1.15966796875,-1.52587890625,0.732421875,-71.484375,37.0546875,129.7734375,0
328,3377664,-0.10498046875,0.0283203125,-1.0673828125,1.03759765625,-1.220703125,0.732421875,-71.484375,37.0546875,129.7734375,0
329,3387668,-0.1025390625,0.02783203125,-1.06005859375,1.220703125,-1.28173828125,0.79345703125,-71.484375,37.0546875,129.7734375,0
330,3397668,-0.10302734375,0.0234375,-1.05908203125,1.220703125,-1.46484375,0.79345703125,-71.484375,37.0546875,129.7734375,0
331,3407664,-0.103515625,0.025390625,-1.07177734375,1.220703125,-1.46484375,0.732421875,-73.8671875,38.25,129.7734375,0
332,3417664,-0.10400390625,0.0234375,-1.06201171875,1.28173828125,-1.3427734375,0.67138671875,-73.8671875,38.25,129.7734375,0
333,3427680,-0.10009765625,0.02294921875,-1.0703125,1.28173828125,-1.52587890625,0.67138671875,-73.8671875,38.25,129.7734375,0
334,3437676,-0.10595703125,0.02197265625,-1.06640625,1.3427734375,-1.220703125,0.8544921875,-73.8671875,38.25,129.7734375,0
335,3447668,-0.0986328125,0.025390625,-1.06103515625,1.03759765625,-1.28173828125,0.79345703125,-73.8671875,38.25,129.7734375,0
336,3457668,-0.107421875,0.029296875,-1.06201171875,0.9765625,-1.40380859375,0.91552734375,-73.8671875,38.25,129.7734375,0
337,3467672,-0.1005859375,0.02783203125,-1.06298828125,0.8544921875,-0.9765625,0.67138671875,-73.8671875,38.25,129.7734375,0
338,3477672,-0.10205078125,0.02490234375,-1.06298828125,0.8544921875,-1.28173828125,0.48828125,-73.8671875,38.25,129.7734375,0
339,3487664,-0.1025390625,0.0263671875,-1.06640625,0.9765625,-1.3427734375,0.79345703125,-73.8671875,38.25,129.7734375,0
340,3497664,-0.10400390625,0.0244140625,-1.0673828125,1.0986328125,-1.15966796875,0.67138671875,-73.8671875,38.25,129.7734375,0
341,3507668,-0.10205078125,0.02685546875,-1.0625,1.15966796875,-1.3427734375,0.67138671875,-73.8671875,38.25,129.7734375,0
342,3517676,-0.10693359375,0.0244140625,-1.06103515625,0.9765625,-1.28173828125,0.54931640625,-73.8671875,38.25,129.7734375,0
343,3527664,-0.10400390625,0.02490234375,-1.064453125,1.0986328125,-1.15966796875,0.79345703125,-75.05859375,38.25,128.625,0
344,3537664,-0.10400390625,0.02880859375,-1.06689453125,1.28173828125,-1.40380859375,0.48828125,-75.05859375,38.25,128.625,0
345,3547664,-0.1044921875,0.02392578125,-1.06689453125,1.15966796875,-1.40380859375,0.48828125,-75.05859375,38.25,128.625,0
346,3557676,-0.1064453125,0.025390625,-1.0634765625,1.0986328125,-1.40380859375,0.48828125,-75.05859375,38.25,128.625,0
347,3567676,-0.10302734375,0.02734375,-1.06591796875,1.28173828125,-1.220703125,0.67138671875,-75.05859375,38.25,128.625,0
348,3577664,-0.1025390625,0.0224609375,-1.0654296875,1.15966796875,-1.40380859375,0.6103515625,-75.05859375,38.25,128.625,0
349,3587668,-0.099609375,0.02587890625,-1.060546875,1.0986328125,-1.15966796875,0.8544921875,-75.05859375,38.25,128.625,0
350,3597676,-0.10302734375,0.02587890625,-1.0703125,1.28173828125,-1.3427734375,0.91552734375,-75.05859375,38.25,128.625,0
351,3607672,-0.107421875,0.0263671875,-1.05615234375,1.0986328125,-1.3427734375,0.732421875,-75.05859375,38.25,128.625,0
352,3617668,-0.10546875,0.02734375,-1.064453125,1.3427734375,-1.40380859375,0.67138671875,-75.05859375,38.25,128.625,0
353,3627668,-0.103515625,0.02392578125,-1.06396484375,0.9765625,-1.40380859375,0.67138671875,-75.05859375,38.25,128.625,0
354,3637664,-0.103515625,0.02734375,-1.06298828125,1.03759765625,-1.40380859375,0.732421875,-75.05859375,38.25,128.625,0
355,3647668,-0.10546875,0.02685546875,-1.064453125,1.15966796875,-1.28173828125,0.67138671875,-75.05859375,38.25,128.625,0
356,3657664,-0.10205078125,0.0244140625,-1.07080078125,1.15966796875,-1.15966796875,0.79345703125,-73.8671875,35.859375,128.625,0
357,3667664,-0.1064453125,0.02783203125,-1.07177734375,1.0986328125,-1.15966796875,0.6103515625,-73.8671875,35.859375,128.625,0
358,3677668,-0.1044921875,0.02783203125,-1.06201171875,1.0986328125,-1.3427734375,0.48828125,-73.8671875,35.859375,128.625,0
359,3687672,-0.10302734375,0.02734375,-1.0625,1.220703125,-1.0986328125,0.732421875,-73.8671875,35.859375,128.625,0
360,3697676,-0.10107421875,0.0234375,-1.06787109375,1.03759765625,-1.40380859375,0.42724609375,-73.8671875,35.859375,128.625,0
361,3707664,-0.1025390625,0.02197265625,-1.0615234375,1.15966796875,-1.40380859375,0.91552734375,-73.8671875,35.859375,128.625,0
362,3717664,-0.1005859375,0.02490234375,-1.06201171875,1.3427734375,-1.46484375,0.6103515625,-73.8671875,35.859375,128.625,0
363,3727676,-0.10205078125,0.02294921875,-1.0625,1.46484375,-1.28173828125,0.732421875,-73.8671875,35.859375,128.625,0
364,3737676,-0.103515625,0.0244140625,-1.0693359375,1.220703125,-1.40380859375,0.732421875,-73.8671875,35.859375,128.625,0
365,3747664,-0.1044921875,0.025390625,-1.064453125,1.40380859375,-1.0986328125,0.48828125,-73.8671875,35.859375,128.625,0
366,3757664,-0.103515625,0.02587890625,-1.0751953125,0.91552734375,-1.220703125,0.6103515625,-73.8671875,35.859375,128.625,0
367,3767672,-0.1025390625,0.0263671875,-1.06396484375,1.0986328125,-1.15966796875,0.54931640625,-73.8671875,35.859375,128.625,0
368,3777676,-0.1005859375,0.025390625,-1.06591796875,1.0986328125,-1.220703125,0.67138671875,-73.8671875,37.0546875,129.7734375,0
369,3787664,-0.1015625,0.02294921875,-1.06494140625,1.0986328125,-1.28173828125,0.79345703125,-73.8671875,37.0546875,129.7734375,0
370,3797664,-0.103515625,0.0263671875,-1.06640625,1.0986328125,-1.220703125,0.8544921875,-73.8671875,37.0546875,129.7734375,0
371,3807664,-0.10205078125,0.02099609375,-1.07080078125,1.220703125,-1.46484375,0.54931640625,-73.8671875,37.0546875,129.7734375,0
372,3817668,-0.1064453125,0.02099609375,-1.060546875,1.0986328125,-1.3427734375,0.6103515625,-73.8671875,37.0546875,129.7734375,0
373,3827664,-0.1025390625,0.0302734375,-1.05517578125,1.03759765625,-1.220703125,0.48828125,-73.8671875,37.0546875,129.7734375,0
374,3837664,-0.103515625,0.02587890625,-1.06005859375,0.9765625,-1.40380859375,0.42724609375,-73.8671875,37.0546875,129.7734375,0
375,3847660,-0.10546875,0.02490234375,-1.06396484375,1.15966796875,-1.220703125,0.67138671875,-73.8671875,37.0546875,129.7734375,0
376,3857672,-0.10595703125,0.02392578125,-1.056640625,1.15966796875,-1.3427734375,0.91552734375,-73.8671875,37.0546875,129.7734375,0
377,3867676,-0.10595703125,0.0263671875,-1.056640625,1.28173828125,-1.3427734375,0.6103515625,-73.8671875,37.0546875,129.7734375,0
378,3877664,-0.1044921875,0.0224609375,-1.06494140625,1.0986328125,-1.15966796875,0.8544921875,-73.8671875,37.0546875,129.7734375,0
379,3887664,-0.1025390625,0.0283203125,-1.06201171875,1.0986328125,-1.40380859375,0.732421875,-73.8671875,37.0546875,129.7734375,0
380,3897676,-0.1083984375,0.0263671875,-1.06689453125,1.220703125,-1.220703125,0.67138671875,-73.8671875,38.25,130.921875,0
381,3907672,-0.10302734375,0.02880859375,-1.07177734375,1.15966796875,-1.0986328125,0.6103515625,-73.8671875,38.25,130.921875,0
382,3917664,-0.1025390625,0.025390625,-1.068359375,1.28173828125,-1.46484375,0.54931640625,-73.8671875,38.25,130.921875,0
383,3927664,-0.10498046875,0.029296875,-1.06494140625,1.3427734375,-1.40380859375,0.8544921875,-73.8671875,38.25,130.921875,0
384,3937668,-0.103515625,0.02783203125,-1.064453125,1.0986328125,-1.28173828125,0.732421875,-73.8671875,38.25,130.921875,0
385,3947672,-0.10400390625,0.0244140625,-1.06591796875,1.15966796875,-0.91552734375,0.732421875,-73.8671875,38.25,130.921875,0
386,3957664,-0.09814453125,0.0263671875,-1.06396484375,1.15966796875,-1.0986328125,0.8544921875,-73.8671875,38.25,130.921875,0
387,3967668,-0.10107421875,0.02294921875,-1.06494140625,1.0986328125,-1.40380859375,0.79345703125,-73.8671875,38.25,130.921875,0
388,3977664,-0.10400390625,0.02392578125,-1.0654296875,1.0986328125,-1.28173828125,0.67138671875,-73.8671875,38.25,130.921875,0
389,3987672,-0.103515625,0.0263671875,-1.06396484375,1.220703125,-1.0986328125,0.67138671875,-73.8671875,38.25,130.921875,0
390,3997664,-0.0986328125,0.02490234375,-1.064453125,1.220703125,-1.220703125,0.54931640625,-73.8671875,38.25,130.921875,0
391,4007664,-0.09814453125,0.02978515625,-1.06689453125,1.0986328125,-1.220703125,0.67138671875,-73.8671875,38.25,130.921875,0
392,4017664,-0.103515625,0.02880859375,-1.06005859375,1.220703125,-1.28173828125,0.48828125,-73.8671875,38.25,130.921875,0
393,4027668,-0.10302734375,0.02978515625,-1.06787109375,1.220703125,-1.28173828125,0.6103515625,-73.8671875,38.25,130.921875,0
394,4037672,-0.0986328125,0.02294921875,-1.06591796875,0.91552734375,-1.3427734375,0.48828125,-73.8671875,38.25,130.921875,0
395,4047668,-0.103515625,0.025390625,-1.0625,1.15966796875,-1.28173828125,0.48828125,-73.8671875,38.25,130.921875,0
396,4057664,-0.1044921875,0.0244140625,-1.06201171875,1.15966796875,-1.46484375,0.6103515625,-73.8671875,38.25,130.921875,0
397,4067680,-0.1005859375,0.025390625,-1.06884765625,1.0986328125,-1.03759765625,0.54931640625,-73.8671875,38.25,130.921875,0
398,4077676,-0.1005859375,0.02392578125,-1.06201171875,1.0986328125,-1.220703125,0.6103515625,-73.8671875,38.25,130.921875,0
399,4087668,-0.103515625,0.02490234375,-1.0615234375,1.220703125,-1.28173828125,0.67138671875,-73.8671875,38.25,130.921875,0
400,4097664,-0.10400390625,0.0244140625,-1.0673828125,1.28173828125,-1.3427734375,0.732421875,-73.8671875,38.25,130.921875,0
401,4107668,-0.103515625,0.025390625,-1.0654296875,1.28173828125,-1.220703125,0.732421875,-73.8671875,38.25,130.921875,0
402,4117668,-0.1064453125,0.02392578125,-1.05712890625,1.3427734375,-1.5869140625,0.732421875,-73.8671875,38.25,130.921875,0
403,4127664,-0.1025390625,0.02685546875,-1.0673828125,1.220703125,-1.220703125,0.54931640625,-73.8671875,38.25,130.921875,0
404,4137664,-0.1015625,0.0234375,-1.06201171875,1.3427734375,-1.46484375,0.67138671875,-73.8671875,38.25,130.921875,0
405,4147668,-0.1025390625,0.02685546875,-1.068359375,1.03759765625,-1.3427734375,0.42724609375,-73.8671875,39.4453125,128.625,0
406,4157676,-0.1025390625,0.02685546875,-1.06640625,1.15966796875,-1.3427734375,0.732421875,-73.8671875,39.4453125,128.625,0
407,4167664,-0.1005859375,0.025390625,-1.06591796875,1.15966796875,-1.40380859375,0.732421875,-73.8671875,39.4453125,128.625,0
408,4177664,-0.1044921875,0.02490234375,-1.06396484375,1.03759765625,-1.28173828125,0.6103515625,-73.8671875,39.4453125,128.625,0
409,4187664,-0.10107421875,0.02685546875,-1.06005859375,1.0986328125,-1.40380859375,0.48828125,-73.8671875,39.4453125,128.625,0
410,4197676,-0.10302734375,0.02783203125,-1.0673828125,1.220703125,-1.220703125,0.67138671875,-73.8671875,39.4453125,128.625,0
411,4207676,-0.10498046875,0.025390625,-1.0654296875,1.220703125,-1.0986328125,0.42724609375,-73.8671875,39.4453125,128.625,0
412,4217664,-0.1025390625,0.02587890625,-1.060546875,1.15966796875,-1.3427734375,0.79345703125,-73.8671875,39.4453125,128.625,0
413,4227668,-0.10546875,0.0234375,-1.06201171875,1.0986328125,-1.220703125,0.67138671875,-73.8671875,39.4453125,128.625,0
414,4237676,-0.10595703125,0.02734375,-1.06494140625,1.40380859375,-1.28173828125,0.79345703125,-73.8671875,39.4453125,128.625,0
415,4247672,-0.10546875,0.02783203125,-1.0654296875,1.220703125,-1.15966796875,0.54931640625,-73.8671875,39.4453125,128.625,0
416,4257668,-0.10595703125,0.0234375,-1.0625,0.91552734375,-1.28173828125,0.67138671875,-73.8671875,39.4453125,128.625,0
417,4267664,-0.099609375,0.02490234375,-1.06103515625,1.0986328125,-1.28173828125,0.732421875,-75.05859375,38.25,128.625,0
418,4277664,-0.103515625,0.02685546875,-1.0712890625,1.15966796875,-1.15966796875,0.732421875,-75.05859375,38.25,128.625,0
419,4287668,-0.1005859375,0.02685546875,-1.0625,1.15966796875,-1.40380859375,0.54931640625,-75.05859375,38.25,128.625,0
420,4297664,-0.1015625,0.0283203125,-1.064453125,1.0986328125,-1.220703125,0.732421875,-75.05859375,38.25,128.625,0
421,4307664,-0.1044921875,0.025390625,-1.05859375,0.8544921875,-1.28173828125,0.732421875,-75.05859375,38.25,128.625,0
422,4317664,-0.1005859375,0.0234375,-1.06396484375,1.220703125,-1.3427734375,0.67138671875,-75.05859375,38.25,128.625,0
423,4327672,-0.10400390625,0.0234375,-1.05859375,1.220703125,-1.28173828125,0.54931640625,-75.05859375,38.25,128.625,0
424,4337676,-0.10498046875,0.0283203125,-1.060546875,1.03759765625,-1.3427734375,0.732421875,-75.05859375,38.25,128.625,0
425,4347668,-0.1005859375,0.02587890625,-1.06201171875,1.15966796875,-1.220703125,0.732421875,-75.05859375,38.25,128.625,0
426,4357668,-0.10009765625,0.0283203125,-1.06298828125,1.28173828125,-1.220703125,0.79345703125,-75.05859375,38.25,128.625,0
427,4367676,-0.099609375,0.02392578125,-1.06298828125,1.46484375,-1.3427734375,0.732421875,-75.05859375,38.25,128.625,0
428,4377676,-0.10498046875,0.025390625,-1.06640625,1.0986328125,-1.3427734375,0.79345703125,-75.05859375,38.25,128.625,0
429,4387664,-0.10498046875,0.025390625,-1.0634765625,1.28173828125,-1.0986328125,0.79345703125,-75.05859375,38.25,129.7734375,0
430,4397664,-0.103515625,0.02685546875,-1.068359375,1.03759765625,-1.0986328125,0.79345703125,-75.05859375,38.25,129.7734375,0
431,4407672,-0.10302734375,0.0224609375,-1.06884765625,1.220703125,-1.40380859375,0.67138671875,-75.05859375,38.25,129.7734375,0
432,4417676,-0.10400390625,0.02783203125,-1.06298828125,0.9765625,-1.3427734375,0.8544921875,-75.05859375,38.25,129.7734375,0
433,4427664,-0.10205078125,0.02197265625,-1.06005859375,1.03759765625,-1.15966796875,0.67138671875,-75.05859375,38.25,129.7734375,0
434,4437664,-0.10546875,0.02587890625,-1.068359375,1.220703125,-1.3427734375,0.54931640625,-75.05859375,38.25,129.7734375,0
435,4447664,-0.099609375,0.0244140625,-1.0654296875,1.220703125,-1.3427734375,0.8544921875,-75.05859375,38.25,129.7734375,0
436,4457668,-0.099609375,0.02734375,-1.0615234375,1.03759765625,-1.40380859375,0.6103515625,-75.05859375,38.25,129.7734375,0
437,4467668,-0.1044921875,0.02294921875,-1.06201171875,1.220703125,-1.52587890625,0.48828125,-75.05859375,38.25,129.7734375,0
438,4477664,-0.10498046875,0.02783203125,-1.0712890625,1.0986328125,-1.3427734375,0.6103515625,-75.05859375,38.25,129.7734375,0
439,4487668,-0.10205078125,0.02734375,-1.0634765625,1.220703125,-1.0986328125,0.54931640625,-75.05859375,38.25,129.7734375,0
440,4497668,-0.10205078125,0.029296875,-1.064453125,1.220703125,-1.28173828125,0.67138671875,-75.05859375,38.25,129.7734375,0
441,4507672,-0.1044921875,0.02734375,-1.06591796875,1.15966796875,-1.28173828125,0.42724609375,-75.05859375,38.25,129.7734375,0
442,4517664,-0.099609375,0.02880859375,-1.072265625,1.220703125,-1.220703125,0.8544921875,-76.25,37.0546875,130.921875,0
443,4527668,-0.095703125,0.02734375,-1.0634765625,1.0986328125,-1.15966796875,0.67138671875,-76.25,37.0546875,130.921875,0
444,4537676,-0.1015625,0.02392578125,-1.0556640625,1.3427734375,-1.3427734375,0.732421875,-76.25,37.0546875,130.921875,0
445,4547672,-0.10009765625,0.02587890625,-1.064453125,1.0986328125,-1.220703125,0.67138671875,-76.25,37.0546875,130.921875,0
446,4557664,-0.1025390625,0.02587890625,-1.060546875,0.9765625,-1.28173828125,0.8544921875,-76.25,37.0546875,130.921875,0
447,4567664,-0.1015625,0.02197265625,-1.06591796875,0.8544921875,-1.64794921875,0.54931640625,-76.25,37.0546875,130.921875,0
448,4577668,-0.1015625,0.0244140625,-1.07177734375,1.15966796875,-1.03759765625,0.732421875,-76.25,37.0546875,130.921875,0
449,4587672,-0.10107421875,0.02880859375,-1.060546875,1.3427734375,-1.15966796875,0.42724609375,-76.25,37.0546875,130.921875,0
450,4597664,-0.10791015625,0.02685546875,-1.0625,1.28173828125,-1.3427734375,0.67138671875,-76.25,37.0546875,130.921875,0
451,4607668,-0.1015625,0.0263671875,-1.068359375,1.220703125,-1.3427734375,0.79345703125,-76.25,37.0546875,130.921875,0
452,4617668,-0.099609375,0.0283203125,-1.06103515625,1.5869140625,-1.220703125,0.732421875,-76.25,37.0546875,130.921875,0
453,4627672,-0.1015625,0.02734375,-1.06689453125,1.220703125,-1.40380859375,0.54931640625,-76.25,37.0546875,130.921875,0
454,4637664,-0.1015625,0.02392578125,-1.06689453125,1.46484375,-1.220703125,0.67138671875,-77.44140625,37.0546875,128.625,0
455,4647664,-0.1025390625,0.0234375,-1.0615234375,1.220703125,-1.28173828125,0.67138671875,-77.44140625,37.0546875,128.625,0
456,4657664,-0.103515625,0.02685546875,-1.068359375,1.15966796875,-1.220703125,0.732421875,-77.44140625,37.0546875,128.625,0
457,4667668,-0.10107421875,0.02978515625,-1.06494140625,1.0986328125,-1.46484375,0.67138671875,-77.44140625,37.0546875,128.625,0
458,4677672,-0.10302734375,0.02490234375,-1.0673828125,1.03759765625,-1.28173828125,0.67138671875,-77.44140625,37.0546875,128.625,0
459,4687668,-0.099609375,0.02734375,-1.0654296875,0.732421875,-1.28173828125,0.6103515625,-77.44140625,37.0546875,128.625,0
460,4697664,-0.1015625,0.02392578125,-1.0654296875,0.8544921875,-1.40380859375,0.6103515625,-77.44140625,37.0546875,128.625,0
461,4707680,-0.1083984375,0.02587890625,-1.05712890625,0.9765625,-1.0986328125,0.6103515625,-77.44140625,37.0546875,128.625,0
462,4717676,-0.09765625,0.02783203125,-1.06298828125,1.0986328125,-1.46484375,0.6103515625,-77.44140625,37.0546875,128.625,0
463,4727668,-0.10009765625,0.0244140625,-1.07275390625,0.91552734375,-1.220703125,0.67138671875,-77.44140625,37.0546875,128.625,0
464,4737664,-0.103515625,0.02978515625,-1.05322265625,1.15966796875,-1.03759765625,0.79345703125,-77.44140625,37.0546875,128.625,0
465,4747672,-0.10205078125,0.02587890625,-1.0595703125,1.15966796875,-1.3427734375,0.54931640625,-77.44140625,37.0546875,128.625,0
466,4757672,-0.10107421875,0.02734375,-1.064453125,1.03759765625,-1.0986328125,0.8544921875,-76.25,39.4453125,127.4765625,0
467,4767664,-0.103515625,0.02685546875,-1.06494140625,1.28173828125,-1.40380859375,0.8544921875,-76.25,39.4453125,127.4765625,0
468,4777664,-0.1025390625,0.02685546875,-1.06103515625,0.91552734375,-1.28173828125,0.8544921875,-76.25,39.4453125,127.4765625,0
469,4787668,-0.10009765625,0.02783203125,-1.0703125,0.9765625,-1.03759765625,0.6103515625,-76.25,39.4453125,127.4765625,0
470,4797676,-0.0986328125,0.02587890625,-1.07958984375,1.0986328125,-0.8544921875,0.67138671875,-76.25,39.4453125,127.4765625,0
471,4807668,-0.10205078125,0.0244140625,-1.05419921875,0.9765625,-1.52587890625,0.6103515625,-76.25,39.4453125,127.4765625,0
472,4817664,-0.10302734375,0.025390625,-1.0712890625,1.3427734375,-1.0986328125,0.8544921875,-76.25,39.4453125,127.4765625,0
473,4827664,-0.09716796875,0.02880859375,-1.06494140625,1.220703125,-1.3427734375,0.79345703125,-76.25,39.4453125,127.4765625,0
474,4837676,-0.1044921875,0.02783203125,-1.07177734375,1.0986328125,-0.91552734375,0.79345703125,-76.25,39.4453125,127.4765625,0
475,4847680,-0.10791015625,0.025390625,-1.06982421875,0.9765625,-1.3427734375,0.79345703125,-76.25,39.4453125,127.4765625,0
476,4857668,-0.1083984375,0.02001953125,-1.0595703125,1.28173828125,-1.0986328125,0.48828125,-76.25,39.4453125,127.4765625,0
477,4867668,-0.107421875,0.02392578125,-1.04931640625,1.15966796875,-1.28173828125,0.79345703125,-76.25,39.4453125,127.4765625,0
478,4877676,-0.10546875,0.02197265625,-1.0693359375,1.03759765625,-1.15966796875,0.67138671875,-76.25,39.4453125,127.4765625,0
479,4887676,-0.10205078125,0.02587890625,-1.060546875,0.9765625,-1.03759765625,0.67138671875,-76.25,35.859375,129.7734375,0
480,4897668,-0.10107421875,0.0263671875,-1.06494140625,1.220703125,-1.28173828125,0.42724609375,-76.25,35.859375,129.7734375,0
481,4907664,-0.103515625,0.0244140625,-1.0703125,1.15966796875,-1.15966796875,0.91552734375,-76.25,35.859375,129.7734375,0
482,4917664,-0.1005859375,0.0224609375,-1.0625,1.28173828125,-1.15966796875,0.732421875,-76.25,35.859375,129.7734375,0
483,4927672,-0.09912109375,0.02880859375,-1.07421875,1.28173828125,-1.3427734375,0.48828125,-76.25,35.859375,129.7734375,0
484,4937664,-0.10498046875,0.02294921875,-1.0615234375,1.03759765625,-1.15966796875,0.732421875,-76.25,35.859375,129.7734375,0
485,4947664,-0.109375,0.02783203125,-1.06787109375,1.0986328125,-1.40380859375,0.6103515625,-76.25,35.859375,129.7734375,0
486,4957668,-0.10888671875,0.02587890625,-1.0654296875,1.28173828125,-1.220703125,0.6103515625,-76.25,35.859375,129.7734375,0
487,4967672,-0.10205078125,0.0244140625,-1.0634765625,1.220703125,-1.220703125,0.67138671875,-76.25,35.859375,129.7734375,0
488,4977676,-0.10302734375,0.02734375,-1.06689453125,1.28173828125,-1.220703125,1.03759765625,-76.25,35.859375,129.7734375,0
489,4987668,-0.103515625,0.0244140625,-1.06640625,1.03759765625,-1.0986328125,0.6103515625,-76.25,35.859375,129.7734375,0
490,4997668,-0.1044921875,0.02734375,-1.06494140625,1.220703125,-1.28173828125,0.67138671875,-76.25,35.859375,129.7734375,0
491,5007676,-0.09814453125,0.02294921875,-1.06494140625,1.03759765625,-1.0986328125,0.67138671875,-73.8671875,35.859375,132.0703125,0
492,5017676,-0.1015625,0.0244140625,-1.0625,0.9765625,-1.15966796875,0.42724609375,-73.8671875,35.859375,132.0703125,0
493,5027664,-0.10498046875,0.02392578125,-1.06591796875,1.15966796875,-1.3427734375,0.54931640625,-73.8671875,35.859375,132.0703125,0
494,5037660,-0.1044921875,0.025390625,-1.06201171875,1.15966796875,-1.3427734375,0.79345703125,-73.8671875,35.859375,132.0703125,0
495,5047672,-0.10107421875,0.02685546875,-1.0673828125,0.91552734375,-1.15966796875,0.54931640625,-73.8671875,35.859375,132.0703125,0
496,5057676,-0.10595703125,0.02392578125,-1.06494140625,1.28173828125,-1.3427734375,0.8544921875,-73.8671875,35.859375,132.0703125,0
497,5067668,-0.1044921875,0.02392578125,-1.06591796875,1.03759765625,-1.220703125,0.48828125,-73.8671875,35.859375,132.0703125,0
498,5077664,-0.10400390625,0.0224609375,-1.05810546875,1.0986328125,-1.0986328125,0.54931640625,-73.8671875,35.859375,132.0703125,0
499,5087664,-0.10400390625,0.02490234375,-1.060546875,1.220703125,-1.220703125,0.8544921875,-73.8671875,35.859375,132.0703125,0
500,5097668,-0.10986328125,0.0224609375,-1.06494140625,1.03759765625,-1.0986328125,0.48828125,-73.8671875,35.859375,132.0703125,0
501,5107668,-0.1015625,0.0234375,-1.06298828125,1.220703125,-1.3427734375,0.67138671875,-73.8671875,35.859375,132.0703125,0
502,5117668,-0.10107421875,0.02294921875,-1.0625,1.220703125,-1.15966796875,0.6103515625,-73.8671875,35.859375,132.0703125,0
503,5127668,-0.10546875,0.02783203125,-1.05908203125,1.220703125,-1.220703125,0.6103515625,-73.8671875,35.859375,130.921875,0
504,5137668,-0.103515625,0.02197265625,-1.0634765625,1.220703125,-1.40380859375,0.54931640625,-73.8671875,35.859375,130.921875,0
505,5147672,-0.10107421875,0.025390625,-1.06103515625,1.0986328125,-1.0986328125,0.8544921875,-73.8671875,35.859375,130.921875,0
506,5157668,-0.1025390625,0.021484375,-1.064453125,1.28173828125,-1.40380859375,0.91552734375,-73.8671875,35.859375,130.921875,0
507,5167664,-0.10302734375,0.0234375,-1.06103515625,1.03759765625,-1.40380859375,0.79345703125,-73.8671875,35.859375,130.921875,0
508,5177676,-0.09912109375,0.02392578125,-1.068359375,1.0986328125,-1.3427734375,0.8544921875,-73.8671875,35.859375,130.921875,0
509,5187672,-0.10302734375,0.02685546875,-1.0537109375,0.91552734375,-1.40380859375,0.54931640625,-73.8671875,35.859375,130.921875,0
510,5197664,-0.1025390625,0.0234375,-1.0625,1.0986328125,-1.3427734375,0.79345703125,-73.8671875,35.859375,130.921875,0
511,5207664,-0.10400390625,0.02685546875,-1.0654296875,1.0986328125,-1.3427734375,0.91552734375,-73.8671875,35.859375,130.921875,0
512,5217668,-0.1025390625,0.02392578125,-1.0693359375,1.03759765625,-0.8544921875,0.54931640625,-73.8671875,35.859375,130.921875,0
513,5227672,-0.0986328125,0.02099609375,-1.05810546875,0.8544921875,-1.15966796875,0.48828125,-73.8671875,35.859375,130.921875,0
514,5237664,-0.10302734375,0.02490234375,-1.0703125,1.03759765625,-0.9765625,0.54931640625,-73.8671875,35.859375,130.921875,0
515,5247668,-0.1064453125,0.0244140625,-1.0634765625,0.9765625,-1.3427734375,0.6103515625,-73.8671875,35.859375,130.921875,0
516,5257668,-0.099609375,0.02685546875,-1.07275390625,1.03759765625,-1.28173828125,0.48828125,-76.25,38.25,130.921875,0
517,5267672,-0.10888671875,0.02294921875,-1.06005859375,0.79345703125,-1.15966796875,0.54931640625,-76.25,38.25,130.921875,0
518,5277664,-0.10205078125,0.02734375,-1.0654296875,1.28173828125,-1.0986328125,0.6103515625,-76.25,38.25,130.921875,0
519,5287664,-0.103515625,0.0234375,-1.06884765625,1.15966796875,-1.03759765625,0.732421875,-76.25,38.25,130.921875,0
520,5297664,-0.10498046875,0.025390625,-1.064453125,0.91552734375,-1.3427734375,0.67138671875,-76.25,38.25,130.921875,0
521,5307668,-0.10791015625,0.0244140625,-1.06884765625,0.9765625,-1.3427734375,0.732421875,-76.25,38.25,130.921875,0
522,5317672,-0.10009765625,0.02685546875,-1.06005859375,1.3427734375,-1.220703125,0.79345703125,-76.25,38.25,130.921875,0
523,5327664,-0.09765625,0.02685546875,-1.06884765625,1.0986328125,-1.15966796875,0.54931640625,-76.25,38.25,130.921875,0
524,5337664,-0.09912109375,0.02685546875,-1.06201171875,1.15966796875,-1.15966796875,0.6103515625,-76.25,38.25,130.921875,0
525,5347680,-0.1005859375,0.02734375,-1.0625,1.3427734375,-1.220703125,0.79345703125,-76.25,38.25,130.921875,0
526,5357676,-0.10205078125,0.02587890625,-1.06298828125,1.15966796875,-1.220703125,0.9765625,-76.25,38.25,130.921875,0
527,5367668,-0.10400390625,0.02685546875,-1.06982421875,1.220703125,-1.28173828125,0.79345703125,-76.25,38.25,130.921875,0
528,5377664,-0.10595703125,0.0244140625,-1.06396484375,1.0986328125,-1.15966796875,0.8544921875,-75.05859375,38.25,128.625,0
529,5387672,-0.107421875,0.02099609375,-1.060546875,1.0986328125,-0.9765625,0.67138671875,-75.05859375,38.25,128.625,0
530,5397672,-0.10400390625,0.02294921875,-1.0625,1.03759765625,-1.15966796875,0.9765625,-75.05859375,38.25,128.625,0
531,5407664,-0.10205078125,0.025390625,-1.07080078125,1.15966796875,-1.3427734375,0.54931640625,-75.05859375,38.25,128.625,0
532,5417664,-0.103515625,0.0263671875,-1.0634765625,1.0986328125,-1.220703125,0.91552734375,-75.05859375,38.25,128.625,0
533,5427668,-0.10009765625,0.0205078125,-1.0615234375,1.220703125,-1.15966796875,0.6103515625,-75.05859375,38.25,128.625,0
534,5437676,-0.10595703125,0.03125,-1.0634765625,1.0986328125,-1.3427734375,0.8544921875,-75.05859375,38.25,128.625,0
535,5447664,-0.103515625,0.025390625,-1.06494140625,1.0986328125,-1.220703125,0.732421875,-75.05859375,38.25,128.625,0
536,5457664,-0.10400390625,0.02490234375,-1.06591796875,1.220703125,-1.220703125,0.67138671875,-75.05859375,38.25,128.625,0
537,5467664,-0.1044921875,0.02783203125,-1.0615234375,1.0986328125,-1.15966796875,0.42724609375,-75.05859375,38.25,128.625,0
538,5477672,-0.10400390625,0.025390625,-1.060546875,1.220703125,-1.3427734375,0.6103515625,-75.05859375,38.25,128.625,0
539,5487676,-0.1025390625,0.0244140625,-1.060546875,1.15966796875,-1.40380859375,0.79345703125,-75.05859375,38.25,128.625,0
540,5497664,-0.10205078125,0.0263671875,-1.06298828125,1.03759765625,-1.220703125,0.54931640625,-75.05859375,39.4453125,130.921875,0
541,5507668,-0.10400390625,0.025390625,-1.06982421875,1.03759765625,-1.40380859375,0.67138671875,-75.05859375,39.4453125,130.921875,0
542,5517672,-0.10400390625,0.025390625,-1.06787109375,1.03759765625,-1.3427734375,0.79345703125,-75.05859375,39.4453125,130.921875,0
543,5527672,-0.10302734375,0.02685546875,-1.0673828125,1.28173828125,-1.15966796875,0.8544921875,-75.05859375,39.4453125,130.921875,0
544,5537668,-0.10302734375,0.02734375,-1.07177734375,0.9765625,-1.3427734375,0.8544921875,-75.05859375,39.4453125,130.921875,0
545,5547668,-0.10400390625,0.029296875,-1.060546875,1.15966796875,-1.15966796875,0.6103515625,-75.05859375,39.4453125,130.921875,0
546,5557664,-0.1025390625,0.02490234375,-1.064453125,0.91552734375,-1.3427734375,0.6103515625,-75.05859375,39.4453125,130.921875,0
547,5567672,-0.10107421875,0.0244140625,-1.064453125,1.3427734375,-1.40380859375,0.48828125,-75.05859375,39.4453125,130.921875,0
548,5577664,-0.103515625,0.0244140625,-1.06591796875,1.03759765625,-1.28173828125,0.6103515625,-75.05859375,39.4453125,130.921875,0
549,5587664,-0.099609375,0.02490234375,-1.06689453125,1.40380859375,-1.3427734375,0.6103515625,-75.05859375,39.4453125,130.921875,0
550,5597668,-0.10302734375,0.025390625,-1.06787109375,1.220703125,-1.3427734375,0.67138671875,-75.05859375,39.4453125,130.921875,0
551,5607672,-0.103515625,0.02587890625,-1.068359375,1.28173828125,-1.0986328125,0.91552734375,-75.05859375,39.4453125,130.921875,0
552,5617676,-0.10498046875,0.02685546875,-1.06396484375,1.28173828125,-1.220703125,0.6103515625,-75.05859375,37.0546875,130.921875,0
553,5627664,-0.10302734375,0.02685546875,-1.07568359375,1.220703125,-1.46484375,0.67138671875,-75.05859375,37.0546875,130.921875,0
554,5637664,-0.10546875,0.0234375,-1.06640625,1.46484375,-1.15966796875,0.732421875,-75.05859375,37.0546875,130.921875,0
555,5647676,-0.10693359375,0.02685546875,-1.06591796875,1.3427734375,-1.220703125,0.8544921875,-75.05859375,37.0546875,130.921875,0
556,5657676,-0.099609375,0.029296875,-1.0615234375,1.28173828125,-1.40380859375,0.8544921875,-75.05859375,37.0546875,130.921875,0
557,5667664,-0.10400390625,0.0263671875,-1.06494140625,1.0986328125,-1.220703125,0.67138671875,-75.05859375,37.0546875,130.921875,0
558,5677664,-0.10302734375,0.02587890625,-1.05712890625,1.0986328125,-1.220703125,0.48828125,-75.05859375,37.0546875,130.921875,0
559,5687672,-0.10205078125,0.02587890625,-1.060546875,1.03759765625,-1.40380859375,0.732421875,-75.05859375,37.0546875,130.921875,0
560,5697676,-0.09814453125,0.02197265625,-1.07080078125,1.220703125,-1.03759765625,0.79345703125,-75.05859375,37.0546875,130.921875,0
561,5707664,-0.10595703125,0.02685546875,-1.0634765625,1.15966796875,-1.15966796875,0.732421875,-75.05859375,37.0546875,130.921875,0
562,5717664,-0.11279296875,0.0263671875,-1.06591796875,1.3427734375,-1.52587890625,0.79345703125,-75.05859375,37.0546875,130.921875,0
563,5727664,-0.1044921875,0.02685546875,-1.060546875,1.220703125,-1.28173828125,0.91552734375,-75.05859375,37.0546875,130.921875,0
564,5737668,-0.0966796875,0.02392578125,-1.06640625,1.220703125,-0.9765625,0.8544921875,-75.05859375,37.0546875,130.921875,0
565,5747664,-0.103515625,0.02392578125,-1.064453125,1.28173828125,-1.3427734375,0.8544921875,-75.05859375,38.25,133.21875,0
566,5757664,-0.107421875,0.025390625,-1.0634765625,1.15966796875,-1.3427734375,0.79345703125,-75.05859375,38.25,133.21875,0
567,5767664,-0.10205078125,0.025390625,-1.06298828125,1.15966796875,-1.220703125,0.79345703125,-75.05859375,38.25,133.21875,0
568,5777672,-0.1005859375,0.02587890625,-1.06201171875,1.15966796875,-1.28173828125,0.732421875,-75.05859375,38.25,133.21875,0
569,5787676,-0.1044921875,0.0234375,-1.0615234375,1.220703125,-1.28173828125,0.67138671875,-75.05859375,38.25,133.21875,0
570,5797664,-0.1025390625,0.02294921875,-1.06494140625,1.3427734375,-1.220703125,0.732421875,-75.05859375,38.25,133.21875,0
571,5807664,-0.1025390625,0.02392578125,-1.06201171875,1.15966796875,-1.28173828125,0.79345703125,-75.05859375,38.25,133.21875,0
572,5817676,-0.10009765625,0.0234375,-1.06494140625,0.9765625,-1.15966796875,0.54931640625,-75.05859375,38.25,133.21875,0
573,5827672,-0.107421875,0.0283203125,-1.060546875,1.28173828125,-1.220703125,0.6103515625,-75.05859375,38.25,133.21875,0
574,5837664,-0.119140625,0.0263671875,-1.0361328125,1.46484375,-2.44140625,0.91552734375,-75.05859375,38.25,133.21875,0
575,5847668,-0.0791015625,0.0224609375,-1.09326171875,1.0986328125,-0.06103515625,0.30517578125,-75.05859375,38.25,133.21875,0
576,5857672,-0.1259765625,0.02197265625,-1.05517578125,1.0986328125,-1.77001953125,0.67138671875,-75.05859375,38.25,133.21875,0
577,5867676,-0.09619140625,0.0244140625,-1.08935546875,1.03759765625,-0.244140625,0.48828125,-75.05859375,34.6640625,128.625,0
578,5877664,-0.10546875,0.02587890625,-1.04248046875,1.708984375,-2.5634765625,0.9765625,-75.05859375,34.6640625,128.625,0
579,5887668,-0.10009765625,0.02197265625,-1.0732421875,1.03759765625,-0.1220703125,0.3662109375,-75.05859375,34.6640625,128.625,0
580,5897664,-0.1064453125,0.0244140625,-1.056640625,1.220703125,-2.25830078125,1.15966796875,-75.05859375,34.6640625,128.625,0
581,5907672,-0.1015625,0.0302734375,-1.068359375,0.9765625,-0.79345703125,0.48828125,-75.05859375,34.6640625,128.625,0
582,5917664,-0.107421875,0.02001953125,-1.04931640625,1.15966796875,-1.953125,0.54931640625,-75.05859375,34.6640625,128.625,0
583,5927664,-0.09765625,0.02490234375,-1.064453125,1.28173828125,-1.03759765625,0.6103515625,-75.05859375,34.6640625,128.625,0
584,5937664,-0.10302734375,0.029296875,-1.0556640625,1.28173828125,-1.28173828125,0.67138671875,-75.05859375,34.6640625,128.625,0
585,5947668,-0.10693359375,0.0234375,-1.07470703125,0.91552734375,-1.15966796875,0.732421875,-75.05859375,34.6640625,128.625,0
586,5957672,-0.1025390625,0.02587890625,-1.060546875,1.03759765625,-1.28173828125,0.67138671875,-75.05859375,34.6640625,128.625,0
587,5967664,-0.0908203125,0.03076171875,-1.072265625,1.15966796875,-1.40380859375,0.91552734375,-75.05859375,34.6640625,128.625,0
588,5977664,-0.10888671875,0.0244140625,-1.06689453125,1.15966796875,-0.8544921875,0.67138671875,-75.05859375,34.6640625,128.625,0
589,5987680,-0.107421875,0.0185546875,-1.06640625,1.220703125,-1.40380859375,0.79345703125,-75.05859375,38.25,132.0703125,0
590,5997676,-0.10498046875,0.02197265625,-1.06689453125,1.03759765625,-1.0986328125,0.732421875,-75.05859375,38.25,132.0703125,0
591,6007668,-0.10009765625,0.0224609375,-1.0703125,1.3427734375,-1.46484375,0.8544921875,-75.05859375,38.25,132.0703125,0
592,6017664,-0.1064453125,0.0263671875,-1.0625,1.15966796875,-1.28173828125,0.6103515625,-75.05859375,38.25,132.0703125,0
593,6027672,-0.099609375,0.0283203125,-1.0634765625,0.91552734375,-1.5869140625,0.6103515625,-75.05859375,38.25,132.0703125,0
594,6037672,-0.107421875,0.02978515625,-1.06396484375,0.8544921875,-1.40380859375,0.9765625,-75.05859375,38.25,132.0703125,0
595,6047664,-0.09912109375,0.02001953125,-1.05517578125,1.15966796875,-1.220703125,0.732421875,-75.05859375,38.25,132.0703125,0
596,6057664,-0.10986328125,0.0244140625,-1.07275390625,1.28173828125,-1.5869140625,0.6103515625,-75.05859375,38.25,132.0703125,0
597,6067664,-0.1005859375,0.0341796875,-1.06689453125,1.3427734375,-1.03759765625,0.732421875,-75.05859375,38.25,132.0703125,0
598,6077676,-0.10302734375,0.025390625,-1.06201171875,1.0986328125,-1.40380859375,0.8544921875,-75.05859375,38.25,132.0703125,0
599,6087664,-0.0986328125,0.02001953125,-1.06591796875,1.28173828125,-0.8544921875,0.79345703125,-75.05859375,38.25,132.0703125,0
600,6097664,-0.10302734375,0.02392578125,-1.05712890625,1.03759765625,-1.15966796875,0.79345703125,-75.05859375,38.25,132.0703125,0
601,6107664,-0.10693359375,0.02197265625,-1.06494140625,1.03759765625,-1.46484375,0.91552734375,-75.05859375,38.25,132.0703125,0
602,6117672,-0.09814453125,0.02587890625,-1.0625,1.28173828125,-1.0986328125,0.79345703125,-72.67578125,34.6640625,130.921875,0
603,6127676,-0.10888671875,0.01904296875,-1.0654296875,1.220703125,-1.77001953125,0.67138671875,-72.67578125,34.6640625,130.921875,0
604,6137664,-0.1005859375,0.01904296875,-1.0693359375,1.0986328125,-0.9765625,0.30517578125,-72.67578125,34.6640625,130.921875,0
605,6147668,-0.09423828125,0.02490234375,-1.068359375,1.220703125,-1.220703125,0.67138671875,-72.67578125,34.6640625,130.921875,0
606,6157676,-0.10791015625,0.05322265625,-1.05517578125,0.67138671875,-2.01416015625,-0.48828125,-72.67578125,34.6640625,130.921875,0
607,6167672,-0.09814453125,0.03564453125,-1.0283203125,0.91552734375,-1.708984375,0.244140625,-72.67578125,34.6640625,130.921875,0
608,6177668,-0.07861328125,0.02587890625,-1.06640625,1.46484375,-0.91552734375,0.91552734375,-72.67578125,34.6640625,130.921875,0
609,6187664,-0.11181640625,0.025390625,-1.05712890625,1.220703125,-1.77001953125,0.8544921875,-72.67578125,34.6640625,130.921875,0
610,6197664,-0.1142578125,0.01611328125,-1.06884765625,1.0986328125,-1.46484375,0.48828125,-72.67578125,34.6640625,130.921875,0
611,6207668,-0.0927734375,0.02880859375,-1.06982421875,1.3427734375,-1.52587890625,0.732421875,-72.67578125,34.6640625,130.921875,0
612,6217664,-0.10888671875,0.0263671875,-1.05419921875,1.15966796875,-1.28173828125,0.79345703125,-72.67578125,34.6640625,130.921875,0
613,6227664,-0.10791015625,0.0185546875,-1.07373046875,0.91552734375,-1.46484375,0.54931640625,-72.67578125,34.6640625,130.921875,0
614,6237668,-0.09912109375,0.02490234375,-1.06884765625,1.220703125,-1.15966796875,0.79345703125,-76.25,38.25,128.625,0
615,6247672,-0.0986328125,0.02978515625,-1.07470703125,1.03759765625,-1.3427734375,0.54931640625,-76.25,38.25,128.625,0
616,6257676,-0.10791015625,0.02587890625,-1.06591796875,0.91552734375,-1.15966796875,0.6103515625,-76.25,38.25,128.625,0
617,6267668,-0.09765625,0.02734375,-1.06103515625,1.0986328125,-1.220703125,0.8544921875,-76.25,38.25,128.625,0
618,6277668,-0.10498046875,0.02197265625,-1.060546875,1.40380859375,-1.28173828125,0.67138671875,-76.25,38.25,128.625,0
619,6287676,-0.10302734375,0.0244140625,-1.06640625,1.03759765625,-1.28173828125,0.67138671875,-76.25,38.25,128.625,0
620,6297676,-0.10302734375,0.0244140625,-1.06884765625,1.0986328125,-1.0986328125,0.8544921875,-76.25,38.25,128.625,0
621,6307664,-0.10791015625,0.02587890625,-1.06689453125,1.15966796875,-1.3427734375,0.48828125,-76.25,38.25,128.625,0
622,6317664,-0.1064453125,0.02294921875,-1.05859375,1.3427734375,-1.15966796875,0.79345703125,-76.25,38.25,128.625,0
623,6327672,-0.10205078125,0.02783203125,-1.0576171875,1.220703125,-1.46484375,0.732421875,-76.25,38.25,128.625,0
624,6337680,-0.103515625,0.0302734375,-1.06689453125,0.9765625,-1.28173828125,0.67138671875,-76.25,38.25,128.625,0
625,6347668,-0.10302734375,0.02197265625,-1.0625,1.0986328125,-1.28173828125,0.732421875,-76.25,38.25,128.625,0
626,6357664,-0.1025390625,0.02392578125,-1.064453125,1.220703125,-1.46484375,0.54931640625,-75.05859375,37.0546875,129.7734375,0
627,6367664,-0.10498046875,0.02880859375,-1.06591796875,1.0986328125,-0.9765625,0.48828125,-75.05859375,37.0546875,129.7734375,0
628,6377668,-0.056640625,0.0341796875,-1.072265625,2.62451171875,-0.732421875,1.89208984375,-75.05859375,37.0546875,129.7734375,0
629,6387672,-0.09375,0.02880859375,-1.07080078125,0.30517578125,-0.9765625,0.1220703125,-75.05859375,37.0546875,129.7734375,0
630,6397668,-0.10986328125,0.01953125,-1.10400390625,1.64794921875,-0.9765625,0.732421875,-75.05859375,37.0546875,129.7734375,0
631,6407668,-0.10009765625,0.02783203125,-1.07080078125,1.28173828125,-1.46484375,0.79345703125,-75.05859375,37.0546875,129.7734375,0
632,6417668,-0.10400390625,0.0234375,-1.087890625,1.3427734375,-1.220703125,0.6103515625,-75.05859375,37.0546875,129.7734375,0
633,6427672,-0.10302734375,0.02392578125,-1.07080078125,1.03759765625,-1.220703125,0.48828125,-75.05859375,37.0546875,129.7734375,0
634,6437668,-0.10107421875,0.0283203125,-1.06787109375,1.03759765625,-1.46484375,0.6103515625,-75.05859375,37.0546875,129.7734375,0
635,6447668,-0.1015625,0.029296875,-1.0654296875,1.03759765625,-0.8544921875,0.732421875,-75.05859375,37.0546875,129.7734375,0
636,6457676,-0.10205078125,0.02587890625,-1.07080078125,1.0986328125,-1.0986328125,0.48828125,-75.05859375,37.0546875,129.7734375,0
637,6467672,-0.10693359375,0.02783203125,-1.0498046875,1.220703125,-1.5869140625,0.48828125,-75.05859375,37.0546875,129.7734375,0
638,6477664,-0.103515625,0.02294921875,-1.06494140625,1.15966796875,-1.220703125,0.732421875,-75.05859375,37.0546875,129.7734375,0
639,6487664,-0.10693359375,0.029296875,-1.0654296875,1.220703125,-1.0986328125,0.732421875,-73.8671875,35.859375,129.7734375,0
640,6497668,-0.10400390625,0.02587890625,-1.06689453125,1.03759765625,-0.91552734375,0.42724609375,-73.8671875,35.859375,129.7734375,0
641,6507672,-0.1103515625,0.0224609375,-1.06494140625,1.0986328125,-0.9765625,0.67138671875,-73.8671875,35.859375,129.7734375,0
642,6517664,-0.10595703125,0.02783203125,-1.0595703125,1.46484375,-1.15966796875,0.79345703125,-73.8671875,35.859375,129.7734375,0
643,6527668,-0.10107421875,0.0244140625,-1.06201171875,1.40380859375,-1.28173828125,0.732421875,-73.8671875,35.859375,129.7734375,0
644,6537668,-0.1025390625,0.0283203125,-1.07470703125,1.220703125,-1.220703125,0.48828125,-73.8671875,35.859375,129.7734375,0
645,6547672,-0.1064453125,0.025390625,-1.0634765625,1.15966796875,-1.28173828125,0.67138671875,-73.8671875,35.859375,129.7734375,0
646,6557664,-0.1025390625,0.025390625,-1.05810546875,1.03759765625,-1.3427734375,0.67138671875,-73.8671875,35.859375,129.7734375,0
647,6567664,-0.1025390625,0.025390625,-1.06494140625,1.28173828125,-1.3427734375,0.732421875,-73.8671875,35.859375,129.7734375,0
648,6577664,-0.10009765625,0.0244140625,-1.06689453125,1.3427734375,-1.220703125,0.732421875,-73.8671875,35.859375,129.7734375,0
649,6587668,-0.095703125,0.0263671875,-1.07177734375,1.0986328125,-1.40380859375,0.6103515625,-73.8671875,35.859375,129.7734375,0
650,6597668,-0.10888671875,0.03125,-1.0537109375,1.15966796875,-1.28173828125,0.6103515625,-73.8671875,35.859375,129.7734375,0
651,6607668,-0.10302734375,0.02685546875,-1.06884765625,1.0986328125,-1.46484375,0.54931640625,-75.05859375,37.0546875,126.328125,0
652,6617668,-0.10009765625,0.025390625,-1.06298828125,1.28173828125,-1.3427734375,0.48828125,-75.05859375,37.0546875,126.328125,0
653,6627680,-0.10693359375,0.0244140625,-1.04833984375,1.3427734375,-1.3427734375,0.79345703125,-75.05859375,37.0546875,126.328125,0
654,6637676,-0.10791015625,0.02294921875,-1.05322265625,1.220703125,-1.708984375,0.6103515625,-75.05859375,37.0546875,126.328125,0
655,6647668,-0.1015625,0.02490234375,-1.06640625,1.220703125,-1.3427734375,0.67138671875,-75.05859375,37.0546875,126.328125,0
656,6657664,-0.1044921875,0.02490234375,-1.05712890625,1.28173828125,-1.3427734375,0.6103515625,-75.05859375,37.0546875,126.328125,0
657,6667672,-0.103515625,0.0263671875,-1.07080078125,0.9765625,-1.15966796875,0.67138671875,-75.05859375,37.0546875,126.328125,0
658,6677668,-0.1005859375,0.02783203125,-1.0673828125,1.03759765625,-1.15966796875,0.67138671875,-75.05859375,37.0546875,126.328125,0
659,6687664,-0.10302734375,0.02392578125,-1.06787109375,1.28173828125,-1.52587890625,0.67138671875,-75.05859375,37.0546875,126.328125,0
660,6697664,-0.09912109375,0.029296875,-1.0712890625,1.3427734375,-1.0986328125,0.79345703125,-75.05859375,37.0546875,126.328125,0
661,6707668,-0.10546875,0.02587890625,-1.06884765625,1.46484375,-1.52587890625,0.79345703125,-75.05859375,37.0546875,126.328125,0
662,6717676,-0.10595703125,0.02587890625,-1.0693359375,0.8544921875,-1.15966796875,0.732421875,-75.05859375,37.0546875,126.328125,0
663,6727664,-0.1015625,0.02587890625,-1.06689453125,1.220703125,-1.220703125,0.54931640625,-75.05859375,37.0546875,132.0703125,0
664,6737664,-0.1015625,0.02734375,-1.068359375,1.28173828125,-1.0986328125,0.67138671875,-75.05859375,37.0546875,132.0703125,0
665,6747664,-0.10498046875,0.02490234375,-1.0556640625,1.0986328125,-1.03759765625,0.48828125,-75.05859375,37.0546875,132.0703125,0
666,6757672,-0.10546875,0.02490234375,-1.068359375,1.28173828125,-1.0986328125,0.54931640625,-75.05859375,37.0546875,132.0703125,0
667,6767676,-0.10498046875,0.0244140625,-1.06396484375,1.3427734375,-1.46484375,0.732421875,-75.05859375,37.0546875,132.0703125,0
668,6777664,-0.10205078125,0.02294921875,-1.0703125,1.0986328125,-1.220703125,0.54931640625,-75.05859375,37.0546875,132.0703125,0
669,6787668,-0.10400390625,0.0224609375,-1.0576171875,1.15966796875,-1.28173828125,0.732421875,-75.05859375,37.0546875,132.0703125,0
670,6797676,-0.099609375,0.02587890625,-1.06689453125,1.3427734375,-1.40380859375,0.54931640625,-75.05859375,37.0546875,132.0703125,0
671,6807672,-0.10107421875,0.029296875,-1.05859375,1.15966796875,-1.708984375,0.6103515625,-75.05859375,37.0546875,132.0703125,0
672,6817664,-0.095703125,0.025390625,-1.06982421875,1.28173828125,-1.28173828125,0.54931640625,-75.05859375,37.0546875,132.0703125,0
673,6827664,-0.109375,0.0205078125,-1.056640625,1.40380859375,-1.3427734375,0.79345703125,-75.05859375,37.0546875,132.0703125,0
674,6837664,-0.10791015625,0.02587890625,-1.06591796875,1.0986328125,-1.03759765625,0.79345703125,-75.05859375,37.0546875,132.0703125,0
675,6847672,-0.09814453125,0.0263671875,-1.0703125,1.15966796875,-1.15966796875,0.732421875,-72.67578125,38.25,126.328125,0
676,6857664,-0.10693359375,0.01904296875,-1.06689453125,1.28173828125,-1.0986328125,0.732421875,-72.67578125,38.25,126.328125,0
677,6867664,-0.10302734375,0.02392578125,-1.06298828125,1.220703125,-1.46484375,0.42724609375,-72.67578125,38.25,126.328125,0
678,6877668,-0.10400390625,0.02294921875,-1.07080078125,1.15966796875,-0.91552734375,0.67138671875,-72.67578125,38.25,126.328125,0
679,6887676,-0.10009765625,0.02587890625,-1.06005859375,1.28173828125,-1.220703125,0.06103515625,-72.67578125,38.25,126.328125,0
680,6897676,-0.09765625,0.025390625,-1.0693359375,1.28173828125,-1.220703125,0.48828125,-72.67578125,38.25,126.328125,0
681,6907668,-0.10205078125,0.0244140625,-1.0673828125,1.03759765625,-1.3427734375,0.48828125,-72.67578125,38.25,126.328125,0
682,6917668,-0.099609375,0.029296875,-1.0546875,1.15966796875,-1.28173828125,0.6103515625,-72.67578125,38.25,126.328125,0
683,6927676,-0.09814453125,0.02783203125,-1.07275390625,1.220703125,-1.46484375,0.91552734375,-72.67578125,38.25,126.328125,0
684,6937676,-0.1103515625,0.02685546875,-1.068359375,1.03759765625,-0.91552734375,0.732421875,-72.67578125,38.25,126.328125,0
685,6947664,-0.10498046875,0.029296875,-1.068359375,1.28173828125,-1.46484375,0.67138671875,-72.67578125,38.25,126.328125,0
686,6957664,-0.10400390625,0.0185546875,-1.06201171875,0.8544921875,-1.220703125,0.732421875,-72.67578125,38.25,126.328125,0
687,6967672,-0.1083984375,0.02197265625,-1.06689453125,1.0986328125,-1.15966796875,0.3662109375,-72.67578125,38.25,126.328125,0
688,6977676,-0.10693359375,0.02783203125,-1.0673828125,1.220703125,-1.15966796875,0.48828125,-72.67578125,35.859375,128.625,0
689,6987664,-0.1044921875,0.029296875,-1.05908203125,1.15966796875,-1.46484375,0.30517578125,-72.67578125,35.859375,128.625,0
690,6997664,-0.09716796875,0.0302734375,-1.07177734375,0.9765625,-1.03759765625,0.54931640625,-72.67578125,35.859375,128.625,0
691,7007664,-0.09716796875,0.0283203125,-1.06640625,1.28173828125,-1.46484375,0.6103515625,-72.67578125,35.859375,128.625,0
692,7017668,-0.09716796875,0.02392578125,-1.06201171875,1.03759765625,-1.220703125,0.67138671875,-72.67578125,35.859375,128.625,0
693,7027668,-0.10205078125,0.02783203125,-1.0625,1.28173828125,-1.46484375,0.67138671875,-72.67578125,35.859375,128.625,0
694,7037668,-0.103515625,0.02392578125,-1.06640625,1.0986328125,-1.40380859375,0.3662109375,-72.67578125,35.859375,128.625,0
695,7047668,-0.10302734375,0.02294921875,-1.05859375,1.3427734375,-1.28173828125,0.732421875,-72.67578125,35.859375,128.625,0
696,7057668,-0.10693359375,0.02099609375,-1.0625,1.15966796875,-1.15966796875,0.42724609375,-72.67578125,35.859375,128.625,0
697,7067676,-0.82080078125,0.982421875,0.15478515625,-38.4521484375,7.75146484375,3.72314453125,-72.67578125,35.859375,128.625,0
698,7077668,-0.57177734375,0.31396484375,-1.1044921875,-4.0283203125,16.05224609375,3.84521484375,-72.67578125,35.859375,128.625,0
699,7087668,0.00244140625,-0.037109375,-1.26953125,2.0751953125,-5.18798828125,0.244140625,-72.67578125,35.859375,128.625,0
700,7097676,-0.06787109375,0.06201171875,-1.13427734375,2.3193359375,2.5634765625,-1.03759765625,-70.29296875,34.6640625,73.5,0
701,7107676,-0.13671875,0.0087890625,-1.0126953125,1.3427734375,0.91552734375,-1.46484375,-70.29296875,34.6640625,73.5,0
702,7117664,-0.166015625,0.03271484375,-1.072265625,2.99072265625,-6.40869140625,1.3427734375,-70.29296875,34.6640625,73.5,0
703,7127660,-0.1015625,0.0224609375,-1.0458984375,3.7841796875,-8.9111328125,2.50244140625,-70.29296875,34.6640625,73.5,0
704,7137668,-0.1376953125,0.01025390625,-1.0654296875,2.86865234375,-9.521484375,1.5869140625,-70.29296875,34.6640625,73.5,0
705,7147672,-0.10595703125,0.021484375,-1.06689453125,1.5869140625,-4.39453125,-0.42724609375,-70.29296875,34.6640625,73.5,0
706,7157668,-0.09912109375,0.01220703125,-1.052734375,1.89208984375,-2.8076171875,-0.18310546875,-70.29296875,34.6640625,73.5,0
707,7167668,-0.119140625,0.01025390625,-1.08154296875,2.0751953125,-3.2958984375,-0.42724609375,-70.29296875,34.6640625,73.5,0
708,7177668,-0.1142578125,0.0166015625,-1.078125,1.40380859375,-1.220703125,-0.732421875,-70.29296875,34.6640625,73.5,0
709,7187672,-0.107421875,0.021484375,-1.06494140625,0.9765625,2.13623046875,-2.13623046875,-70.29296875,34.6640625,73.5,0
710,7197668,-0.12646484375,0.01904296875,-1.0517578125,1.40380859375,1.220703125,-1.28173828125,-70.29296875,34.6640625,73.5,0
711,7207664,-0.09814453125,0.0224609375,-1.0771484375,3.41796875,-28.3203125,5.7373046875,-70.29296875,34.6640625,73.5,0
712,7217664,-0.052734375,0.01171875,-1.11865234375,1.953125,-9.58251953125,1.52587890625,-72.67578125,33.46875,121.734375,0
713,7227668,-0.09912109375,0.02587890625,-1.068359375,1.64794921875,-2.62451171875,0.732421875,-72.67578125,33.46875,121.734375,0
714,7237672,-0.09326171875,0.01904296875,-1.06396484375,1.40380859375,-2.01416015625,0.67138671875,-72.67578125,33.46875,121.734375,0
715,7247668,-0.1005859375,0.01806640625,-1.05712890625,1.3427734375,-2.0751953125,0.67138671875,-72.67578125,33.46875,121.734375,0
716,7257664,-0.1015625,0.02197265625,-1.072265625,1.0986328125,-2.3193359375,0.6103515625,-72.67578125,33.46875,121.734375,0
717,7267680,-0.10595703125,0.02294921875,-1.0595703125,0.8544921875,-1.64794921875,0.732421875,-72.67578125,33.46875,121.734375,0
718,7277676,-0.10302734375,0.01611328125,-1.064453125,0.9765625,-1.64794921875,0.8544921875,-72.67578125,33.46875,121.734375,0
719,7287668,-0.10009765625,0.01513671875,-1.0654296875,1.15966796875,-1.0986328125,0.79345703125,-72.67578125,33.46875,121.734375,0
720,7297664,-0.1162109375,0.01318359375,-1.052734375,1.3427734375,-1.03759765625,0.732421875,-72.67578125,33.46875,121.734375,0
721,7307672,-0.10595703125,0.01806640625,-1.056640625,1.64794921875,-1.15966796875,0.67138671875,-72.67578125,33.46875,121.734375,0
722,7317668,-0.09912109375,0.01611328125,-1.0654296875,1.708984375,-1.15966796875,0.6103515625,-72.67578125,33.46875,121.734375,0
723,7327664,-0.099609375,0.01171875,-1.07373046875,1.52587890625,-0.79345703125,0.79345703125,-72.67578125,33.46875,121.734375,0
724,7337668,-0.0126953125,0.0634765625,-0.916015625,0.1220703125,-2.99072265625,0.06103515625,-72.67578125,33.46875,121.734375,0
725,7347668,-0.0625,0.0126953125,-0.97607421875,1.89208984375,-0.67138671875,0.54931640625,-73.8671875,34.6640625,124.03125,0
726,7357676,-0.10107421875,0.02734375,-1.0595703125,1.220703125,-1.46484375,0.79345703125,-73.8671875,34.6640625,124.03125,0
727,7367668,-0.09814453125,0.0068359375,-1.11279296875,1.52587890625,-1.5869140625,0.3662109375,-73.8671875,34.6640625,124.03125,0
728,7377664,-0.109375,0.02001953125,-1.0673828125,0.9765625,-1.28173828125,0.8544921875,-73.8671875,34.6640625,124.03125,0
729,7387664,-0.10107421875,0.01953125,-1.0576171875,1.28173828125,-1.52587890625,0.3662109375,-73.8671875,34.6640625,124.03125,0
730,7397672,-0.1044921875,0.0234375,-1.0537109375,1.15966796875,-1.15966796875,0.8544921875,-73.8671875,34.6640625,124.03125,0
731,7407676,-0.10546875,0.02099609375,-1.06201171875,1.03759765625,-0.91552734375,0.6103515625,-73.8671875,34.6640625,124.03125,0
732,7417664,-0.10302734375,0.0185546875,-1.06591796875,1.03759765625,-1.220703125,0.79345703125,-73.8671875,34.6640625,124.03125,0
733,7427672,-0.1044921875,0.02197265625,-1.064453125,0.9765625,-1.28173828125,0.42724609375,-73.8671875,34.6640625,124.03125,0
734,7437676,-0.1005859375,0.02001953125,-1.05810546875,1.15966796875,-1.28173828125,0.67138671875,-73.8671875,34.6640625,124.03125,0
735,7447676,-0.09912109375,0.0224609375,-1.068359375,1.15966796875,-1.28173828125,0.30517578125,-73.8671875,34.6640625,124.03125,0
736,7457664,-0.10009765625,0.01611328125,-1.08349609375,2.13623046875,-2.13623046875,1.220703125,-73.8671875,34.6640625,124.03125,0
737,7467664,-0.10546875,0.0224609375,-1.07666015625,1.5869140625,-1.28173828125,0.67138671875,-71.484375,32.2734375,126.328125,0
738,7477668,-0.10498046875,0.01953125,-1.06884765625,0.8544921875,-1.0986328125,0.48828125,-71.484375,32.2734375,126.328125,0
739,7487672,-0.10498046875,0.015625,-1.072265625,0.9765625,-1.220703125,0.48828125,-71.484375,32.2734375,126.328125,0
740,7497664,-0.10595703125,0.02099609375,-1.05859375,1.15966796875,-1.15966796875,0.3662109375,-71.484375,32.2734375,126.328125,0
741,7507664,-0.109375,0.02197265625,-1.0654296875,1.46484375,-1.220703125,0.48828125,-71.484375,32.2734375,126.328125,0
742,7517668,-0.1025390625,0.017578125,-1.0595703125,1.15966796875,-1.3427734375,0.67138671875,-71.484375,32.2734375,126.328125,0
743,7527672,-0.10205078125,0.02099609375,-1.0693359375,0.8544921875,-1.15966796875,0.54931640625,-71.484375,32.2734375,126.328125,0
744,7537676,-0.10302734375,0.0224609375,-1.0595703125,1.03759765625,-1.40380859375,0.54931640625,-71.484375,32.2734375,126.328125,0
745,7547668,-0.10302734375,0.01953125,-1.06103515625,1.5869140625,-1.15966796875,0.6103515625,-71.484375,32.2734375,126.328125,0
746,7557668,-0.1025390625,0.0205078125,-1.0576171875,1.77001953125,-1.46484375,0.48828125,-71.484375,32.2734375,126.328125,0
747,7567676,-0.103515625,0.02197265625,-1.0654296875,1.03759765625,-1.3427734375,0.79345703125,-71.484375,32.2734375,126.328125,0
748,7577676,-0.10107421875,0.01708984375,-1.06689453125,0.91552734375,-1.03759765625,0.732421875,-71.484375,32.2734375,126.328125,0
749,7587664,-0.10498046875,0.01513671875,-1.05810546875,1.220703125,-1.3427734375,0.54931640625,-73.8671875,31.078125,128.625,0
750,7597668,-0.10693359375,0.01611328125,-1.060546875,1.46484375,-1.220703125,0.54931640625,-73.8671875,31.078125,128.625,0
751,7607672,-0.1044921875,0.0185546875,-1.06298828125,1.15966796875,-0.8544921875,0.3662109375,-73.8671875,31.078125,128.625,0
752,7617680,-0.10693359375,0.0205078125,-1.0615234375,1.03759765625,-0.8544921875,0.48828125,-73.8671875,31.078125,128.625,0
753,7627668,-0.103515625,0.01904296875,-1.06689453125,0.3662109375,-0.79345703125,0.30517578125,-73.8671875,31.078125,128.625,0
754,7637664,-0.1015625,0.02197265625,-1.05859375,0.54931640625,-1.220703125,0.54931640625,-73.8671875,31.078125,128.625,0
755,7647664,-0.09619140625,0.01953125,-1.07666015625,0.67138671875,-1.220703125,0.3662109375,-73.8671875,31.078125,128.625,0
756,7657668,-0.10205078125,0.02392578125,-1.0615234375,1.15966796875,-1.52587890625,0.79345703125,-73.8671875,31.078125,128.625,0
757,7667664,-0.099609375,0.0166015625,-1.06103515625,1.28173828125,-1.46484375,0.54931640625,-73.8671875,31.078125,128.625,0
758,7677664,-0.10009765625,0.01904296875,-1.05712890625,1.46484375,-1.28173828125,0.79345703125,-73.8671875,31.078125,128.625,0
759,7687668,-0.1064453125,0.01708984375,-1.0595703125,2.01416015625,-1.8310546875,0.54931640625,-73.8671875,31.078125,128.625,0
760,7697668,-0.1015625,0.01708984375,-1.0625,1.89208984375,-1.3427734375,0.42724609375,-73.8671875,31.078125,128.625,0
761,7707676,-0.10400390625,0.01318359375,-1.06689453125,1.708984375,-1.220703125,0.67138671875,-73.8671875,31.078125,128.625,0
762,7717668,-0.10205078125,0.01513671875,-1.06640625,1.40380859375,-1.220703125,0.48828125,-71.484375,29.8828125,127.4765625,0
763,7727668,-0.10546875,0.02392578125,-1.06298828125,1.15966796875,-0.9765625,0.6103515625,-71.484375,29.8828125,127.4765625,0
764,7737676,-0.1064453125,0.01904296875,-1.0615234375,1.5869140625,-1.52587890625,0.6103515625,-71.484375,29.8828125,127.4765625,0
765,7747672,-0.1015625,0.02587890625,-1.0625,1.3427734375,-1.28173828125,0.54931640625,-71.484375,29.8828125,127.4765625,0
766,7757664,-0.10546875,0.02197265625,-1.0615234375,1.46484375,-1.220703125,0.48828125,-71.484375,29.8828125,127.4765625,0
767,7767664,-0.1025390625,0.01806640625,-1.068359375,1.220703125,-1.28173828125,0.8544921875,-71.484375,29.8828125,127.4765625,0
768,7777668,-0.10400390625,0.01953125,-1.0595703125,0.91552734375,-1.40380859375,0.732421875,-71.484375,29.8828125,127.4765625,0
769,7787676,-0.1044921875,0.02099609375,-1.06494140625,1.220703125,-1.28173828125,0.18310546875,-71.484375,29.8828125,127.4765625,0
770,7797668,-0.10009765625,0.0185546875,-1.0576171875,0.9765625,-1.220703125,0.30517578125,-71.484375,29.8828125,127.4765625,0
771,7807668,-0.10595703125,0.015625,-1.0615234375,0.8544921875,-1.15966796875,0.54931640625,-71.484375,29.8828125,127.4765625,0
772,7817668,-0.10546875,0.0166015625,-1.06591796875,0.79345703125,-1.0986328125,0.3662109375,-71.484375,29.8828125,127.4765625,0
773,7827672,-0.107421875,0.0166015625,-1.0654296875,0.91552734375,-0.91552734375,0.30517578125,-71.484375,29.8828125,127.4765625,0
774,7837668,-0.10400390625,0.01953125,-1.0625,0.9765625,-1.28173828125,0.3662109375,-73.8671875,31.078125,130.921875,0
775,7847664,-0.10498046875,0.01611328125,-1.06591796875,1.220703125,-1.0986328125,0.6103515625,-73.8671875,31.078125,130.921875,0
776,7857664,-0.1015625,0.0244140625,-1.0634765625,1.3427734375,-1.3427734375,0.42724609375,-73.8671875,31.078125,130.921875,0
777,7867668,-0.10498046875,0.02294921875,-1.06591796875,1.40380859375,-1.40380859375,0.48828125,-73.8671875,31.078125,130.921875,0
778,7877672,-0.10595703125,0.02001953125,-1.0673828125,1.220703125,-1.220703125,0.6103515625,-73.8671875,31.078125,130.921875,0
779,7887668,-0.10400390625,0.017578125,-1.06884765625,1.03759765625,-1.28173828125,0.42724609375,-73.8671875,31.078125,130.921875,0
780,7897664,-0.1044921875,0.017578125,-1.06005859375,0.91552734375,-3.7841796875,0.67138671875,-73.8671875,31.078125,130.921875,0
781,7907680,-0.111328125,0.025390625,-1.0478515625,0.8544921875,-3.2958984375,0.8544921875,-73.8671875,31.078125,130.921875,0
782,7917676,-0.0966796875,0.0283203125,-1.05029296875,1.64794921875,-2.9296875,0.3662109375,-73.8671875,31.078125,130.921875,0
783,7927664,-0.10107421875,0.05908203125,-1.0595703125,0.8544921875,-3.84521484375,1.953125,-73.8671875,31.078125,130.921875,0
784,7937664,-0.11279296875,0.01025390625,-0.97998046875,1.40380859375,-4.5166015625,1.220703125,-73.8671875,31.078125,130.921875,0
785,7947672,-0.08056640625,0.01904296875,-1.03515625,0.79345703125,-0.91552734375,0.3662109375,-73.8671875,31.078125,130.921875,0
786,7957668,-0.10595703125,0.0234375,-1.0380859375,1.28173828125,-2.9296875,0.6103515625,-75.05859375,31.078125,129.7734375,0
787,7967664,-0.11767578125,0.02734375,-1.0732421875,1.46484375,-1.52587890625,0.79345703125,-75.05859375,31.078125,129.7734375,0
788,7977664,-0.091796875,0.0185546875,-1.09033203125,1.15966796875,-1.953125,0.732421875,-75.05859375,31.078125,129.7734375,0
789,7987668,-0.09765625,0.01416015625,-1.07177734375,1.3427734375,-1.64794921875,0.54931640625,-75.05859375,31.078125,129.7734375,0
790,7997680,-0.09033203125,0.01904296875,-1.0595703125,1.03759765625,-1.52587890625,0.48828125,-75.05859375,31.078125,129.7734375,0
791,8007664,-0.1015625,0.02392578125,-1.05712890625,1.40380859375,-3.41796875,0.91552734375,-75.05859375,31.078125,129.7734375,0
792,8017664,-0.10888671875,0.02197265625,-1.056640625,1.0986328125,-2.99072265625,0.8544921875,-75.05859375,31.078125,129.7734375,0
793,8027664,-0.11083984375,0.01806640625,-1.06005859375,1.28173828125,-0.79345703125,0.42724609375,-75.05859375,31.078125,129.7734375,0
794,8037676,-0.10498046875,0.0185546875,-1.064453125,1.03759765625,-0.67138671875,0.48828125,-75.05859375,31.078125,129.7734375,0
795,8047680,-0.1171875,0.01611328125,-1.046875,1.220703125,-0.67138671875,0.48828125,-75.05859375,31.078125,129.7734375,0
796,8057668,-0.10009765625,0.021484375,-1.068359375,1.0986328125,-0.1220703125,0.42724609375,-75.05859375,31.078125,129.7734375,0
797,8067668,-0.09814453125,0.0263671875,-1.0625,1.15966796875,-0.79345703125,0.3662109375,-75.05859375,31.078125,129.7734375,0
798,8077676,-0.10107421875,0.02490234375,-1.06494140625,1.28173828125,-0.6103515625,0.42724609375,-72.67578125,29.8828125,129.7734375,0
799,8087676,-0.09375,0.01513671875,-1.06640625,1.220703125,-0.8544921875,0.67138671875,-72.67578125,29.8828125,129.7734375,0
800,8097668,-0.1171875,0.017578125,-1.0546875,1.220703125,-0.91552734375,0.48828125,-72.67578125,29.8828125,129.7734375,0
801,8107668,-0.109375,0.02294921875,-1.0615234375,1.46484375,-0.9765625,0.42724609375,-72.67578125,29.8828125,129.7734375,0
802,8117668,-0.10498046875,0.01904296875,-1.06640625,1.3427734375,-0.9765625,0.30517578125,-72.67578125,29.8828125,129.7734375,0
803,8127672,-0.1044921875,0.02099609375,-1.05712890625,1.40380859375,-1.220703125,0.79345703125,-72.67578125,29.8828125,129.7734375,0
804,8137664,-0.107421875,0.01708984375,-1.06103515625,1.46484375,-1.46484375,0.48828125,-72.67578125,29.8828125,129.7734375,0
805,8147664,-0.09716796875,0.01611328125,-1.04833984375,1.40380859375,-0.91552734375,0.48828125,-72.67578125,29.8828125,129.7734375,0
806,8157668,-0.103515625,0.01904296875,-1.0634765625,1.52587890625,-0.732421875,0.6103515625,-72.67578125,29.8828125,129.7734375,0
807,8167672,-0.09619140625,0.02099609375,-1.08447265625,1.15966796875,-1.0986328125,0.6103515625,-72.67578125,29.8828125,129.7734375,0
808,8177676,-0.0908203125,0.02197265625,-1.07470703125,1.0986328125,-1.03759765625,0.42724609375,-72.67578125,29.8828125,129.7734375,0
809,8187668,-0.109375,0.0166015625,-1.05078125,1.03759765625,-1.220703125,0.3662109375,-72.67578125,29.8828125,129.7734375,0
810,8197668,-0.103515625,0.0166015625,-1.08544921875,1.708984375,-1.28173828125,0.3662109375,-72.67578125,29.8828125,129.7734375,0
811,8207676,-0.10595703125,0.02099609375,-1.0869140625,1.28173828125,-0.67138671875,0.42724609375,-72.67578125,31.078125,130.921875,0
812,8217676,-0.1005859375,0.025390625,-1.0751953125,1.15966796875,-0.91552734375,0.244140625,-72.67578125,31.078125,130.921875,0
813,8227664,-0.0986328125,0.01904296875,-1.060546875,0.8544921875,-0.9765625,0.18310546875,-72.67578125,31.078125,130.921875,0
814,8237664,-0.1005859375,0.013671875,-1.05517578125,1.3427734375,-1.15966796875,0.54931640625,-72.67578125,31.078125,130.921875,0
815,8247672,-0.10791015625,0.0234375,-1.05615234375,1.40380859375,-1.40380859375,0.30517578125,-72.67578125,31.078125,130.921875,0
816,8257676,-0.10498046875,0.02392578125,-1.0576171875,1.40380859375,-1.46484375,0.67138671875,-72.67578125,31.078125,130.921875,0
817,8267664,-0.10205078125,0.015625,-1.07568359375,1.28173828125,-1.28173828125,0.6103515625,-72.67578125,31.078125,130.921875,0
818,8277664,-0.10107421875,0.0146484375,-1.07470703125,1.220703125,-1.3427734375,0.9765625,-72.67578125,31.078125,130.921875,0
819,8287664,-0.099609375,0.01513671875,-1.06396484375,1.28173828125,-1.15966796875,0.3662109375,-72.67578125,31.078125,130.921875,0
820,8297668,-0.10302734375,0.02392578125,-1.06591796875,1.220703125,-1.03759765625,0.6103515625,-72.67578125,31.078125,130.921875,0
821,8307664,-0.10498046875,0.02294921875,-1.0634765625,1.220703125,-1.03759765625,0.3662109375,-72.67578125,31.078125,130.921875,0
822,8317664,-0.103515625,0.013671875,-1.0732421875,1.220703125,-1.0986328125,0.42724609375,-72.67578125,31.078125,130.921875,0
823,8327664,-0.09912109375,0.01171875,-1.06494140625,1.46484375,-1.28173828125,0.42724609375,-73.8671875,29.8828125,128.625,0
824,8337672,-0.1103515625,0.01953125,-1.05810546875,1.15966796875,-1.46484375,0.48828125,-73.8671875,29.8828125,128.625,0
825,8347676,-0.10693359375,0.01708984375,-1.05126953125,1.3427734375,-1.40380859375,0.42724609375,-73.8671875,29.8828125,128.625,0
826,8357664,-0.0966796875,0.0205078125,-1.0693359375,1.0986328125,-1.3427734375,0.3662109375,-73.8671875,29.8828125,128.625,0
827,8367664,-0.09619140625,0.01904296875,-1.06591796875,1.220703125,-0.732421875,0.54931640625,-73.8671875,29.8828125,128.625,0
828,8377676,-0.1025390625,0.0185546875,-1.0654296875,1.28173828125,-0.9765625,0.3662109375,-73.8671875,29.8828125,128.625,0
829,8387672,-0.10107421875,0.017578125,-1.05322265625,1.52587890625,-0.9765625,0.1220703125,-73.8671875,29.8828125,128.625,0
830,8397668,-0.10400390625,0.02001953125,-1.06396484375,1.0986328125,-0.9765625,0.42724609375,-73.8671875,29.8828125,128.625,0
831,8407664,-0.1103515625,0.01416015625,-1.0546875,1.15966796875,-1.3427734375,0.48828125,-73.8671875,29.8828125,128.625,0
832,8417668,-0.10498046875,0.01953125,-1.06591796875,1.0986328125,-1.220703125,0.48828125,-73.8671875,29.8828125,128.625,0
833,8427672,-0.09521484375,0.01904296875,-1.0693359375,1.220703125,-1.15966796875,0.30517578125,-73.8671875,29.8828125,128.625,0
834,8437668,-0.0947265625,0.0224609375,-1.07666015625,1.0986328125,-1.15966796875,0.48828125,-73.8671875,29.8828125,128.625,0
835,8447668,-0.10400390625,0.0205078125,-1.0712890625,1.28173828125,-1.3427734375,0.42724609375,-75.05859375,31.078125,129.7734375,0
836,8457664,-0.08740234375,0.02294921875,-1.07568359375,1.3427734375,-0.91552734375,0.6103515625,-75.05859375,31.078125,129.7734375,0
837,8467668,-0.1025390625,0.02197265625,-1.05810546875,1.3427734375,-1.40380859375,0.48828125,-75.05859375,31.078125,129.7734375,0
838,8477668,-0.10107421875,0.017578125,-1.0595703125,1.40380859375,-1.40380859375,0.732421875,-75.05859375,31.078125,129.7734375,0
839,8487664,-0.099609375,0.0146484375,-1.05859375,1.46484375,-1.52587890625,0.54931640625,-75.05859375,31.078125,129.7734375,0
840,8497664,-0.10107421875,0.0146484375,-1.06494140625,1.220703125,-1.5869140625,0.6103515625,-75.05859375,31.078125,129.7734375,0
841,8507668,-0.09423828125,0.01904296875,-1.0654296875,1.52587890625,-1.40380859375,0.54931640625,-75.05859375,31.078125,129.7734375,0
842,8517668,-0.1015625,0.0205078125,-1.060546875,1.5869140625,-1.5869140625,0.79345703125,-75.05859375,31.078125,129.7734375,0
843,8527668,-0.103515625,0.021484375,-1.0595703125,1.15966796875,-1.40380859375,0.42724609375,-75.05859375,31.078125,129.7734375,0
844,8537668,-0.10498046875,0.02099609375,-1.0615234375,1.15966796875,-1.46484375,0.30517578125,-75.05859375,31.078125,129.7734375,0
845,8547684,-0.103515625,0.02294921875,-1.05810546875,0.9765625,-1.64794921875,0.244140625,-75.05859375,31.078125,129.7734375,0
846,8557676,-0.1015625,0.02197265625,-1.06201171875,1.28173828125,-1.46484375,0.732421875,-75.05859375,31.078125,129.7734375,0
847,8567668,-0.09912109375,0.02001953125,-1.06201171875,1.3427734375,-1.46484375,0.732421875,-75.05859375,31.078125,129.7734375,0
848,8577668,-0.10107421875,0.01806640625,-1.0654296875,1.15966796875,-1.220703125,0.48828125,-75.05859375,31.078125,126.328125,0
849,8587672,-0.10205078125,0.01416015625,-1.06201171875,1.15966796875,-1.28173828125,0.42724609375,-75.05859375,31.078125,126.328125,0
850,8597672,-0.09912109375,0.0146484375,-1.0595703125,1.15966796875,-1.40380859375,0.6103515625,-75.05859375,31.078125,126.328125,0
851,8607664,-0.1015625,0.0205078125,-1.0654296875,1.3427734375,-1.0986328125,0.42724609375,-75.05859375,31.078125,126.328125,0
852,8617664,-0.10107421875,0.01904296875,-1.0634765625,1.220703125,-1.3427734375,0.732421875,-75.05859375,31.078125,126.328125,0
853,8627668,-0.0986328125,0.021484375,-1.06201171875,1.46484375,-1.46484375,0.67138671875,-75.05859375,31.078125,126.328125,0
854,8637676,-0.1005859375,0.0234375,-1.0673828125,1.52587890625,-1.5869140625,0.54931640625,-75.05859375,31.078125,126.328125,0
855,8647668,-0.10302734375,0.02587890625,-1.072265625,1.0986328125,-1.28173828125,0.8544921875,-75.05859375,31.078125,126.328125,0
856,8657664,-0.10986328125,0.03076171875,-0.87841796875,0.8544921875,-2.0751953125,0.79345703125,-75.05859375,31.078125,126.328125,0
857,8667664,-0.076171875,0.02783203125,-1.08056640625,1.220703125,-1.28173828125,0.1220703125,-75.05859375,31.078125,126.328125,0
858,8677680,-0.09521484375,0.0234375,-1.06884765625,1.220703125,-1.40380859375,0.54931640625,-75.05859375,31.078125,126.328125,0
859,8687680,-0.10546875,0.0205078125,-1.0576171875,1.52587890625,-1.77001953125,0.3662109375,-75.05859375,31.078125,126.328125,0
860,8697664,-0.10107421875,0.01416015625,-1.07177734375,1.5869140625,-1.40380859375,0.6103515625,-73.8671875,32.2734375,129.7734375,0
861,8707668,-0.099609375,0.01904296875,-1.072265625,0.732421875,-0.79345703125,0.3662109375,-73.8671875,32.2734375,129.7734375,0
862,8717676,-0.10205078125,0.01513671875,-1.06298828125,0.9765625,-1.0986328125,0.48828125,-73.8671875,32.2734375,129.7734375,0
863,8727676,-0.109375,0.01318359375,-1.06640625,1.3427734375,-1.220703125,0.48828125,-73.8671875,32.2734375,129.7734375,0
864,8737668,-0.10546875,0.0185546875,-1.06494140625,1.220703125,-1.40380859375,0.48828125,-73.8671875,32.2734375,129.7734375,0
865,8747664,-0.10205078125,0.02001953125,-1.05908203125,1.0986328125,-1.220703125,0.42724609375,-73.8671875,32.2734375,129.7734375,0
866,8757664,-0.10009765625,0.0224609375,-1.0673828125,1.15966796875,-1.28173828125,0.732421875,-73.8671875,32.2734375,129.7734375,0
867,8767668,-0.1015625,0.02099609375,-1.0595703125,1.0986328125,-1.28173828125,0.6103515625,-73.8671875,32.2734375,129.7734375,0
868,8777664,-0.09716796875,0.02294921875,-1.0654296875,1.89208984375,-1.64794921875,0.8544921875,-73.8671875,32.2734375,129.7734375,0
869,8787664,-0.0966796875,0.02294921875,-1.0693359375,1.64794921875,-1.46484375,0.6103515625,-73.8671875,32.2734375,129.7734375,0
870,8797668,-0.10009765625,0.0224609375,-1.06884765625,1.28173828125,-0.8544921875,0.6103515625,-73.8671875,32.2734375,129.7734375,0
871,8807672,-0.0986328125,0.02099609375,-1.06689453125,0.79345703125,-0.79345703125,0.732421875,-73.8671875,32.2734375,129.7734375,0
872,8817680,-0.103515625,0.01513671875,-1.060546875,0.54931640625,-1.0986328125,0.48828125,-73.8671875,32.2734375,129.7734375,0
873,8827668,-0.10107421875,0.015625,-1.064453125,0.8544921875,-0.67138671875,0.6103515625,-73.8671875,32.2734375,129.7734375,0
874,8837668,-0.1015625,0.0146484375,-1.064453125,1.03759765625,-1.15966796875,0.48828125,-73.8671875,32.2734375,129.7734375,0
875,8847680,-0.0263671875,0.0302734375,-1.1162109375,-2.86865234375,52.734375,-18.85986328125,-73.8671875,32.2734375,129.7734375,0
876,8857676,-0.1123046875,0.0185546875,-1.04638671875,1.3427734375,-1.28173828125,1.03759765625,-73.8671875,32.2734375,129.7734375,0
877,8867660,-0.1064453125,0.013671875,-1.06982421875,2.25830078125,-8.72802734375,2.8076171875,-73.8671875,32.2734375,129.7734375,0
878,8877664,-0.0263671875,0.00341796875,-1.13720703125,1.77001953125,-1.77001953125,0.30517578125,-73.8671875,32.2734375,129.7734375,0
879,8887668,-0.10302734375,0.0224609375,-1.05810546875,2.197265625,-2.0751953125,1.03759765625,-73.8671875,32.2734375,129.7734375,0
880,8897676,-0.1025390625,0.0185546875,-1.06689453125,1.708984375,-1.8310546875,0.9765625,-73.8671875,32.2734375,129.7734375,0
881,8907664,-0.1044921875,0.01904296875,-1.0712890625,1.28173828125,-1.64794921875,0.48828125,-73.8671875,32.2734375,129.7734375,0
882,8917664,-0.10009765625,0.021484375,-1.064453125,1.708984375,-1.708984375,0.6103515625,-73.8671875,32.2734375,129.7734375,0
883,8927664,-0.099609375,0.02001953125,-1.06103515625,1.52587890625,-1.52587890625,0.732421875,-73.8671875,32.2734375,129.7734375,0
884,8937668,-0.10107421875,0.0244140625,-1.072265625,1.03759765625,-1.03759765625,0.244140625,-73.8671875,32.2734375,129.7734375,0
885,8947668,-0.1015625,0.02001953125,-1.06640625,0.9765625,-0.48828125,0.244140625,-72.67578125,33.46875,122.8828125,0
886,8957664,-0.11376953125,0.017578125,-1.02880859375,1.220703125,-1.3427734375,0.54931640625,-72.67578125,33.46875,122.8828125,0
887,8967664,-0.09765625,0.02197265625,-1.05517578125,1.52587890625,-1.5869140625,0.42724609375,-72.67578125,33.46875,122.8828125,0
888,8977672,-0.10302734375,0.01904296875,-1.06884765625,0.91552734375,-1.5869140625,0.91552734375,-72.67578125,33.46875,122.8828125,0
889,8987676,-0.10400390625,0.01611328125,-1.06396484375,0.9765625,-1.28173828125,0.67138671875,-72.67578125,33.46875,122.8828125,0
890,8997664,-0.103515625,0.01904296875,-1.05517578125,1.5869140625,-1.5869140625,0.79345703125,-72.67578125,33.46875,122.8828125,0
891,9007664,-0.1015625,0.01953125,-1.05908203125,1.8310546875,-1.77001953125,0.79345703125,-72.67578125,33.46875,122.8828125,0
892,9017676,-0.10693359375,0.01904296875,-1.06787109375,1.64794921875,-1.220703125,0.6103515625,-72.67578125,33.46875,122.8828125,0
893,9027672,-0.10546875,0.02880859375,-1.06201171875,0.8544921875,-0.8544921875,0.244140625,-72.67578125,33.46875,122.8828125,0
894,9037664,-0.10107421875,0.01904296875,-1.0517578125,0.8544921875,-1.0986328125,0.48828125,-72.67578125,33.46875,122.8828125,0
895,9047664,-0.10302734375,0.02099609375,-1.0546875,0.8544921875,-1.220703125,0.3662109375,-72.67578125,33.46875,122.8828125,0
896,9057668,-0.10400390625,0.0224609375,-1.072265625,0.9765625,-0.9765625,0.48828125,-72.67578125,33.46875,122.8828125,0
897,9067672,-0.1015625,0.02001953125,-1.06396484375,1.28173828125,-1.03759765625,0.48828125,-71.484375,32.2734375,124.03125,0
898,9077668,-0.107421875,0.0224609375,-1.0625,1.03759765625,-1.15966796875,0.3662109375,-71.484375,32.2734375,124.03125,0
899,9087668,-0.099609375,0.017578125,-1.0615234375,0.91552734375,-1.15966796875,0.48828125,-71.484375,32.2734375,124.03125,0
900,9097668,-0.103515625,0.0166015625,-1.041015625,1.46484375,-1.52587890625,0.6103515625,-71.484375,32.2734375,124.03125,0
901,9107672,-0.1025390625,0.01904296875,-1.05810546875,1.5869140625,-1.46484375,0.9765625,-71.484375,32.2734375,124.03125,0
902,9117664,-0.09814453125,0.01708984375,-1.0654296875,1.64794921875,-1.28173828125,0.42724609375,-71.484375,32.2734375,124.03125,0
903,9127664,-0.10498046875,0.02001953125,-1.06494140625,1.15966796875,-1.03759765625,0.67138671875,-71.484375,32.2734375,124.03125,0
904,9137664,-0.10400390625,0.021484375,-1.0634765625,1.28173828125,-1.28173828125,0.54931640625,-71.484375,32.2734375,124.03125,0
905,9147668,-0.1044921875,0.01953125,-1.05810546875,1.52587890625,-1.28173828125,0.54931640625,-71.484375,32.2734375,124.03125,0
906,9157672,-0.10498046875,0.0205078125,-1.0615234375,1.46484375,-1.3427734375,0.3662109375,-71.484375,32.2734375,124.03125,0
907,9167668,-0.10400390625,0.01904296875,-1.0625,1.0986328125,-0.9765625,0.48828125,-71.484375,32.2734375,124.03125,0
908,9177664,-0.10400390625,0.0224609375,-1.06396484375,1.220703125,-1.3427734375,0.3662109375,-71.484375,32.2734375,124.03125,0
909,9187680,-0.11669921875,0.025390625,-1.03759765625,1.52587890625,-1.28173828125,0.3662109375,-75.05859375,32.2734375,124.03125,0
910,9197676,-0.11083984375,0.03759765625,-1.0771484375,1.46484375,-2.0751953125,0.67138671875,-75.05859375,32.2734375,124.03125,0
911,9207668,-0.06982421875,0.025390625,-1.095703125,1.46484375,0.67138671875,1.15966796875,-75.05859375,32.2734375,124.03125,0
912,9217664,-0.107421875,0.01904296875,-1.05712890625,1.15966796875,-1.52587890625,0.67138671875,-75.05859375,32.2734375,124.03125,0
913,9227672,-0.11376953125,0.00537109375,-1.05859375,1.0986328125,-1.220703125,0.6103515625,-75.05859375,32.2734375,124.03125,0
914,9237672,-0.10009765625,0.01708984375,-1.06640625,1.3427734375,-0.732421875,0.48828125,-75.05859375,32.2734375,124.03125,0
915,9247664,-0.0966796875,0.02001953125,-1.0703125,1.03759765625,-1.40380859375,0.48828125,-75.05859375,32.2734375,124.03125,0
916,9257664,-0.10693359375,0.01611328125,-1.06103515625,1.3427734375,-1.40380859375,0.48828125,-75.05859375,32.2734375,124.03125,0
917,9267668,-0.1025390625,0.01708984375,-1.06591796875,1.220703125,-1.220703125,0.6103515625,-75.05859375,32.2734375,124.03125,0
918,9277676,-0.0986328125,0.02001953125,-1.0712890625,1.46484375,-1.46484375,0.54931640625,-75.05859375,32.2734375,124.03125,0
919,9287664,-0.10595703125,0.0224609375,-1.064453125,1.5869140625,-1.46484375,0.42724609375,-75.05859375,32.2734375,124.03125,0
920,9297664,-0.10009765625,0.02001953125,-1.0634765625,1.52587890625,-1.0986328125,0.79345703125,-75.05859375,32.2734375,124.03125,0
921,9307664,-0.103515625,0.0234375,-1.0634765625,1.0986328125,-1.3427734375,0.3662109375,-75.05859375,34.6640625,124.03125,0
922,9317680,-0.1044921875,0.01708984375,-1.07275390625,1.03759765625,-1.40380859375,0.42724609375,-75.05859375,34.6640625,124.03125,0
923,9327676,-0.103515625,0.02001953125,-1.06982421875,1.40380859375,-1.3427734375,0.6103515625,-75.05859375,34.6640625,124.03125,0
924,9337664,-0.10107421875,0.01318359375,-1.05322265625,1.5869140625,-1.708984375,0.8544921875,-75.05859375,34.6640625,124.03125,0
925,9347668,-0.10302734375,0.0146484375,-1.0595703125,2.38037109375,-1.64794921875,0.6103515625,-75.05859375,34.6640625,124.03125,0
926,9357672,-0.099609375,0.01806640625,-1.072265625,2.44140625,-2.01416015625,0.732421875,-75.05859375,34.6640625,124.03125,0
927,9367676,-0.09765625,0.02392578125,-1.0634765625,1.03759765625,-0.8544921875,0.244140625,-75.05859375,34.6640625,124.03125,0
928,9377668,-0.1015625,0.0185546875,-1.064453125,0.67138671875,-0.8544921875,0.1220703125,-75.05859375,34.6640625,124.03125,0
929,9387668,-0.10498046875,0.02294921875,-1.0654296875,1.03759765625,-1.220703125,0.244140625,-75.05859375,34.6640625,124.03125,0
930,9397664,-0.0966796875,0.0234375,-1.06494140625,1.03759765625,-1.40380859375,0.732421875,-75.05859375,34.6640625,124.03125,0
931,9407672,-0.1044921875,0.0224609375,-1.0576171875,1.40380859375,-1.46484375,0.91552734375,-75.05859375,34.6640625,124.03125,0
932,9417664,-0.10009765625,0.01904296875,-1.06103515625,1.8310546875,-1.708984375,0.54931640625,-75.05859375,34.6640625,124.03125,0
933,9427664,-0.10009765625,0.02001953125,-1.0556640625,1.89208984375,-1.89208984375,0.79345703125,-75.05859375,34.6640625,124.03125,0
934,9437668,-0.10302734375,0.01953125,-1.06103515625,2.13623046875,-1.953125,0.91552734375,-75.05859375,34.6640625,126.328125,0
935,9447668,0.0166015625,0.1015625,-1.4267578125,-7.9345703125,4.21142578125,-2.5634765625,-75.05859375,34.6640625,126.328125,0
936,9457680,-0.1015625,-0.00439453125,-1.13916015625,2.0751953125,-1.3427734375,0.06103515625,-75.05859375,34.6640625,126.328125,0
937,9467668,-0.0927734375,0.00048828125,-1.08544921875,1.28173828125,-11.3525390625,3.35693359375,-75.05859375,34.6640625,126.328125,0
938,9477668,0.50146484375,-0.12353515625,-1.6552734375,-0.67138671875,29.1748046875,-9.21630859375,-75.05859375,34.6640625,126.328125,0
939,9487676,-0.087890625,0.0263671875,-1.076171875,2.38037109375,-1.28173828125,0.732421875,-75.05859375,34.6640625,126.328125,0
940,9497676,-0.08203125,0.0302734375,-1.0693359375,1.28173828125,-1.0986328125,0.48828125,-75.05859375,34.6640625,126.328125,0
941,9507664,-0.0888671875,0.02490234375,-1.091796875,1.03759765625,-1.0986328125,0.244140625,-75.05859375,34.6640625,126.328125,0
942,9517664,-0.09912109375,0.01904296875,-1.078125,0.79345703125,-0.8544921875,0.244140625,-75.05859375,34.6640625,126.328125,0
943,9527672,-0.099609375,0.02197265625,-1.078125,1.15966796875,-0.8544921875,0.42724609375,-75.05859375,34.6640625,126.328125,0
944,9537676,-0.095703125,0.0234375,-1.07275390625,1.3427734375,-1.15966796875,0.54931640625,-75.05859375,34.6640625,126.328125,0
945,9547668,-0.0986328125,0.0205078125,-1.06787109375,0.91552734375,-0.79345703125,0.3662109375,-75.05859375,34.6640625,126.328125,0
