seq,time_us,ax,ay,az,gx,gy,gz,mx,my,mz,drop_flag
0,218,-0.01762705296278,0.05571458488702774,-1.0167251825332642,0.13200657069683075,0.08156008273363113,-0.013964631594717503,29.84681510925293,-9.006439208984375,39.78334426879883,0
1,9958,-0.03414352983236313,0.020741986110806465,-1.0236502885818481,-0.49750906229019165,0.5421830415725708,0.4345259964466095,27.811065673828125,-10.46898078918457,39.91794204711914,0
2,20063,0.02113429270684719,0.03567514941096306,-1.0303540229797363,-0.6793122887611389,-0.11480564624071121,-0.066911481320858,30.246116638183594,-9.29819393157959,39.3290901184082,0
3,30063,-0.02346075512468815,0.04836573824286461,-0.9957337379455566,0.12179027497768402,-0.3447340130805969,0.0039252834394574165,29.490346908569336,-9.99716854095459,38.541648864746094,0
4,40330,0.054439932107925415,0.03506723418831825,-0.9912554025650024,-0.42714816331863403,0.354533314704895,0.2436259537935257,28.522781372070312,-10.47412109375,39.83468246459961,0
5,50035,0.03141218423843384,0.03506673872470856,-0.9724889993667603,-0.13844791054725647,0.17750924825668335,-0.021492069587111473,29.142736434936523,-9.683563232421875,39.19020462036133,0
6,59972,-0.006579137407243252,-0.06853064894676208,-1.009631872177124,0.2373230755329132,0.4351918697357178,-0.07810868322849274,28.188261032104492,-9.71679401397705,38.648284912109375,0
7,70131,0.011660606600344181,-0.031403280794620514,-0.9560642838478088,-0.22899261116981506,0.9744947552680969,-0.6026476621627808,28.158655166625977,-10.705812454223633,40.250301361083984,0
8,79725,-0.014780106022953987,-0.02532823756337166,-0.9888374209403992,-0.19750763475894928,-0.08432923257350922,-0.2257624715566635,29.607452392578125,-9.005170822143555,39.9265251159668,0
9,90049,-0.005886389873921871,-0.09053871035575867,-1.0136396884918213,-0.49680930376052856,-0.3246358036994934,0.3529373109340668,30.845722198486328,-8.448261260986328,38.9219970703125,0
10,100233,0.052502356469631195,-0.03445574641227722,-0.9899465441703796,-0.4429233968257904,0.21764293313026428,0.593863844871521,31.161502838134766,-8.568826675415039,38.74156951904297,0
11,110031,0.03649919107556343,0.005694075487554073,-1.0036262273788452,0.2506048083305359,0.7210783362388611,-0.178227961063385,29.753076553344727,-11.282588958740234,38.99820327758789,0
12,119960,0.00836024060845375,-0.0707242488861084,-1.008348822593689,0.1564299464225769,-0.07964736223220825,0.1801796704530716,29.103851318359375,-8.720849990844727,41.523799896240234,0
13,129727,0.038446784019470215,-0.046491872519254684,-0.9933004975318909,-0.24228759109973907,0.18218234181404114,0.08592744171619415,30.175251007080078,-9.828340530395508,41.55580139160156,0
14,140085,0.014835149981081486,0.07606770098209381,-0.9878507256507874,-0.47449567914009094,-0.49801474809646606,0.08076058328151703,29.78944969177246,-8.35245418548584,39.643367767333984,0
15,150180,0.024153899401426315,0.023508235812187195,-1.0111966133117676,-0.30422714352607727,0.6249010562896729,-0.5341294407844543,32.8307991027832,-10.585716247558594,40.65890121459961,0
16,159975,-0.004783276002854109,0.0001408574462402612,-0.9946674704551697,-0.5222402811050415,0.6735573410987854,-0.3158368468284607,30.571950912475586,-8.786285400390625,39.47029113769531,0
17,169896,0.06401320546865463,0.0889642983675003,-0.9984084367752075,0.17975716292858124,0.5571168065071106,0.34465116262435913,29.062246322631836,-9.452467918395996,40.280067443847656,0
18,179895,0.012707534246146679,0.011948577128350735,-0.998528242111206,-0.7299594879150391,0.4297792315483093,0.07612331956624985,29.407310485839844,-7.997257709503174,39.16961669921875,0
19,190047,-0.025259966030716896,-0.047799188643693924,-1.0007649660110474,-0.12917546927928925,0.5491569638252258,0.20192931592464447,31.95888900756836,-9.57751750946045,39.984169006347656,0
20,200016,0.020580625161528587,0.0048327818512916565,-0.9818064570426941,-0.3015814423561096,0.6094775199890137,-0.09612246602773666,30.44710350036621,-10.013936996459961,40.54022979736328,0
21,210077,0.014606503769755363,-0.0437399297952652,-0.9676295518875122,-0.3722954988479614,0.8156247138977051,-0.6017337441444397,29.588932037353516,-10.889300346374512,40.768409729003906,0
22,220059,0.04750059172511101,-0.009805764071643353,-0.9923972487449646,-0.41136953234672546,0.41575542092323303,-0.34783992171287537,30.695432662963867,-11.012188911437988,40.55155563354492,0
23,229760,0.10618483275175095,0.022232292219996452,-1.0111868381500244,0.2726997137069702,-0.5984381437301636,0.050286851823329926,29.687219619750977,-11.301506996154785,41.26197052001953,0
24,240010,-0.06728545576334,-0.06401378661394119,-1.0263665914535522,0.27423641085624695,-0.09681455045938492,-0.31073784828186035,30.340869903564453,-11.970376014709473,40.0907096862793,0
25,249950,-0.043091654777526855,0.005887005012482405,-1.0170701742172241,-0.3639466464519501,0.08736537396907806,-0.6306378841400146,31.1954288482666,-7.903413772583008,40.24993896484375,0
26,259784,-0.0682363510131836,0.05441001430153847,-1.000022530555725,0.5897429585456848,0.008575348183512688,-0.40170469880104065,28.040035247802734,-9.57870864868164,40.93778991699219,0
27,269640,0.04745572432875633,-0.06213057413697243,-0.9946977496147156,0.8522437810897827,-0.20776242017745972,-0.008376087993383408,30.7979736328125,-11.442845344543457,39.63290023803711,0
28,280094,0.04117890074849129,-0.03683187812566757,-1.0180732011795044,0.18660441040992737,-0.559351921081543,0.676960825920105,30.100887298583984,-7.9515533447265625,39.28754425048828,0
29,290193,0.007647984195500612,-0.007117814384400845,-0.9564958214759827,-0.23751004040241241,0.5826500654220581,0.21207796037197113,30.67571258544922,-10.465860366821289,40.77885437011719,0
30,300075,0.008370666764676571,-0.06362270563840866,-1.012095332145691,-0.03247004374861717,0.4430130422115326,0.22363081574440002,29.776325225830078,-9.52956485748291,39.16404724121094,0
31,310136,-0.059927135705947876,0.030204197391867638,-1.0208739042282104,0.11157836765050888,-0.8715386390686035,-0.6218747496604919,29.151865005493164,-6.799709796905518,39.62342071533203,0
32,319933,0.029760492965579033,-0.0731593444943428,-0.987215518951416,-0.4015810787677765,0.25765377283096313,-0.10502947121858597,30.448760986328125,-8.665926933288574,41.09074783325195,0
33,330041,0.07866775989532471,0.08208806812763214,-0.9928358793258667,0.26585885882377625,0.5753544569015503,-0.471469521522522,29.257661819458008,-10.777392387390137,40.53066635131836,0
34,339944,0.008978079073131084,-0.027233615517616272,-1.0204895734786987,0.7924256324768066,-0.6373497247695923,-0.018857503309845924,31.0410099029541,-9.64180850982666,41.617401123046875,0
35,349963,-0.0641636773943901,-0.02723836898803711,-1.0128991603851318,-0.07941798865795135,0.007956738583743572,0.3374878764152527,28.665637969970703,-9.088299751281738,40.394737243652344,0
36,359844,-0.0886019915342331,0.013720433227717876,-0.9887638092041016,-0.8355064392089844,0.1127709373831749,0.002597537823021412,29.514238357543945,-10.268966674804688,39.99556350708008,0
37,370030,-0.016149643808603287,0.032605238258838654,-1.024311900138855,-0.028910577297210693,-0.40584394335746765,1.0819505453109741,30.497806549072266,-7.947360038757324,39.40249252319336,0
38,379984,0.039821792393922806,0.026272812858223915,-0.9722407460212708,-0.6916419267654419,-0.3606148064136505,0.6763854026794434,28.010900497436523,-9.363974571228027,38.0178337097168,0
39,389609,-0.05746205896139145,-0.0003949524543713778,-0.9951902031898499,-0.5725346207618713,0.34160280227661133,0.15526525676250458,28.84547233581543,-10.017107963562012,39.59786605834961,0
40,399780,0.04156789183616638,0.029941193759441376,-1.0361806154251099,0.10671913623809814,-0.410556823015213,0.07339409738779068,30.739765167236328,-8.030735969543457,39.21493148803711,0
41,409882,-0.023687899112701416,0.044941943138837814,-0.9826879501342773,-0.1396642029285431,0.25400397181510925,-0.05055670067667961,31.62415885925293,-11.860405921936035,40.80689239501953,0
42,420091,0.010685577988624573,-0.029322147369384766,-1.0322117805480957,0.43314728140830994,-0.4747854173183441,0.34257209300994873,30.569353103637695,-10.203083038330078,40.18955612182617,0
43,429844,0.027957871556282043,-0.07769715785980225,-1.0111325979232788,0.4714600145816803,0.3430520296096802,-0.05596160516142845,28.85366439819336,-9.689837455749512,40.08075714111328,0
44,439818,0.06525112688541412,-0.0069792564027011395,-0.9523934721946716,0.3526673913002014,-0.32307472825050354,0.0017685983330011368,28.676637649536133,-8.83145809173584,39.47742462158203,0
45,450238,0.04433765262365341,0.05112415552139282,-0.987555742263794,-0.07367273420095444,-0.582841694355011,-0.8568503856658936,31.998506546020508,-10.238968849182129,39.76628875732422,0
46,460174,0.005165180191397667,-0.03023725003004074,-0.9727799296379089,0.4384585916996002,-0.5930761098861694,0.11048641055822372,31.19991111755371,-11.237736701965332,39.124263763427734,0
47,470018,-0.0063082072883844376,-0.008790799416601658,-0.9530649185180664,0.0020247360225766897,-0.4681151509284973,-0.17101892828941345,30.012155532836914,-10.189026832580566,39.601478576660156,0
48,480001,-0.12841616570949554,0.03656422719359398,-0.9601837992668152,1.6567389965057373,0.13601212203502655,-0.07807546108961105,31.04881477355957,-8.251694679260254,38.73691177368164,0
49,490344,-0.041371650993824005,-0.06994722783565521,-0.9773175120353699,-0.36363983154296875,0.548887312412262,-0.048416174948215485,30.559158325195312,-10.184510231018066,38.338260650634766,0
50,500032,0.026198090985417366,-0.03995475918054581,-0.9957844018936157,0.294856995344162,-0.427318811416626,-0.8683141469955444,29.228307723999023,-9.774535179138184,38.03858947753906,0
51,509953,-0.03217218816280365,0.08601996302604675,-0.9972965121269226,0.12142366915941238,-0.4232623875141144,0.10320571810007095,29.205110549926758,-10.526931762695312,38.34865188598633,0
52,520170,-0.00029114962671883404,0.051566027104854584,-0.9789761900901794,0.5440260767936707,0.08443684875965118,-0.031588926911354065,30.452186584472656,-9.464990615844727,39.454769134521484,0
53,529927,-0.04786655306816101,-0.052991125732660294,-1.0187933444976807,-0.5326822996139526,0.1662428379058838,-0.014557704329490662,29.756101608276367,-11.343426704406738,39.493587493896484,0
54,540108,0.002156417816877365,-0.04480200633406639,-1.0327996015548706,0.09923604875802994,0.023970339447259903,0.08403272926807404,28.330076217651367,-10.055631637573242,39.94070816040039,0
55,550079,0.01776871457695961,0.046284645795822144,-0.9716073870658875,-0.7821229696273804,-0.15820540487766266,-0.5816109776496887,32.194400787353516,-9.65565013885498,39.50331115722656,0
56,559687,0.05103874206542969,0.02688700519502163,-0.9877943396568298,0.6348474025726318,-0.05564598739147186,0.3204687237739563,30.21139144897461,-10.774556159973145,40.40347671508789,0
57,570056,-0.06534216552972794,0.015932917594909668,-1.013270616531372,-0.3697633147239685,-0.6117439270019531,0.41909676790237427,30.6704158782959,-9.359333992004395,41.26510238647461,0
58,579837,0.14173880219459534,-0.03777589648962021,-0.9741917252540588,-0.7946049571037292,-0.302524596452713,0.5453974008560181,29.400463104248047,-11.20220947265625,40.50810623168945,0
59,589996,0.11406108736991882,0.09011714160442352,-1.010590672492981,-0.9508594274520874,0.13337112963199615,0.10515455901622772,30.048301696777344,-8.55932331085205,40.691680908203125,0
60,600382,0.020189063623547554,-0.014874739572405815,-0.9994540810585022,0.37274783849716187,-0.19509978592395782,-0.665814995765686,29.26659393310547,-9.13973331451416,40.62718963623047,0
61,610187,-0.0806960016489029,0.09850642085075378,-0.9931230545043945,-1.1206746101379395,-0.32314684987068176,-0.6212901473045349,28.71906280517578,-9.590413093566895,41.38905334472656,0
62,619937,-0.024951593950390816,0.010571630671620369,-0.9739990234375,0.48097631335258484,0.20813016593456268,-0.4171089828014374,28.627527236938477,-8.846339225769043,39.6077995300293,0
63,630218,0.013017257675528526,-0.06584128737449646,-0.9947139620780945,-0.05278744176030159,0.16752667725086212,-0.46644091606140137,31.32052230834961,-9.855870246887207,39.29086685180664,0
64,639951,-0.028726041316986084,0.018246479332447052,-1.0142947435379028,-0.664324939250946,-0.012642561458051205,0.2391095906496048,29.819129943847656,-9.642461776733398,40.43207931518555,0
65,650061,-0.11704646795988083,0.04610805958509445,-0.9969606399536133,0.20107656717300415,0.2698289752006531,-0.7200299501419067,29.59059715270996,-11.441380500793457,42.05121612548828,0
66,659757,0.07022347301244736,0.03975009545683861,-1.0111180543899536,-0.2650984227657318,0.34769129753112793,0.1403709352016449,29.15503692626953,-10.077138900756836,41.24643325805664,0
67,670086,-0.044918742030858994,-0.026227688416838646,-0.9910265803337097,-0.5978900790214539,-0.2856942117214203,0.019794689491391182,29.64595603942871,-10.314082145690918,39.753623962402344,0
68,679649,0.04225655272603035,0.029703715816140175,-1.0158865451812744,0.2699076235294342,-0.5168328285217285,-0.22038443386554718,30.394582748413086,-8.583355903625488,38.229671478271484,0
69,690158,0.007810938637703657,-0.04087607190012932,-1.004820466041565,0.0146244578063488,-0.17429575324058533,-0.00224282150156796,29.357770919799805,-8.606579780578613,40.48421096801758,0
70,700125,-0.07659069448709488,-0.04172288253903389,-0.9786692261695862,-0.07004982978105545,-0.7470729947090149,0.4743950664997101,29.838199615478516,-10.08131217956543,40.03547286987305,0
71,709915,-0.05654112249612808,0.05007418617606163,-0.9948318004608154,1.056425929069519,1.3310537338256836,1.3393347263336182,29.795255661010742,-10.838309288024902,41.861873626708984,0
72,719912,0.011828851886093616,-0.058301471173763275,-1.018273115158081,0.25080370903015137,-0.33077022433280945,-0.17016731202602386,29.887371063232422,-11.178732872009277,40.046958923339844,0
73,729945,0.023895064368844032,0.08645221590995789,-0.9980996251106262,0.24005697667598724,-0.559943437576294,0.01916162297129631,30.350337982177734,-8.808609962463379,38.29180908203125,0
74,740136,-0.07496392726898193,-0.06670220196247101,-1.00136399269104,0.2504097819328308,-0.19353440403938293,-0.5177853107452393,30.856401443481445,-11.212469100952148,41.380393981933594,0
75,750029,0.04343815892934799,-0.03284602239727974,-1.0122957229614258,-0.0047772713005542755,-0.30966314673423767,-0.27388134598731995,29.32923698425293,-9.460039138793945,40.2731819152832,0
76,759940,-0.08985263854265213,-0.05196356773376465,-1.0168732404708862,-0.5707358717918396,-0.5936993360519409,0.02406187541782856,29.45265007019043,-8.73173713684082,38.698429107666016,0
77,769784,-0.09586324542760849,-0.004805371165275574,-1.0163135528564453,0.2280769646167755,0.29316243529319763,0.15191985666751862,29.917083740234375,-10.472835540771484,38.29820251464844,0
78,779838,-0.007076791487634182,-0.03726019710302353,-0.9990766644477844,-0.4330034852027893,0.28043052554130554,0.3496449589729309,30.86874008178711,-8.348819732666016,40.2738151550293,0
79,789657,0.03735627979040146,-0.06965155899524689,-0.960343599319458,-0.01516038365662098,0.12722362577915192,-0.4507799744606018,30.95904541015625,-9.59466552734375,41.34836196899414,0
80,799876,0.0005589978536590934,-0.014558570459485054,-0.9889426827430725,-0.47887861728668213,0.6592995524406433,0.08731598407030106,29.563488006591797,-11.629156112670898,39.60869216918945,0
81,809739,-0.01957600936293602,0.03314286097884178,-0.9964280724525452,0.16089655458927155,-0.08623169362545013,-0.35133910179138184,28.914161682128906,-7.914454460144043,40.818702697753906,0
82,819925,-0.06554899364709854,0.022822314873337746,-1.0105581283569336,-0.5504644513130188,0.20224732160568237,-0.7657750844955444,29.267608642578125,-8.816015243530273,39.0373649597168,0
83,830165,0.051825616508722305,0.009025116451084614,-1.0025314092636108,0.47618547081947327,-0.022379310801625252,-0.01807958446443081,30.52716827392578,-7.525934219360352,41.85883331298828,0
84,839860,-0.01766568049788475,0.006467508617788553,-0.9941322207450867,-0.45472097396850586,0.24709917604923248,-0.32104986906051636,30.02589988708496,-10.52228832244873,40.621002197265625,0
85,849851,0.020595628768205643,-0.03449505940079689,-0.987912654876709,0.3389708995819092,-0.9505925178527832,-0.003585970727726817,30.179800033569336,-10.069969177246094,41.041812896728516,0
86,859960,0.016703028231859207,0.045792900025844574,-1.039598822593689,-0.09776832908391953,0.3386549949645996,-0.6886031627655029,29.77393341064453,-9.261906623840332,39.531517028808594,0
87,869840,-0.062284085899591446,-0.032630614936351776,-0.970329761505127,0.2275935858488083,0.5390945672988892,0.664741575717926,29.224994659423828,-10.665153503417969,40.073421478271484,0
88,880089,0.026132378727197647,0.06268748641014099,-1.0399091243743896,0.20383304357528687,0.15807697176933289,0.22935977578163147,30.634897232055664,-11.750834465026855,39.16666793823242,0
89,890004,-0.02347405068576336,0.028192585334181786,-1.0235952138900757,0.4016101360321045,0.026726609095931053,0.4492358863353729,30.727802276611328,-9.932350158691406,39.24190139770508,0
90,900106,0.04620499536395073,-0.0579017698764801,-1.0159835815429688,-0.06618612259626389,-0.22239741683006287,-0.7885674834251404,29.078643798828125,-12.582079887390137,41.90336990356445,0
91,910022,-0.009720830246806145,-0.03749531880021095,-1.031151294708252,0.11396676301956177,-0.3043942451477051,0.18200546503067017,28.50626564025879,-8.768162727355957,40.70513153076172,0
92,919776,-0.04286271333694458,-0.08651027828454971,-0.9883699417114258,-0.2246217578649521,0.8382418155670166,-0.1660715937614441,30.549222946166992,-9.081369400024414,40.48634719848633,0
93,930056,0.06579842418432236,0.02995394356548786,-0.9858384728431702,0.1673995554447174,0.30853497982025146,-0.7113061547279358,30.071809768676758,-10.621132850646973,41.72694778442383,0
94,940146,0.06733813881874084,-0.036537785083055496,-0.9928827881813049,0.28487327694892883,-0.46640658378601074,-0.4483444392681122,30.46772003173828,-10.722389221191406,40.74718475341797,0
95,950005,0.03884273022413254,0.043640412390232086,-0.9746226072311401,-0.38224372267723083,0.5406888127326965,-0.3149200975894928,28.015493392944336,-9.868672370910645,41.584716796875,0
96,960303,-0.04730316251516342,0.011923625133931637,-1.034069538116455,-0.33327555656433105,-0.2348073422908783,0.47209540009498596,29.2219295501709,-9.931633949279785,42.28358459472656,0
97,969884,0.004110272042453289,0.03230147436261177,-1.0160176753997803,0.2977067828178406,-0.6874013543128967,-0.45385611057281494,28.940244674682617,-9.513354301452637,40.65938186645508,0
98,979905,-0.015007872134447098,-0.013396917842328548,-1.0010054111480713,-0.34064608812332153,-0.024065980687737465,-0.3605732023715973,30.431888580322266,-8.97673511505127,39.79692840576172,0
99,990234,0.05063316226005554,-0.05429345369338989,-0.9951908588409424,-0.5850523710250854,-0.3777298033237457,-0.20410431921482086,30.027559280395508,-7.383376121520996,39.09222412109375,0
100,999884,-0.03407687693834305,-0.025024792179465294,-0.9931233525276184,0.6519854664802551,0.38465648889541626,0.5858685970306396,29.023611068725586,-10.917951583862305,40.900367736816406,0
101,1010189,-0.003373390296474099,-0.09506846964359283,-1.0002444982528687,-0.9803820848464966,-0.3752170205116272,0.8695915937423706,27.495018005371094,-11.083528518676758,40.70366668701172,0
102,1020082,0.11061209440231323,-0.08609498292207718,-0.9702411890029907,-0.2583899199962616,-0.27435481548309326,-0.1646975725889206,29.3439998626709,-10.482924461364746,40.15105438232422,0
103,1029881,0.013521524146199226,-0.0023605716414749622,-0.9813550710678101,-0.0896863341331482,0.45984673500061035,0.24179720878601074,30.474807739257812,-10.18289852142334,40.21922302246094,0
104,1040018,-0.02545912191271782,-0.03375894948840141,-1.0121549367904663,-0.014661065302789211,0.5062752962112427,-0.4266573488712311,29.051027297973633,-10.21812915802002,39.11112594604492,0
105,1050268,0.0015353088965639472,-0.01123762410134077,-1.0276845693588257,1.6070102453231812,-0.2653706669807434,0.9715391397476196,28.944705963134766,-11.325810432434082,39.610652923583984,0
106,1060205,-0.013961683958768845,0.060017455369234085,-1.0059401988983154,0.15199986100196838,-0.10851414501667023,0.5003436803817749,30.777324676513672,-7.201711177825928,40.974143981933594,0
107,1070245,-0.06246544420719147,0.009800203144550323,-1.0226149559020996,0.1850218027830124,1.0944905281066895,-0.405034601688385,28.748098373413086,-11.278724670410156,37.925987243652344,0
108,1079821,-0.007330561988055706,0.023222466930747032,-0.9705384969711304,0.7259502410888672,0.3522898256778717,-0.37187421321868896,29.855607986450195,-10.225004196166992,41.62234878540039,0
109,1090260,0.05899982899427414,-0.05794603005051613,-1.0344324111938477,-0.03889517858624458,0.20715084671974182,-0.25519728660583496,30.872331619262695,-10.891321182250977,38.695831298828125,0
110,1099948,0.048639822751283646,-0.032179612666368484,-0.9799430966377258,0.06370264291763306,0.2474597841501236,0.3395248353481293,30.0816593170166,-10.337937355041504,39.39028549194336,0
111,1109930,-0.01557685062289238,-0.01740156300365925,-1.007746696472168,0.4591970443725586,-0.6632063388824463,-0.8465876579284668,29.686140060424805,-10.020076751708984,39.92548370361328,0
112,1119879,-0.02095138654112816,-0.008535831235349178,-0.9821338057518005,-0.4306015074253082,0.5811407566070557,-0.47819918394088745,30.112123489379883,-9.665342330932617,39.77943801879883,0
113,1129865,0.06793002039194107,0.02685084007680416,-0.9655102491378784,-0.19147953391075134,0.08743391185998917,-0.5768831372261047,29.569908142089844,-9.469883918762207,40.15327453613281,0
114,1139939,-0.017262380570173264,0.05435657873749733,-1.014582633972168,0.43685194849967957,0.10895050317049026,0.137414813041687,30.772436141967773,-8.828463554382324,40.56578063964844,0
115,1150148,0.008281412534415722,-0.01876782812178135,-1.003463625907898,-0.9108243584632874,0.13826732337474823,-0.8486368060112,31.243534088134766,-9.164388656616211,40.1771354675293,0
116,1159799,0.05929690599441528,-0.0034304012078791857,-0.9793670177459717,0.6466401219367981,-1.0874955654144287,-0.7531614303588867,27.569223403930664,-10.019366264343262,40.274845123291016,0
117,1170134,-0.04403083771467209,-0.06681068986654282,-0.9846343994140625,0.6038487553596497,0.32371872663497925,0.559479296207428,28.457828521728516,-9.78018569946289,38.42222595214844,0
118,1179767,0.004245322197675705,-0.04845651984214783,-0.980629026889801,0.7647841572761536,-0.09749660640954971,0.10242971777915955,30.99385643005371,-9.974278450012207,41.49147033691406,0
119,1190134,-0.005346875172108412,-0.041899118572473526,-1.0190637111663818,-0.12014876306056976,0.4104560911655426,-0.5643539428710938,30.80919075012207,-11.486462593078613,39.52196502685547,0
120,1199977,-0.01798027753829956,0.029829805716872215,-0.9909451007843018,-0.36841341853141785,-0.4936724603176117,0.0055822692811489105,30.393207550048828,-9.328873634338379,39.62190246582031,0
121,1210259,-0.02441229857504368,-0.013466018252074718,-0.9712784290313721,-0.1984107345342636,-0.09803193062543869,-0.3242494761943817,30.56416893005371,-11.634862899780273,39.750606536865234,0
122,1219901,0.008996694348752499,-0.042334023863077164,-0.9908460974693298,0.5493993163108826,0.06590884178876877,-0.24844785034656525,30.50331687927246,-9.15877914428711,38.36294174194336,0
123,1229914,-0.017759619280695915,0.015107904560863972,-0.9689977765083313,-0.14657069742679596,-0.5091951489448547,-0.18356969952583313,29.54966926574707,-10.010940551757812,39.45166778564453,0
124,1239827,0.017378011718392372,-0.08459166437387466,-0.9766402840614319,0.0943613350391388,-0.4675085246562958,-0.9842541217803955,30.002124786376953,-10.232940673828125,41.34748077392578,0
125,1250000,-0.019301762804389,-0.02707298845052719,-0.9626699090003967,-0.3832724690437317,0.08404244482517242,-0.17758116126060486,29.30354881286621,-11.437333106994629,40.83488845825195,0
126,1259799,0.05680741369724274,-0.03908460587263107,-0.983519971370697,0.401315301656723,0.8996515274047852,-0.0010473275324329734,31.4431209564209,-9.283923149108887,40.7039680480957,0
127,1270036,-0.007671358995139599,-0.06209663674235344,-0.981861412525177,-0.1496754139661789,0.040072984993457794,0.11184085160493851,30.02543830871582,-10.504281044006348,40.19445037841797,0
128,1279907,0.02229725942015648,-0.013139981776475906,-1.018925428390503,0.06065717712044716,1.219908356666565,-0.23471702635288239,31.0421142578125,-9.749226570129395,41.14107131958008,0
129,1289650,0.02498743124306202,0.018592705950140953,-1.0049841403961182,0.07838385552167892,-0.2242317497730255,0.5434800982475281,30.593263626098633,-9.968035697937012,40.106536865234375,0
130,1299663,0.07414804399013519,-0.025123104453086853,-1.00973641872406,0.6275500059127808,0.10328473150730133,0.3066910207271576,29.531414031982422,-10.180232048034668,39.46692657470703,0
131,1310184,0.06508997082710266,0.0037897515576332808,-1.0254337787628174,0.1682356297969818,0.0681752935051918,0.20480023324489594,28.800853729248047,-10.16745376586914,41.631805419921875,0
132,1319811,0.027115941047668457,-0.06468049436807632,-0.9961897134780884,-0.6415461897850037,-0.6257672309875488,0.535182535648346,29.734092712402344,-11.186338424682617,40.221622467041016,0
133,1330079,0.003958054352551699,-0.009838211350142956,-0.9710821509361267,0.2770926058292389,0.029876112937927246,0.5272248983383179,30.696481704711914,-9.55383014678955,40.360267639160156,0
134,1340045,-0.01670309714972973,0.007590474095195532,-1.0331295728683472,0.14541058242321014,0.062079817056655884,-0.037865739315748215,29.39946746826172,-9.204141616821289,38.77048110961914,0
135,1349997,0.05237249284982681,-0.04553021118044853,-1.0078511238098145,-0.1402851641178131,-0.13530856370925903,0.574859619140625,28.99699592590332,-8.989792823791504,39.75200653076172,0
136,1360187,-0.009861620143055916,-0.0005999482236802578,-0.9948061108589172,-0.3496479392051697,0.3806840181350708,0.4072675406932831,29.20760726928711,-10.125097274780273,41.21330261230469,0
137,1369917,-0.10777419805526733,0.01911306008696556,-1.0078717470169067,0.9160508513450623,-0.014609267003834248,-0.29146048426628113,29.590442657470703,-10.4652681350708,40.55393600463867,0
138,1380035,-0.021521687507629395,-0.014755195006728172,-1.0253167152404785,0.36766955256462097,0.14163628220558167,0.36126628518104553,28.901691436767578,-10.682469367980957,40.567596435546875,0
139,1390108,0.021450547501444817,-0.1365295946598053,-0.979049026966095,-0.5532007217407227,-0.3696877956390381,-0.5650787353515625,31.258926391601562,-9.038736343383789,41.12665557861328,0
140,1399873,-0.015753386542201042,0.04218233749270439,-0.988082766532898,-0.9642992615699768,-0.5700083374977112,0.15885303914546967,28.67403221130371,-10.41422176361084,40.564144134521484,0
141,1410124,0.037795599550008774,0.027111107483506203,-1.0156052112579346,-0.18436680734157562,0.5998349189758301,-1.1112871170043945,31.519424438476562,-9.995916366577148,41.31816864013672,0
142,1420083,-0.09342305362224579,-0.002261691028252244,-0.9685507416725159,-0.9807643294334412,-0.17262513935565948,-0.48474282026290894,28.585994720458984,-9.797994613647461,38.79676055908203,0
143,1429936,0.015203910879790783,-0.00923317763954401,-0.9962016344070435,0.10638446360826492,-0.2112543135881424,0.09447892010211945,30.7091064453125,-10.877786636352539,40.830078125,0
144,1439661,0.02629881724715233,0.09131206572055817,-0.9767422676086426,0.08015518635511398,0.22324146330356598,0.4836950898170471,31.274715423583984,-10.386201858520508,41.39717102050781,0
145,1450038,0.04518973082304001,0.15629753470420837,-1.0176632404327393,0.26328036189079285,-0.09220464527606964,-0.10721024870872498,30.26542854309082,-9.280404090881348,42.27066421508789,0
146,1459969,-0.05500386655330658,0.02402241714298725,-1.0327479839324951,0.16837413609027863,-0.4485067129135132,0.2919541895389557,29.713104248046875,-9.733037948608398,38.48495101928711,0
147,1470082,0.06444787234067917,-0.030916614457964897,-1.004502773284912,-0.35921332240104675,0.3125917315483093,-0.037157073616981506,29.9619140625,-11.739104270935059,40.62081527709961,0
148,1480028,-0.03767099604010582,0.029796993359923363,-0.9818326830863953,1.0861479043960571,-0.26065248250961304,-0.2885248363018036,29.531982421875,-10.85390853881836,38.90565490722656,0
149,1490104,0.04573429003357887,0.03139849752187729,-1.0180891752243042,1.173353910446167,0.6317038536071777,-0.2802528142929077,30.2021541595459,-10.50407886505127,39.49983596801758,0
150,1499811,-0.012770071625709534,0.033032745122909546,-0.9833753108978271,0.273334264755249,0.7578652501106262,0.6507366299629211,29.351613998413086,-9.524041175842285,38.937767028808594,0
151,1509985,0.011273650452494621,0.017526155337691307,-0.9999691247940063,0.03480513393878937,-0.38157522678375244,-0.03462338075041771,28.870203018188477,-10.595617294311523,39.68490219116211,0
152,1519989,-0.06815412640571594,0.0012591952690854669,-0.9776182770729065,-0.42072930932044983,0.6198604702949524,-0.39354777336120605,28.982450485229492,-11.676590919494629,40.185302734375,0
153,1530241,0.018403159454464912,-0.007709413766860962,-0.9734036922454834,1.0006541013717651,1.0363305807113647,-0.23719190061092377,30.746524810791016,-10.245580673217773,39.97892379760742,0
154,1539866,-0.027077691629529,-0.07506349682807922,-1.0405317544937134,-0.35304829478263855,0.6863894462585449,0.5956903100013733,29.691293716430664,-10.533512115478516,41.05689239501953,0
155,1549864,0.026778830215334892,0.052165817469358444,-0.9996141791343689,0.12673059105873108,0.6024861931800842,-0.10887675732374191,30.068889617919922,-10.048446655273438,41.84880447387695,0
156,1560390,0.04374567046761513,-0.06675075739622116,-0.9843359589576721,-0.07260578870773315,0.5876332521438599,-0.57854825258255,28.794050216674805,-10.108369827270508,39.36445999145508,0
157,1570029,0.022715961560606956,0.044126853346824646,-1.0016647577285767,-0.23961010575294495,0.6049845218658447,0.14210738241672516,30.51614761352539,-10.619366645812988,39.8338508605957,0
158,1579957,-0.009673847816884518,0.027878237888216972,-0.9902213215827942,-0.4484778344631195,-0.5149505138397217,-1.1552680730819702,30.21588706970215,-9.164705276489258,38.93299865722656,0
159,1589930,0.06596991419792175,0.044428788125514984,-0.9968626499176025,0.75811368227005,0.21856114268302917,-0.4453509747982025,31.046592712402344,-9.641256332397461,40.54915237426758,0
160,1599958,-0.004477767739444971,0.06800525635480881,-1.0234899520874023,0.322894811630249,-0.02221154049038887,-0.6210267543792725,29.65420913696289,-9.576141357421875,41.73469543457031,0
161,1610015,0.08258432149887085,0.00048105540918186307,-1.0262566804885864,-0.14825381338596344,-0.892803430557251,0.6304032206535339,29.976604461669922,-10.37015151977539,39.72642135620117,0
162,1620034,-0.10760925710201263,-0.06809743493795395,-0.974929690361023,0.2486231029033661,-0.42387792468070984,0.02205987460911274,29.288604736328125,-9.473155975341797,39.24665832519531,0
163,1629962,0.046278215944767,0.009567366912961006,-1.0060540437698364,-0.19709596037864685,-0.38563889265060425,-0.17680560052394867,30.527847290039062,-8.55935287475586,41.00376510620117,0
164,1640079,-0.093703493475914,-0.05636850371956825,-1.0246803760528564,-0.19466882944107056,1.036867380142212,0.07746580243110657,31.18885040283203,-9.399542808532715,40.16208267211914,0
165,1650052,-0.06029848754405975,-0.04442049190402031,-0.9863784909248352,-0.016277456656098366,0.48934370279312134,0.6676461100578308,30.658187866210938,-10.61533260345459,39.674747467041016,0
166,1660000,0.03533706068992615,-0.04677790403366089,-0.9644798636436462,0.4934016466140747,0.049006931483745575,0.1303628534078598,30.75698471069336,-9.856719970703125,38.84400177001953,0
167,1670099,-0.02695637010037899,-0.09093663096427917,-1.024385690689087,0.6799545884132385,0.2824206054210663,0.1345883309841156,29.938770294189453,-11.889887809753418,40.113407135009766,0
168,1679863,-0.06818309426307678,0.06363795697689056,-0.9875601530075073,-0.28403905034065247,0.6128261089324951,-0.6122922897338867,29.534574508666992,-10.168503761291504,41.57902908325195,0
169,1690061,-0.07814838737249374,0.03812676668167114,-1.0476198196411133,-0.2575991749763489,-0.2970025837421417,-0.26088061928749084,28.290573120117188,-11.972779273986816,39.560211181640625,0
170,1700087,0.029373720288276672,-0.04764777049422264,-1.0189725160598755,-0.0686248391866684,-0.33071744441986084,-0.9338371157646179,31.255489349365234,-11.193570137023926,40.58430480957031,0
171,1710027,0.04502323642373085,-0.04035395383834839,-1.0026603937149048,0.2615622580051422,0.18339046835899353,-0.2659665644168854,30.787336349487305,-8.643844604492188,39.50270080566406,0
172,1719996,-0.09104269742965698,0.019996410235762596,-0.9741765856742859,0.20854265987873077,-0.08028680086135864,-0.13722388446331024,29.064773559570312,-9.74709701538086,41.810218811035156,0
173,1730173,-0.003623755183070898,0.023686915636062622,-1.021787405014038,-0.05818682909011841,1.2996770143508911,0.9012418985366821,29.867273330688477,-10.09688949584961,40.580474853515625,0
174,1740008,-0.04515986889600754,0.005138150881975889,-1.0227959156036377,0.026725634932518005,0.6449589133262634,-0.24802303314208984,29.591901779174805,-9.559629440307617,41.803592681884766,0
175,1749913,0.061793792992830276,-0.10886367410421371,-0.9919273853302002,0.7563803195953369,0.05585151165723801,0.07380805164575577,28.991073608398438,-10.184945106506348,38.74995040893555,0
176,1759806,-0.0010129731381312013,0.019640188664197922,-1.0300242900848389,0.24244682490825653,-0.14193934202194214,-0.07362287491559982,30.385900497436523,-10.552454948425293,41.218963623046875,0
177,1770017,-0.02140943519771099,-0.017332233488559723,-0.9926307201385498,0.6823673248291016,0.48046937584877014,-0.08443967998027802,31.382102966308594,-9.714205741882324,40.172550201416016,0
178,1779983,0.060945674777030945,0.007798963226377964,-0.9831987619400024,0.3528978228569031,-0.18441922962665558,-0.1493348926305771,29.976863861083984,-9.09363079071045,38.79507064819336,0
179,1790066,-0.013006945140659809,-0.08497228473424911,-0.9854968786239624,-0.8923868536949158,0.07740642130374908,0.656449019908905,30.72580337524414,-9.377473831176758,41.240562438964844,0
180,1800192,0.01729750633239746,-0.03648332133889198,-1.0164414644241333,0.21189239621162415,-0.010553475469350815,-0.5444962978363037,29.258459091186523,-9.809688568115234,39.755191802978516,0
181,1809929,-0.008351698517799377,-0.058583684265613556,-1.0129324197769165,0.2604541480541229,-0.30716243386268616,-0.4629487693309784,30.381702423095703,-11.230356216430664,40.38912582397461,0
182,1820140,0.0025928483810275793,0.01538971345871687,-1.02484929561615,0.4339890778064728,0.12762056291103363,0.4569770097732544,31.000444412231445,-8.685302734375,37.95064163208008,0
183,1830054,0.006074718199670315,-0.026685472577810287,-1.0144309997558594,0.14694930613040924,1.0393046140670776,0.06573972851037979,31.564002990722656,-8.992945671081543,39.958011627197266,0
184,1839913,-0.02769549749791622,0.042584631592035294,-1.0013575553894043,-0.622168779373169,0.8508818745613098,0.1118076741695404,27.314985275268555,-10.513912200927734,40.52634048461914,0
185,1849867,-0.07496898621320724,0.01757943443953991,-1.0139286518096924,0.8161609768867493,0.24967265129089355,-0.3512340486049652,29.02273178100586,-9.443572044372559,39.425926208496094,0
186,1860094,-0.055276889353990555,-0.039370663464069366,-0.9759706854820251,-0.027461625635623932,-0.3195428252220154,-0.6142981052398682,29.400760650634766,-9.264347076416016,38.51667404174805,0
187,1870228,0.02510303445160389,0.02825564332306385,-1.0375704765319824,0.18698321282863617,0.09749187529087067,1.1383944749832153,30.450294494628906,-10.192371368408203,39.13832473754883,0
188,1880070,0.004948761314153671,-0.07278265804052353,-1.008765459060669,0.34326085448265076,0.4854571521282196,-0.35523101687431335,31.797813415527344,-8.944664001464844,39.562110900878906,0
189,1889964,-0.02541898377239704,-0.0024961652234196663,-0.9849388003349304,-0.19418759644031525,-0.3837818503379822,0.5009081959724426,31.16737937927246,-11.414687156677246,39.36063766479492,0
190,1899871,-0.04277093708515167,0.08940345793962479,-0.9863653182983398,-0.26581427454948425,0.08599846810102463,0.2502094507217407,29.47957420349121,-10.364274978637695,40.54508972167969,0
191,1909996,0.056437764316797256,-0.0007668605539947748,-1.0071487426757812,-0.3730393350124359,-0.4117403030395508,0.3966119587421417,30.016626358032227,-8.983057975769043,40.53084945678711,0
192,1919779,-0.1001228615641594,-0.06649413704872131,-1.0045133829116821,0.6882613301277161,-0.4508778154850006,-0.08838517218828201,32.37699890136719,-10.498425483703613,40.448184967041016,0
193,1930098,-0.06431202590465546,0.05389966443181038,-1.0012010335922241,-0.42771023511886597,0.29180672764778137,-0.47843137383461,29.106836318969727,-9.714082717895508,39.59640121459961,0
194,1939902,0.028630375862121582,0.04017941653728485,-1.0344269275665283,-0.2915921211242676,0.3715915381908417,0.25533637404441833,30.37834358215332,-10.001056671142578,41.38887023925781,0
195,1949901,-0.014474324882030487,0.024011610075831413,-0.9973163604736328,0.3173259496688843,-0.20343199372291565,-0.02795465476810932,27.254785537719727,-9.921854019165039,39.691593170166016,0
196,1960004,0.011304076761007309,0.0529368631541729,-0.9640302658081055,-0.98454350233078,0.2968038320541382,0.38414281606674194,30.70634651184082,-8.843371391296387,42.15882873535156,0
197,1970073,-0.01671329326927662,0.11729618906974792,-1.0164586305618286,-0.410527765750885,0.47189652919769287,-0.3779613673686981,30.731971740722656,-10.554025650024414,38.900230407714844,0
198,1980269,-0.05260356888175011,-0.009499652311205864,-0.9891058802604675,0.3317633867263794,0.47192469239234924,-0.38464847207069397,30.78713607788086,-7.602086067199707,39.24138259887695,0
199,1990052,-0.08727595210075378,0.03672950342297554,-0.9761650562286377,-0.13083821535110474,0.09642579406499863,-0.020395668223500252,31.459251403808594,-8.662114143371582,42.35073471069336,0
200,1999963,0.0255987960845232,-0.03149101138114929,-0.9815216064453125,-0.2388102412223816,-0.40989112854003906,-0.42243337631225586,31.16824722290039,-9.06738567352295,42.19105529785156,0
201,2009862,0.016989579424262047,-0.046764206141233444,-0.9838383197784424,0.015959475189447403,-0.3456767499446869,0.07864145189523697,29.293487548828125,-11.859517097473145,41.09366989135742,0
202,2019993,0.13951832056045532,-0.018011342734098434,-0.9889448881149292,-0.2822248935699463,0.622495174407959,0.05333409458398819,30.1433048248291,-10.098312377929688,40.1817626953125,0
203,2030064,-0.001182141830213368,0.014874694868922234,-0.9731462001800537,0.4120566248893738,0.2234746515750885,-0.505847692489624,28.078222274780273,-9.507862091064453,39.193695068359375,0
204,2040064,0.004684804007411003,0.022608445957303047,-1.0286067724227905,0.5403797626495361,0.1287933886051178,0.20487339794635773,30.972312927246094,-9.948416709899902,40.382965087890625,0
205,2049952,0.0016787030035629869,-0.042757801711559296,-1.0415014028549194,0.43439608812332153,-0.9374784827232361,-0.2253212183713913,29.45770835876465,-9.612993240356445,40.345115661621094,0
206,2060219,0.0317247100174427,-0.04768114537000656,-0.9907113313674927,0.07107087969779968,0.9294884204864502,0.2094103991985321,28.514909744262695,-8.868489265441895,38.906436920166016,0
207,2069940,-0.02050882577896118,0.046646539121866226,-1.0417512655258179,0.22320568561553955,-0.3489300012588501,0.8371348977088928,29.503568649291992,-10.057249069213867,39.57231521606445,0
208,2080038,-0.040924280881881714,-0.03848262503743172,-1.010628581047058,-0.3511994183063507,1.1671291589736938,-0.6888782382011414,31.039377212524414,-11.355908393859863,39.956024169921875,0
209,2090096,-0.023543627932667732,0.020170221105217934,-1.0003145933151245,0.4764658808708191,-0.4730507433414459,0.7660238742828369,28.817026138305664,-10.251749038696289,39.234527587890625,0
210,2099836,0.09295526146888733,-0.029502518475055695,-1.0285754203796387,-0.6961445808410645,-0.044127143919467926,0.4204746186733246,31.658300399780273,-10.383079528808594,40.509002685546875,0
211,2109841,0.05435902997851372,-0.06429069489240646,-0.9915139079093933,0.7093026638031006,0.18719562888145447,0.11138159781694412,29.625022888183594,-8.415816307067871,37.827239990234375,0
212,2119795,-0.004215781576931477,0.00011226815695408732,-1.0042983293533325,0.5646681189537048,-0.4243078827857971,-0.34631842374801636,31.191953659057617,-9.705243110656738,38.72282028198242,0
213,2130030,0.09478168934583664,-0.05308791249990463,-0.9976111650466919,0.004990820307284594,-0.7081963419914246,-0.8550286293029785,30.080991744995117,-10.440787315368652,40.63409423828125,0
214,2140079,-0.07289284467697144,0.06540289521217346,-0.9892571568489075,0.14031235873699188,-0.0608702078461647,0.17334945499897003,31.357208251953125,-10.96116828918457,40.38056945800781,0
215,2149781,-0.0975431501865387,0.054157789796590805,-0.9945735931396484,-0.39371350407600403,-0.2085762321949005,0.03818134963512421,31.17955780029297,-8.997977256774902,40.6361198425293,0
216,2160155,0.053324144333601,0.06581760942935944,-0.9910668730735779,0.11573634296655655,0.1235743835568428,0.3056976795196533,29.156686782836914,-11.334304809570312,40.045188903808594,0
217,2169969,0.0049531953409314156,0.04278760030865669,-1.0095481872558594,0.1316177099943161,-0.3403199315071106,-0.5190503001213074,30.80965232849121,-8.981691360473633,38.34243392944336,0
218,2179952,-0.020391350612044334,-0.06346962600946426,-1.013516902923584,-0.5423511266708374,-0.7453828454017639,0.47290101647377014,29.615251541137695,-10.416913032531738,39.23016357421875,0
219,2190163,0.015292998403310776,0.007348285522311926,-0.9719471335411072,-0.27615633606910706,-0.19614315032958984,-0.5426451563835144,29.273271560668945,-10.01526927947998,39.19338607788086,0
220,2200315,0.013760209083557129,-0.09997362643480301,-0.9793920516967773,0.8410906195640564,-0.6809720396995544,-0.0234051626175642,29.998779296875,-11.57036304473877,41.93504333496094,0
221,2210053,-0.03260362148284912,-0.017946744337677956,-0.9993836879730225,0.059364110231399536,-0.46845579147338867,-0.10302888602018356,29.063522338867188,-9.015413284301758,40.42316818237305,0
222,2220007,0.023111572489142418,0.037239719182252884,-0.9678133130073547,0.36915576457977295,0.3530094027519226,0.23488828539848328,30.802507400512695,-10.465858459472656,39.42191696166992,0
223,2230082,0.05634491890668869,0.0152262719348073,-0.9981862902641296,-0.28264081478118896,0.6009817123413086,0.41602271795272827,31.28225326538086,-9.610777854919434,40.993404388427734,0
224,2240080,0.06332100927829742,0.006191302556544542,-0.981772243976593,0.24983641505241394,-0.16140282154083252,-0.3015727400779724,30.390344619750977,-9.943774223327637,40.82130813598633,0
225,2250250,0.043396662920713425,0.04647242650389671,-0.9732685685157776,0.13146013021469116,-0.47529324889183044,0.47563058137893677,31.24385643005371,-9.91769790649414,40.4180793762207,0
226,2260082,0.05466719716787338,-0.0008992985240183771,-1.0011554956436157,0.593069851398468,0.34930238127708435,0.05976096913218498,28.108154296875,-11.934807777404785,38.275665283203125,0
227,2269969,2.240276080556214e-05,-0.012063802219927311,-1.0036275386810303,0.2345656156539917,0.42085713148117065,0.015860499814152718,30.882713317871094,-8.51410961151123,40.592254638671875,0
228,2280063,-0.008329300209879875,-0.008618790656328201,-0.9575152397155762,0.2866389751434326,-0.05899515002965927,0.6955379247665405,30.162038803100586,-9.841408729553223,40.37422561645508,0
229,2289926,-0.017429625615477562,0.0024785264395177364,-1.0166785717010498,-0.3821103274822235,0.7248588800430298,0.046230632811784744,29.85165786743164,-10.115931510925293,39.49302673339844,0
230,2299936,-0.01792728342115879,0.0026569305919110775,-1.0178673267364502,-0.27076655626296997,-0.002042084466665983,-0.5385727286338806,31.458070755004883,-10.084357261657715,38.668373107910156,0
231,2309862,-0.0061577316373586655,0.05237000063061714,-1.043696641921997,0.9358708262443542,-0.07377211004495621,-0.18585258722305298,29.157270431518555,-8.415125846862793,40.357242584228516,0
232,2320108,-0.024673517793416977,-0.024659452959895134,-0.9657990336418152,-0.08758377283811569,0.005299853626638651,0.22232389450073242,29.547344207763672,-10.19497299194336,38.656349182128906,0
233,2329894,-0.038919493556022644,0.01054343581199646,-1.0107922554016113,-0.02865160070359707,-0.2199498414993286,0.19450953602790833,29.259462356567383,-10.04222297668457,40.90650939941406,0
234,2339978,0.001403540256433189,0.01773245446383953,-1.0233160257339478,-1.3752312660217285,-0.6501032114028931,-0.04623574763536453,30.347421646118164,-12.040971755981445,38.33283996582031,0
235,2349868,0.025266969576478004,-0.02138366363942623,-1.0021806955337524,-0.216740682721138,-0.07903420925140381,0.17541994154453278,28.568403244018555,-9.912759780883789,40.157806396484375,0
236,2359991,0.011576008051633835,0.06911250948905945,-0.9975999593734741,-0.3074064552783966,0.10486575961112976,0.8669016361236572,28.985637664794922,-8.93358325958252,39.09280776977539,0
237,2369983,-0.07196623831987381,0.035495344549417496,-0.9661382436752319,0.03025137633085251,-0.41917455196380615,-0.14357052743434906,29.503549575805664,-11.160797119140625,39.98148727416992,0
238,2379847,0.08796840906143188,-0.07074373960494995,-0.9681613445281982,0.018988890573382378,0.6938154697418213,0.3584701120853424,29.15995216369629,-9.630023002624512,40.36280822753906,0
239,2389932,0.003861901583150029,0.07121440768241882,-0.9668413400650024,0.27997684478759766,0.15746504068374634,-0.34016093611717224,28.460824966430664,-9.607715606689453,39.98661422729492,0
240,2400344,-0.058709364384412766,0.009335841052234173,-1.0217198133468628,-0.09792090207338333,0.7148783802986145,-0.1751464158296585,28.849504470825195,-10.377071380615234,39.728511810302734,0
241,2409893,0.04291026294231415,0.04117913916707039,-1.0144582986831665,-0.6774000525474548,-0.31663578748703003,0.6245794892311096,28.21611785888672,-11.423661231994629,40.26528549194336,0
242,2420063,0.024158788844943047,-0.03353304788470268,-0.9830516576766968,-0.5027273297309875,-0.2676444351673126,-0.28380465507507324,30.32933235168457,-11.377148628234863,40.660926818847656,0
243,2429724,-0.08509653061628342,-0.007002830971032381,-0.9885154366493225,0.20532844960689545,0.009701631963253021,-0.7772945761680603,30.650894165039062,-9.8814115524292,37.968746185302734,0
244,2440036,-0.03434458002448082,0.03766581416130066,-1.0034775733947754,-0.14449620246887207,-0.9094401597976685,0.28260529041290283,30.831876754760742,-9.087762832641602,39.2661018371582,0
245,2449903,0.0019106692634522915,0.03291075676679611,-1.0060697793960571,0.19246967136859894,-0.5042823553085327,0.08931899070739746,30.483715057373047,-7.844395637512207,39.515071868896484,0
246,2460193,0.008542129769921303,0.03736792504787445,-0.9958024621009827,0.8793656826019287,-0.2722186744213104,1.7306339740753174,30.546289443969727,-8.388862609863281,39.342342376708984,0
247,2469971,-0.007106117904186249,0.02905736304819584,-1.0120947360992432,0.01479320041835308,0.2806192934513092,-0.4289552569389343,30.44281578063965,-10.42520523071289,40.1789665222168,0
248,2480006,-0.020968174561858177,-0.00482131028547883,-1.0252718925476074,0.8133283257484436,-0.3576582670211792,-0.3166017532348633,29.27873992919922,-10.175671577453613,42.181427001953125,0
249,2489932,-0.013033966533839703,-0.014854764565825462,-0.978395938873291,-0.47335830330848694,0.05785159766674042,-0.6262972354888916,29.684463500976562,-10.929817199707031,37.90107727050781,0
250,2500190,0.04860754683613777,-0.032111551612615585,-1.0227571725845337,-0.8345953226089478,0.13374488055706024,-0.4871417284011841,29.431581497192383,-10.843369483947754,40.8820686340332,0
251,2509978,-0.00016190597671084106,-0.08367738127708435,-0.9772523045539856,-0.8165915012359619,0.09742027521133423,0.10698466747999191,29.06429672241211,-9.866302490234375,40.72208786010742,0
252,2519879,0.10560014098882675,0.022739345207810402,-1.009231448173523,-0.9556034803390503,-1.0238415002822876,0.5099584460258484,29.91700553894043,-9.163040161132812,39.81033706665039,0
253,2530072,-0.09295809268951416,0.10911864787340164,-0.9947670698165894,0.14020690321922302,0.055127959698438644,-0.14248031377792358,32.17512512207031,-9.059158325195312,40.00578689575195,0
254,2540000,-0.042750220745801926,0.03563885763287544,-0.979154646396637,-0.06465232372283936,-0.21727266907691956,-0.11037873476743698,30.122596740722656,-9.936661720275879,39.73435974121094,0
255,2550190,0.02171051874756813,0.0030665909871459007,-0.9983360171318054,0.4301386773586273,0.36171698570251465,1.0653270483016968,31.737274169921875,-9.4468412399292,39.3061637878418,0
256,2559990,-0.001362268696539104,-0.006451813969761133,-0.9900875091552734,0.1614551842212677,-0.22054721415042877,-0.49031177163124084,29.773761749267578,-8.08657455444336,38.58348846435547,0
257,2570248,0.06273605674505234,-0.06354179978370667,-0.993669331073761,-0.04962677136063576,-0.46236395835876465,0.07784757763147354,29.301074981689453,-9.52170467376709,38.77684020996094,0
258,2580093,-0.0007490052958019078,-0.053840503096580505,-1.0032840967178345,0.5913592576980591,0.08252637833356857,0.8120110630989075,31.26099395751953,-11.291522026062012,40.96553421020508,0
259,2590187,-0.0401163212954998,0.05379193648695946,-0.9942079782485962,1.0635576248168945,-0.019174527376890182,0.04343515634536743,30.165950775146484,-9.808160781860352,39.90727615356445,0
260,2600078,-0.01630319096148014,-0.03139980137348175,-0.9692145586013794,-0.2110949009656906,-0.6742696762084961,0.09036937355995178,30.25357437133789,-10.711968421936035,39.047367095947266,0
261,2609885,0.025796078145503998,0.12363551557064056,-1.0040432214736938,0.24234721064567566,0.4427567720413208,0.2032247930765152,29.96231460571289,-8.944564819335938,39.74578094482422,0
262,2619923,-0.06372317671775818,0.004173194989562035,-1.0320134162902832,-0.4603501260280609,0.10886932909488678,-0.26516348123550415,28.20738410949707,-11.929530143737793,40.44711685180664,0
263,2630111,0.01161190401762724,-0.015546745620667934,-0.9824760556221008,-0.3477015793323517,-0.49683040380477905,0.484499990940094,30.16020393371582,-8.922913551330566,39.34857940673828,0
264,2640193,0.0327504463493824,-0.00816777627915144,-1.028828501701355,0.09227476269006729,0.09663158655166626,0.7924131751060486,28.050138473510742,-9.071795463562012,40.577754974365234,0
265,2649948,0.06073250249028206,0.026641404256224632,-0.9912310242652893,-0.5936473608016968,-0.08164062350988388,0.3855021297931671,29.253997802734375,-8.566598892211914,38.30606460571289,0
266,2659838,0.011934827081859112,0.014048402197659016,-0.9878880381584167,0.7487899661064148,-0.15792056918144226,-0.4784184694290161,28.02149772644043,-8.39466667175293,40.85841751098633,0
267,2670236,0.032437313348054886,-0.03380931168794632,-1.012233853340149,-0.8731670379638672,0.3531501293182373,-0.5131328105926514,29.770767211914062,-10.669493675231934,41.11723709106445,0
268,2679968,-0.08046961575746536,0.03731419891119003,-1.016120195388794,-0.6249482035636902,0.044144291430711746,-0.430777370929718,29.26584815979004,-10.02806282043457,39.99039840698242,0
269,2689949,0.02411334216594696,0.0021222922950983047,-0.9748975038528442,0.40449365973472595,-0.8301910758018494,0.1845182180404663,30.929969787597656,-10.52657699584961,39.08196258544922,0
270,2700081,-0.05894938111305237,-0.10294109582901001,-0.9806607961654663,-0.11522775143384933,-0.38482701778411865,0.7885561585426331,30.514968872070312,-9.723556518554688,37.85739517211914,0
271,2710267,-0.017987411469221115,-0.001394684542901814,-0.9839093685150146,0.8159167170524597,0.627167284488678,-0.6779171228408813,29.83877182006836,-9.847097396850586,39.79053497314453,0
272,2720101,-0.008505148813128471,0.008837464265525341,-0.9726327061653137,0.8633850812911987,-0.24438947439193726,0.43246492743492126,30.190095901489258,-10.264120101928711,39.70811080932617,0
273,2730079,0.007320238742977381,0.022824997082352638,-0.9951567053794861,0.05451226606965065,0.353426456451416,0.11754667013883591,32.00678253173828,-8.935123443603516,41.30356979370117,0
274,2740063,0.08013218641281128,0.07029116153717041,-1.001582145690918,0.7233901619911194,-0.11641375720500946,0.23037900030612946,29.79611587524414,-9.865620613098145,39.800785064697266,0
275,2750218,-0.07357576489448547,0.0774189829826355,-0.9689121842384338,0.4100584089756012,1.3085321187973022,-0.3121495842933655,31.333044052124023,-11.918783187866211,40.05076217651367,0
276,2760070,-0.05841852352023125,-0.04066823050379753,-1.0010566711425781,0.32481563091278076,-0.4086938202381134,0.3963252305984497,28.808290481567383,-9.535358428955078,39.557334899902344,0
277,2770100,0.09420120716094971,0.029962636530399323,-1.0137245655059814,0.2638548016548157,-0.6540848612785339,-0.05013338476419449,29.6121768951416,-10.239718437194824,38.396663665771484,0
278,2779899,-0.11106544733047485,-0.08207947760820389,-1.0106163024902344,0.571242094039917,0.27975553274154663,-0.0643332228064537,29.6707820892334,-8.069782257080078,39.264015197753906,0
279,2790037,-0.055894799530506134,0.03096787817776203,-0.9936468601226807,0.7017560005187988,-0.13044217228889465,-0.7623156309127808,31.05753517150879,-9.103836059570312,39.16480255126953,0
280,2800002,0.021601226180791855,0.0920967385172844,-1.0031520128250122,-0.3271540403366089,0.09872859716415405,0.24669794738292694,29.74603843688965,-9.407414436340332,41.31034469604492,0
281,2809981,-0.07255356758832932,-0.12490803003311157,-0.9953683018684387,-0.4249718189239502,-0.44677796959877014,0.03797052800655365,30.32244873046875,-10.860784530639648,38.91895294189453,0
282,2819622,0.018872594460844994,-0.015011865645647049,-0.9893980622291565,-0.05065828561782837,0.5445931553840637,-0.751666784286499,29.23462677001953,-9.918676376342773,40.15637969970703,0
283,2829789,-0.00068989786086604,0.0423455573618412,-1.0087134838104248,-1.0763344764709473,-0.4313438832759857,0.7331047058105469,29.642732620239258,-9.703112602233887,39.17790985107422,0
284,2839942,-0.0952865481376648,-0.0025273964274674654,-0.9936196804046631,0.31134966015815735,-0.8291995525360107,-0.0493604801595211,29.70477294921875,-8.903474807739258,39.09388732910156,0
285,2850053,0.0020165774039924145,-0.013031095266342163,-0.9833908677101135,0.13628359138965607,0.21182352304458618,-0.6969451308250427,29.857648849487305,-9.763542175292969,39.6285400390625,0
286,2859985,-0.054608043283224106,-0.08256670087575912,-1.0066063404083252,-0.5411133766174316,-0.7437976598739624,-0.3633168935775757,29.638633728027344,-10.086973190307617,40.5324592590332,0
287,2869787,-0.000296533020446077,-0.008765889331698418,-0.9863526821136475,-0.7845042943954468,0.6485838294029236,-0.5245078206062317,29.460468292236328,-9.596416473388672,37.82768249511719,0
288,2879778,0.09628908336162567,-0.009370002895593643,-1.028801441192627,-0.31129515171051025,0.5992801785469055,-0.8456517457962036,29.503036499023438,-10.876274108886719,39.4375,0
289,2890162,-0.02631247788667679,0.04264798015356064,-1.0202187299728394,-0.20469990372657776,-0.7333716154098511,0.23449547588825226,29.760616302490234,-10.499934196472168,37.930423736572266,0
290,2900072,-0.0032143450807780027,-0.0068169040605425835,-1.0210274457931519,0.3832283318042755,0.021236537024378777,1.0585395097732544,29.270566940307617,-8.916014671325684,39.99828338623047,0
291,2910161,-0.02359897829592228,-0.004666231106966734,-0.9945492148399353,-0.4777350127696991,0.23133598268032074,0.5457156896591187,30.302989959716797,-9.517468452453613,39.392738342285156,0
292,2920068,0.03676876798272133,0.014703073538839817,-0.9918394684791565,-0.05298730358481407,0.22005973756313324,-0.04744324833154678,30.32984161376953,-10.80146598815918,39.0205078125,0
293,2929752,0.04903726652264595,0.011337656527757645,-1.0213022232055664,-0.12683944404125214,-0.16707004606723785,0.4547063410282135,30.27948760986328,-12.2725830078125,39.8387565612793,0
294,2940121,0.022316671907901764,0.00964224524796009,-0.9965780973434448,0.150521382689476,0.1970110833644867,0.36709994077682495,30.902189254760742,-10.678406715393066,40.407859802246094,0
295,2949827,0.08534198999404907,0.046326860785484314,-1.004316806793213,-0.05150650814175606,-0.028303252533078194,-0.46645796298980713,30.3008975982666,-9.905256271362305,38.760475158691406,0
296,2960095,0.012525757774710655,0.03349631279706955,-1.0243901014328003,-0.7845678925514221,-0.5032821893692017,0.5750113725662231,29.674968719482422,-10.278340339660645,40.010379791259766,0
297,2969749,0.006687689572572708,-0.00983088556677103,-1.0234601497650146,-0.2935633957386017,0.5604196786880493,0.0257564727216959,31.10295867919922,-10.013337135314941,39.84122848510742,0
298,2979720,0.023054739460349083,-0.06995683163404465,-1.0072921514511108,-0.3404892683029175,-0.24395667016506195,0.5959544777870178,30.59226417541504,-10.701175689697266,40.04544448852539,0
299,2989893,-0.030995192006230354,-0.016583111137151718,-0.9909162521362305,-0.16659222543239594,-0.252534419298172,-0.1821611374616623,29.412506103515625,-11.318599700927734,39.733516693115234,0
300,3000193,0.021106889471411705,0.009682849049568176,-0.990840494632721,1.1788493394851685,-0.1746944636106491,0.47618603706359863,28.971630096435547,-8.541356086730957,40.77601623535156,0
301,3009905,0.001968112774193287,0.0032563989516347647,-0.9872931838035583,-0.0029911836609244347,0.35588303208351135,0.16953729093074799,30.15949249267578,-10.523242950439453,40.96974563598633,0
302,3020148,0.003906432073563337,0.005712749902158976,-0.970085620880127,0.400027871131897,-0.6266193389892578,0.3954552412033081,28.656583786010742,-9.794967651367188,39.4073600769043,0
303,3030008,0.049729302525520325,-0.037913061678409576,-1.03345787525177,-0.08780555427074432,-0.2596881687641144,-0.24630020558834076,30.158628463745117,-9.448485374450684,40.08539962768555,0
304,3039896,-0.04237441346049309,-0.057956717908382416,-0.998246967792511,-0.26136210560798645,-0.894646167755127,-0.2160186469554901,30.1581974029541,-9.704474449157715,40.219268798828125,0
305,3049977,-0.03661905229091644,-0.04507412761449814,-0.9994587898254395,0.019294999539852142,0.2873971164226532,-0.33069437742233276,30.922544479370117,-11.24660587310791,40.63857650756836,0
306,3060076,0.036098234355449677,0.08285888284444809,-1.0029634237289429,0.42599835991859436,-0.031487416476011276,-0.08788242191076279,31.175277709960938,-10.179587364196777,39.988311767578125,0
307,3069793,-0.035613179206848145,-0.058882661163806915,-1.0317089557647705,0.9412713050842285,-0.39164677262306213,0.3385792374610901,28.78658103942871,-10.679841995239258,40.37527084350586,0
308,3080244,0.021767619997262955,0.051581334322690964,-0.970829427242279,0.06545083969831467,0.11485207080841064,-0.1838790774345398,30.401426315307617,-9.297181129455566,41.55838394165039,0
309,3090152,0.029480205848813057,-0.03030877374112606,-1.0089410543441772,0.03772997111082077,-0.42543718218803406,1.2214182615280151,29.357894897460938,-10.258238792419434,40.194488525390625,0
310,3100221,-0.06928841024637222,0.12315292656421661,-0.9915143847465515,-0.38042762875556946,-0.6178727746009827,-0.13872286677360535,26.915746688842773,-10.70478630065918,40.35832214355469,0
311,3109976,0.09967834502458572,-0.0407402329146862,-1.0135871171951294,0.795700192451477,-0.6660488247871399,-0.15114466845989227,30.58247184753418,-10.182408332824707,39.402503967285156,0
312,3120110,0.045676637440919876,0.03614006191492081,-1.009015679359436,-0.22170114517211914,-0.4183347225189209,0.008077187463641167,29.209257125854492,-8.930930137634277,40.62693405151367,0
313,3130169,-0.03374689817428589,0.01930958591401577,-1.008244276046753,0.8996244668960571,0.07450508326292038,-0.06331557780504227,28.4560546875,-10.41942024230957,40.48018264770508,0
314,3139888,-0.008998742327094078,0.007050973363220692,-1.0023821592330933,0.2644719183444977,-0.3363364636898041,0.02912404015660286,30.11089324951172,-10.234848976135254,38.41215896606445,0
315,3149937,-0.01370860543102026,-0.037458386272192,-1.030564308166504,-0.47259441018104553,-0.05794249847531319,0.43020501732826233,29.376323699951172,-9.866094589233398,40.60364532470703,0
316,3160060,-0.07395237684249878,0.02438412420451641,-1.0182691812515259,0.21199221909046173,0.09134241193532944,0.01707163266837597,28.54352569580078,-11.402591705322266,39.476165771484375,0
317,3169821,0.01134735532104969,-0.0003781078557949513,-0.9986048340797424,-0.05168421193957329,-0.27142518758773804,0.044855259358882904,30.4091854095459,-9.063050270080566,41.149169921875,0
318,3179812,0.018445398658514023,-0.07366503030061722,-1.0168713331222534,0.5132942795753479,0.938090443611145,-0.6547836661338806,29.949020385742188,-9.301224708557129,40.010948181152344,0
319,3189911,-0.03604636341333389,-0.039729662239551544,-0.989708662033081,-0.5211809277534485,-0.574334442615509,-0.13849234580993652,31.35489845275879,-9.783003807067871,39.41367721557617,0
320,3199964,0.03396639972925186,0.023183094337582588,-1.0082061290740967,0.701439380645752,0.4186752140522003,-0.2860797047615051,29.092201232910156,-9.609723091125488,39.10384750366211,0
321,3209957,-0.05216143652796745,-0.045549117028713226,-1.0246115922927856,-0.5242296457290649,-0.23935988545417786,-0.012838345021009445,29.60308837890625,-8.028337478637695,41.49802017211914,0
322,3220025,0.01095171645283699,0.025191161781549454,-1.0032804012298584,-0.2981283366680145,-0.2857901155948639,-0.4351625442504883,29.923709869384766,-7.736038684844971,40.2342529296875,0
323,3230110,0.01345188356935978,0.03765958175063133,-0.9961484670639038,0.03839466720819473,-0.6490288972854614,0.331241250038147,29.960269927978516,-9.815524101257324,39.1710319519043,0
324,3239868,0.011468003503978252,0.02004683017730713,-1.0030231475830078,0.5923151969909668,0.0174879040569067,0.8498103022575378,29.7197265625,-9.893125534057617,39.82329559326172,0
325,3250162,-0.010352875106036663,-0.05577729269862175,-1.017251968383789,-0.22258177399635315,-0.31811589002609253,0.28429824113845825,31.04606819152832,-10.658702850341797,39.758209228515625,0
326,3260163,-0.0830593854188919,0.02675815299153328,-1.0322437286376953,-0.5193084478378296,0.6037629842758179,-0.3433322310447693,30.419954299926758,-10.780386924743652,39.924068450927734,0
327,3270277,-0.009308100678026676,-0.002251319820061326,-1.0115588903427124,-0.029811235144734383,0.12245389819145203,0.05610927566885948,30.615842819213867,-10.9312162399292,41.18983459472656,0
328,3279909,0.07189127802848816,0.03485174477100372,-1.0236647129058838,0.5125028491020203,0.2158755213022232,-0.014870557002723217,29.511201858520508,-12.065858840942383,39.19083786010742,0
329,3289757,0.049791473895311356,-0.06850333511829376,-0.9697936773300171,0.4598117470741272,0.23703138530254364,-0.741856575012207,29.7025089263916,-9.557816505432129,40.594120025634766,0
330,3299951,0.08681151270866394,0.022924551740288734,-1.0017781257629395,0.35068950057029724,0.3020179867744446,0.3988974988460541,29.462215423583984,-9.517158508300781,40.33877182006836,0
331,3309876,-0.03921487554907799,0.039415065199136734,-0.9856930375099182,0.6548590064048767,-0.4025134742259979,0.17088435590267181,29.621719360351562,-10.394848823547363,39.974159240722656,0
332,3320312,-0.03202692046761513,-0.07467690110206604,-1.0049163103103638,0.011534439399838448,0.025687044486403465,-0.036136694252491,30.495960235595703,-10.878814697265625,40.924869537353516,0
333,3329966,0.04958541691303253,0.025148695334792137,-1.0251246690750122,-0.059812504798173904,0.5174238681793213,-0.7670266628265381,29.94458770751953,-10.122363090515137,38.00408935546875,0
334,3340125,0.08601692318916321,0.008484097197651863,-0.9756336808204651,-0.3599551320075989,0.7360981106758118,0.5331908464431763,29.67269515991211,-9.725895881652832,40.7935676574707,0
335,3349576,0.1600247025489807,-0.001959791872650385,-1.0054866075515747,0.5843974947929382,0.5410367846488953,0.3702627122402191,31.680870056152344,-9.823456764221191,39.333614349365234,0
336,3360239,-0.058009564876556396,-0.042514339089393616,-1.025926947593689,-0.4142308533191681,-0.15260952711105347,0.11950774490833282,31.15669059753418,-9.079127311706543,39.508487701416016,0
337,3370163,0.0308160912245512,0.04218904301524162,-1.0023181438446045,0.15451551973819733,0.0050841644406318665,0.14677082002162933,30.898963928222656,-10.729731559753418,38.965274810791016,0
338,3379995,-0.038486599922180176,0.06208791956305504,-0.9841374158859253,-0.11106627434492111,-0.6595568656921387,0.13033810257911682,30.86813735961914,-8.887006759643555,40.28033447265625,0
339,3389814,0.07511503249406815,0.07920171320438385,-1.034133791923523,-0.38056695461273193,0.07916577160358429,-0.5845701694488525,31.555294036865234,-7.7822089195251465,41.12468338012695,0
340,3399883,-0.01759364642202854,-0.003737199818715453,-0.9834678173065186,0.0525776669383049,-0.6634463667869568,-0.0584297850728035,28.207979202270508,-10.625409126281738,38.68381118774414,0
341,3410050,0.05411281809210777,0.04941962659358978,-0.9938057065010071,0.4526020288467407,-0.42949378490448,-0.3064817488193512,29.275955200195312,-9.35426139831543,39.884273529052734,0
342,3419965,-0.024600906297564507,0.010033001191914082,-0.9844411611557007,-0.04310598596930504,-0.8727325797080994,-0.0027123303152620792,31.531522750854492,-10.28773307800293,38.887508392333984,0
343,3430131,-0.04729325324296951,0.010697977617383003,-1.0064200162887573,-0.5144121646881104,-0.2767205834388733,-0.014788316562771797,30.384765625,-9.055024147033691,38.87738800048828,0
344,3439872,0.020408200100064278,-0.015901686623692513,-0.9853233098983765,-0.4444054067134857,-0.1960144191980362,-0.19917821884155273,30.64637565612793,-10.321593284606934,39.2985725402832,0
345,3449937,-0.10696663707494736,0.021104462444782257,-1.0181020498275757,-0.1863071620464325,-0.7345308661460876,-0.39868754148483276,30.608505249023438,-8.582074165344238,39.0010871887207,0
346,3460017,0.043754320591688156,-0.0360431894659996,-1.009851336479187,0.07863181829452515,-0.08095419406890869,0.11418566852807999,29.081344604492188,-10.710201263427734,40.02849197387695,0
347,3470004,-0.0063221813179552555,0.03500404208898544,-1.0063570737838745,0.6469147801399231,-0.8913370370864868,-0.40568962693214417,29.19426727294922,-11.326571464538574,41.06903076171875,0
348,3479991,0.0266831386834383,0.06350260227918625,-0.989756166934967,0.4925306439399719,0.0655403658747673,-0.5545812845230103,30.824886322021484,-10.296053886413574,41.19844055175781,0
349,3489967,0.044304147362709045,0.024743620306253433,-0.9989885091781616,0.13456661999225616,-1.0857661962509155,-0.3850308060646057,30.41181182861328,-8.693893432617188,40.59400939941406,0
350,3499930,0.016597777605056763,-0.02933768555521965,-1.0210024118423462,-0.8659823536872864,0.023949995636940002,-0.419219434261322,28.134984970092773,-10.822495460510254,40.33780288696289,0
351,3510137,-0.07843507081270218,0.08296522498130798,-1.0044132471084595,0.695654034614563,0.27136197686195374,-0.02212824858725071,27.88783073425293,-10.73086166381836,39.95159912109375,0
352,3520263,0.06928697228431702,-0.04613526538014412,-1.0243453979492188,-1.0394644737243652,0.10216645896434784,0.6556898951530457,29.594974517822266,-10.046588897705078,39.449440002441406,0
353,3529858,0.05911625921726227,0.08504270017147064,-1.0020383596420288,0.23868931829929352,0.13493357598781586,0.4052842855453491,29.280885696411133,-10.214424133300781,40.5079345703125,0
354,3539692,-0.03200570121407509,0.03553079441189766,-1.0154582262039185,0.4378216862678528,0.6177237033843994,0.273048996925354,31.394132614135742,-6.871730327606201,38.97781753540039,0
355,3549944,0.045761093497276306,0.03006591834127903,-0.9724266529083252,-0.9481356143951416,0.3966037929058075,-0.48821213841438293,28.60917091369629,-11.045000076293945,42.03430938720703,0
356,3559805,0.036416683346033096,-0.05389074236154556,-0.994924783706665,-0.25254109501838684,-0.07589559257030487,0.2486516535282135,30.10366439819336,-9.487090110778809,39.35639572143555,0
357,3569961,0.07026225328445435,0.0029845996759831905,-0.9853754639625549,-0.17281275987625122,-0.1312241107225418,-1.143686294555664,29.975061416625977,-9.647726058959961,41.018367767333984,0
358,3579953,0.014365960843861103,-0.10958471894264221,-1.0290542840957642,-0.04132011532783508,0.5323753952980042,0.12959599494934082,29.67963981628418,-9.040959358215332,38.084449768066406,0
359,3589962,0.057671502232551575,0.10453488677740097,-0.9909451603889465,1.0101855993270874,-0.10366150736808777,-0.6482693552970886,30.921417236328125,-10.07545280456543,40.42195510864258,0
360,3600207,0.0758146122097969,-0.04897100105881691,-1.009866714477539,0.6540791988372803,-0.8912937641143799,-0.8927345275878906,30.15468406677246,-8.339909553527832,41.212162017822266,0
361,3609919,0.0016432389384135604,-0.02469368651509285,-1.012223720550537,0.4391535520553589,-0.33060184121131897,-0.4054248631000519,27.409530639648438,-8.890116691589355,40.41427993774414,0
362,3619746,0.00515964487567544,-0.0001572807232150808,-1.0087727308273315,0.06349553912878036,-0.6592018008232117,0.6655467748641968,30.528865814208984,-10.035723686218262,38.615962982177734,0
363,3630019,-0.03159186989068985,0.07111942023038864,-0.984498918056488,-0.30860599875450134,0.8200646042823792,-0.6525048613548279,29.439451217651367,-10.641255378723145,41.40911102294922,0
364,3639907,-0.004391924943774939,-0.07805761694908142,-0.9937615990638733,0.29571330547332764,0.8811131715774536,0.21791762113571167,29.622844696044922,-10.043661117553711,39.591651916503906,0
365,3650394,0.08521170914173126,-0.09106920659542084,-0.9849647879600525,0.7998926043510437,-0.10840929299592972,0.022494863718748093,29.043594360351562,-9.132000923156738,38.276390075683594,0
366,3659630,0.041497815400362015,-0.028282105922698975,-1.01300847530365,-0.13997578620910645,-0.6949260234832764,-0.3774978518486023,29.722002029418945,-8.87007999420166,39.17955017089844,0
367,3669801,-0.009176084771752357,-0.0012741137761622667,-0.9668807983398438,0.38715800642967224,0.9234626293182373,0.338227778673172,28.33377456665039,-8.409936904907227,40.170658111572266,0
368,3680033,0.03812539204955101,0.02013821341097355,-1.0105863809585571,-0.37113240361213684,0.22378577291965485,0.08492811024188995,30.215354919433594,-9.699871063232422,39.21226501464844,0
369,3690226,0.0010311688529327512,0.0022145065013319254,-0.9982534646987915,0.4889066815376282,-0.19414447247982025,0.3501841425895691,29.323665618896484,-9.432137489318848,40.97972869873047,0
370,3700028,-0.09758836776018143,-0.014733565039932728,-1.0078628063201904,0.08603840321302414,0.4073011875152588,-0.23696798086166382,30.10165786743164,-11.689985275268555,40.1358757019043,0
371,3709878,-0.05517077445983887,-0.04550543427467346,-1.0040777921676636,-0.2168598175048828,0.11774511635303497,0.789107620716095,29.42485237121582,-11.761356353759766,39.55315017700195,0
372,3720139,0.0028646208811551332,-0.024160757660865784,-0.9994070529937744,-0.5135491490364075,1.2059288024902344,0.16209930181503296,30.031723022460938,-10.712196350097656,41.06266403198242,0
373,3730102,0.014184542000293732,-0.042507968842983246,-1.0476596355438232,0.978583812713623,0.053808849304914474,-0.6450721025466919,29.411951065063477,-11.917527198791504,40.85729217529297,0
374,3739898,0.007360475137829781,-0.05169917643070221,-1.0105465650558472,-0.06952983886003494,0.2999957799911499,-0.2031538039445877,28.8608455657959,-10.186022758483887,39.68269729614258,0
375,3749974,-0.1142696887254715,0.045076802372932434,-0.9950488805770874,0.2348487824201584,-0.06890273094177246,-0.24774420261383057,31.019184112548828,-9.95674991607666,37.961395263671875,0
376,3759991,0.03688161447644234,0.054252587258815765,-0.9623084664344788,0.4415735602378845,-0.5035847425460815,-0.41876041889190674,29.913578033447266,-9.66236400604248,39.983497619628906,0
377,3770001,0.016850430518388748,-0.027904920279979706,-0.9911301136016846,0.09245585650205612,0.6577751040458679,-0.6709480285644531,29.539159774780273,-10.492586135864258,39.317169189453125,0
378,3779957,-0.02835405245423317,-0.0460970439016819,-1.01486337184906,-0.4961791932582855,0.48061999678611755,-0.24775239825248718,29.914836883544922,-8.083087921142578,39.32069396972656,0
379,3790192,-0.026647070422768593,0.002294643549248576,-0.9988445043563843,-0.5279384851455688,-0.2291315346956253,0.9559188485145569,32.081485748291016,-9.646008491516113,39.3439826965332,0
380,3799804,0.013522356748580933,0.01312355138361454,-0.9823644161224365,0.4137439429759979,-0.3552379608154297,0.01191618014127016,29.886005401611328,-11.250040054321289,41.25810241699219,0
381,3809930,-0.09849175065755844,0.0626143217086792,-0.9928479194641113,0.3041078746318817,0.7658193111419678,0.09764557331800461,29.470001220703125,-10.279950141906738,40.123836517333984,0
382,3820197,0.00040818037814460695,-0.061435285955667496,-0.9917052984237671,0.733443021774292,0.00229269964620471,-1.03985595703125,30.452896118164062,-12.102084159851074,39.826969146728516,0
383,3830108,0.11626256257295609,-0.05377550795674324,-0.9871586561203003,0.5233649611473083,0.37202972173690796,0.7762569189071655,29.4207820892334,-8.92618465423584,38.65620040893555,0
384,3839860,-0.13715431094169617,0.04356438294053078,-0.9730660319328308,0.48962342739105225,-0.4823247194290161,-0.28399887681007385,29.307241439819336,-10.82470703125,41.19596862792969,0
385,3850165,0.027878476306796074,-0.02263760194182396,-0.979008674621582,-0.22658343613147736,0.2638716995716095,-0.5120481252670288,28.7752742767334,-10.833860397338867,39.787078857421875,0
386,3860165,-0.004265316296368837,0.10353637486696243,-1.0220372676849365,-0.6459656953811646,0.02016700804233551,1.0013715028762817,29.93070411682129,-9.413093566894531,39.7556266784668,0
387,3869870,-0.012814419344067574,0.07267750054597855,-1.0041604042053223,0.41005054116249084,0.26301485300064087,0.1400817483663559,29.721614837646484,-9.510913848876953,38.309898376464844,0
388,3880027,-0.022764677181839943,0.029112868010997772,-1.0083776712417603,-0.6947026252746582,-0.07005089521408081,0.1983230859041214,27.881973266601562,-9.902990341186523,39.451656341552734,0
389,3889926,-0.008440893143415451,-0.0660836398601532,-1.0347599983215332,-0.375418484210968,-0.06674907356500626,-0.31302696466445923,31.223350524902344,-8.253270149230957,40.90083312988281,0
390,3899871,0.12184499204158783,-0.1046985313296318,-0.986051619052887,0.05028894543647766,0.309696227312088,-0.5696806907653809,29.72669792175293,-9.958202362060547,41.31245422363281,0
391,3910069,0.012843403033912182,0.027152320370078087,-1.037020206451416,0.3995552659034729,-0.4780568778514862,0.8877351880073547,29.816097259521484,-9.343863487243652,38.41079330444336,0
392,3920126,-0.04284975677728653,0.04620151221752167,-1.0150375366210938,-0.6119188666343689,0.5508657097816467,-0.040965791791677475,30.501192092895508,-9.942859649658203,40.49166488647461,0
393,3930264,-0.004384370520710945,-0.021749848499894142,-0.957644522190094,0.1507759541273117,0.05003134533762932,-0.4296766519546509,31.05826759338379,-9.198720932006836,39.410919189453125,0
394,3940206,-0.039496418088674545,-0.01991441659629345,-0.9917692542076111,-0.5219032764434814,-0.24787625670433044,0.29580438137054443,28.50188446044922,-11.763628005981445,39.46333694458008,0
395,3950104,0.021949192509055138,-0.04673893377184868,-0.9682075381278992,0.5003500580787659,-0.16191591322422028,-0.2705574333667755,28.993555068969727,-9.598565101623535,39.216434478759766,0
396,3959812,0.05090979114174843,0.004802040755748749,-0.9956608414649963,0.34773358702659607,-0.39355844259262085,1.0917505025863647,28.955148696899414,-10.954699516296387,41.51970672607422,0
397,3969879,-0.014517948031425476,0.009209194220602512,-1.013473629951477,-0.006234274245798588,0.1380595713853836,-0.07571109384298325,28.24127960205078,-11.27635383605957,38.42183303833008,0
398,3980050,0.10636654496192932,0.056063421070575714,-1.0170254707336426,-0.1856871396303177,0.2952521741390228,0.005663050338625908,30.197589874267578,-10.667617797851562,40.92893600463867,0
399,3990059,0.10865382105112076,0.08895303308963776,-1.0180902481079102,-0.3208259344100952,-0.4730711877346039,-0.3186197876930237,27.895042419433594,-8.821131706237793,39.625370025634766,0
400,3999768,0.07125677913427353,-0.04678456857800484,-1.0190341472625732,1.097892165184021,0.09577709436416626,0.10329084098339081,30.360795974731445,-10.875764846801758,38.687721252441406,0
401,4010256,0.040783751755952835,-0.010817712172865868,-1.017982006072998,0.7049859762191772,-0.18377552926540375,-0.09414175152778625,30.227191925048828,-10.401792526245117,40.153743743896484,0
402,4020029,-0.03291760012507439,-0.01738251931965351,-0.972467839717865,-1.2336069345474243,1.0860402584075928,0.11867561936378479,30.029399871826172,-9.725357055664062,38.88936233520508,0
403,4030185,0.0005911852931603789,0.07169114053249359,-1.017488956451416,-0.6123283505439758,0.42747068405151367,0.008134898729622364,30.181612014770508,-8.949552536010742,39.28044509887695,0
404,4039924,-0.01421721838414669,-0.018483001738786697,-1.026745080947876,0.44256266951560974,0.07990703731775284,0.6508047580718994,29.36867332458496,-8.686247825622559,39.840702056884766,0
405,4050149,0.10416121780872345,0.034047745168209076,-1.0016285181045532,0.6169735789299011,-0.6738573908805847,-0.24926351010799408,30.486555099487305,-10.086640357971191,39.3000373840332,0
406,4060062,0.014993875287473202,-0.01500269491225481,-0.9946315884590149,-0.012357432395219803,-0.6799260377883911,-0.08527899533510208,29.8810977935791,-10.095880508422852,40.49531936645508,0
407,4070022,0.09850627183914185,-0.056292783468961716,-1.0002249479293823,0.5351791381835938,0.032881248742341995,0.6931012868881226,30.801620483398438,-10.041646957397461,40.322853088378906,0
408,4079797,-0.10021805763244629,-0.06063002720475197,-1.0014451742172241,-0.03741776570677757,-0.554854154586792,0.24945777654647827,28.618207931518555,-9.564534187316895,40.6179084777832,0
409,4089802,0.050018779933452606,0.05750435218214989,-0.9870367050170898,-0.751417875289917,0.03881096839904785,-0.7122190594673157,30.00149917602539,-10.284303665161133,41.04958724975586,0
410,4099877,-0.09650908410549164,-0.05440390482544899,-0.9787193536758423,-0.8957684636116028,0.6799802184104919,-0.4789975881576538,30.43443489074707,-9.073341369628906,41.151123046875,0
411,4110117,-0.06557049602270126,0.06377828866243362,-1.0147696733474731,0.05446464568376541,-0.48833853006362915,-0.06541705876588821,31.363126754760742,-9.578913688659668,41.416038513183594,0
412,4119998,0.11456917226314545,-0.06359662115573883,-1.0278035402297974,-0.6030653715133667,0.25905466079711914,-0.10983484983444214,31.27545928955078,-9.748125076293945,38.44272232055664,0
413,4130098,-0.059808120131492615,0.01571037620306015,-1.0279386043548584,0.32078373432159424,-0.06403934955596924,-0.4742705821990967,29.808706283569336,-10.035323143005371,39.813995361328125,0
414,4140017,0.022520599886775017,-0.05818388611078262,-0.998533308506012,0.3184031844139099,-0.035953640937805176,0.04240282624959946,30.202219009399414,-10.449967384338379,42.760772705078125,0
415,4149940,-0.050045885145664215,-0.04894692078232765,-1.0004209280014038,-0.4784896671772003,-0.27253472805023193,-0.09246649593114853,31.68524742126465,-9.2825345993042,40.17572784423828,0
416,4159898,-0.02486986294388771,-0.07942670583724976,-1.0134856700897217,-0.11103472113609314,-0.3023126423358917,-0.5687536001205444,29.83205795288086,-9.428671836853027,39.98316955566406,0
417,4170042,-0.05269043147563934,0.024367956444621086,-0.9994760155677795,-0.05450597405433655,0.09956485778093338,-0.4970491826534271,29.613262176513672,-9.436810493469238,41.49960708618164,0
418,4179999,0.008995333686470985,0.0019500517519190907,-1.0025445222854614,0.44302740693092346,-0.5631620287895203,0.14700214564800262,30.558340072631836,-9.315926551818848,38.87953567504883,0
419,4189893,0.07694742828607559,-0.21218523383140564,-0.9921992421150208,1.417867660522461,-0.33153003454208374,-0.18456675112247467,30.774965286254883,-11.152788162231445,40.35741424560547,0
420,4200111,-0.0013413947308436036,0.010557956993579865,-0.9736144542694092,-0.0630953460931778,-0.051619865000247955,-0.5736807584762573,32.10371398925781,-7.672650337219238,39.81817626953125,0
421,4210188,0.09638885408639908,0.0363028310239315,-1.0015531778335571,0.4518282413482666,0.16801917552947998,0.5016294121742249,31.20860481262207,-10.290940284729004,39.1053581237793,0
422,4219776,-0.07591573894023895,0.0018161023035645485,-0.9944559335708618,-0.24048113822937012,0.3363749384880066,-0.07678268849849701,29.57766342163086,-10.007868766784668,39.67936706542969,0
423,4229783,-0.018668226897716522,-0.1624462753534317,-1.0120679140090942,0.06093872711062431,-0.36203041672706604,-0.1287442445755005,30.799875259399414,-10.211520195007324,41.966461181640625,0
424,4240146,0.01794012077152729,-0.037396594882011414,-1.0241868495941162,0.22444914281368256,0.49472716450691223,0.055714111775159836,31.063676834106445,-10.78416919708252,41.23724365234375,0
425,4250152,-0.03827013820409775,0.04330321028828621,-1.0047825574874878,-0.38087132573127747,-0.46772271394729614,-0.3661545515060425,28.86444854736328,-9.85937786102295,40.301673889160156,0
426,4260097,0.049786292016506195,0.03155455365777016,-1.028965711593628,0.1790616810321808,0.3090760111808777,0.5013582706451416,29.454187393188477,-9.390575408935547,40.82954025268555,0
427,4269945,-0.024767829105257988,0.08715543895959854,-1.0125738382339478,-0.647372841835022,0.5617355704307556,-0.7436150908470154,30.979021072387695,-9.482874870300293,41.18379592895508,0
428,4279941,-0.02375067211687565,0.0619683712720871,-1.0049586296081543,0.24441105127334595,0.454734206199646,0.47098952531814575,30.692148208618164,-11.210137367248535,38.168697357177734,0
429,4290061,-0.00027576080174185336,-0.008661595173180103,-0.978890061378479,0.7475659847259521,0.28382423520088196,0.4111948609352112,30.868450164794922,-10.08571720123291,39.244503021240234,0
430,4300067,0.0036258010659366846,-0.06977739930152893,-0.9502865672111511,0.18209749460220337,0.20010961592197418,-0.3390718698501587,30.06244659423828,-8.961773872375488,40.71133041381836,0
431,4309790,0.006850115489214659,-0.015535913407802582,-1.0021432638168335,0.5029735565185547,-0.3408927023410797,-0.16343413293361664,29.577314376831055,-7.667829513549805,40.78338623046875,0
432,4319840,0.08489576727151871,0.05015377700328827,-1.0012720823287964,-1.2427904605865479,-0.6655195355415344,-0.05088867247104645,28.5113468170166,-10.528780937194824,40.24076843261719,0
433,4329910,-0.09545660763978958,0.031164439395070076,-0.9907829761505127,0.14166687428951263,0.47178494930267334,-0.7893853783607483,31.574499130249023,-8.326233863830566,41.48352813720703,0
434,4340071,0.006057324353605509,-0.016049792990088463,-1.0054633617401123,0.3592422604560852,-0.3050321638584137,-0.04490219056606293,30.493749618530273,-11.842873573303223,40.796268463134766,0
435,4349996,-0.027806371450424194,-0.012742729857563972,-0.9946264028549194,-0.9661010503768921,0.3749542534351349,0.046516578644514084,28.743196487426758,-11.373960494995117,40.05412292480469,0
436,4359881,-0.012777089141309261,0.0553881861269474,-1.0312868356704712,-0.08534519374370575,0.29684287309646606,0.3817223906517029,29.780471801757812,-7.094603538513184,40.4294548034668,0
437,4370014,0.025590643286705017,0.02545543760061264,-0.9665051698684692,-0.21548591554164886,-0.36115431785583496,0.10724756866693497,29.730602264404297,-9.95409870147705,39.10770797729492,0
438,4380020,0.06770401448011398,-0.01032513938844204,-1.0159525871276855,-0.17477242648601532,0.18432499468326569,0.2785133123397827,28.383949279785156,-9.941816329956055,40.06479263305664,0
439,4389891,-0.05809003487229347,0.009793262928724289,-1.0217229127883911,0.18835830688476562,0.2508825361728668,-0.005763872992247343,28.886106491088867,-9.800339698791504,39.44599533081055,0
440,4399804,0.01626792922616005,0.04992426186800003,-0.9780912399291992,-0.792805016040802,0.10897286981344223,0.6835635900497437,29.105419158935547,-8.993836402893066,40.371070861816406,0
441,4410057,0.04754860699176788,-0.01588042452931404,-1.0243076086044312,-0.17895975708961487,-0.8597409725189209,0.44571200013160706,29.463228225708008,-10.197646141052246,41.027748107910156,0
442,4419881,0.08545432239770889,0.07212935388088226,-0.9710509777069092,0.17502948641777039,-0.11461242288351059,0.003837937954813242,30.18660545349121,-9.128189086914062,39.72913360595703,0
443,4429773,0.012950615026056767,-0.004565995652228594,-0.9654029607772827,0.10354828834533691,0.3365724980831146,-0.1927066147327423,28.47784423828125,-8.919709205627441,41.609867095947266,0
444,4439692,-0.038488082587718964,0.02454347163438797,-0.9828620553016663,0.10732274502515793,-0.24857863783836365,0.3384498953819275,29.61419105529785,-9.714917182922363,39.668495178222656,0
445,4450263,0.005465500522404909,-0.07212723046541214,-1.019911289215088,-0.05554836615920067,0.22642965614795685,0.7087186574935913,29.327598571777344,-10.079384803771973,38.17683029174805,0
446,4460107,0.015366419218480587,-0.067121721804142,-0.9818390011787415,-0.018633458763360977,0.34772995114326477,-0.19048966467380524,30.546049118041992,-10.997220993041992,39.93077850341797,0
447,4469710,0.04680353403091431,-0.02598213218152523,-1.0047982931137085,0.02173195593059063,0.8877728581428528,-0.5998938679695129,28.494050979614258,-12.247489929199219,40.828590393066406,0
448,4479891,-0.08792981505393982,0.07938583195209503,-0.9774343371391296,0.7752556800842285,-0.6484398245811462,-0.6132424473762512,29.947044372558594,-10.344487190246582,40.31366729736328,0
449,4489873,0.060331910848617554,0.06626413017511368,-0.9862264394760132,-1.4586230516433716,0.5269270539283752,-0.13373740017414093,30.241975784301758,-10.936065673828125,39.771846771240234,0
450,4499770,-0.08471866697072983,0.03248640149831772,-0.975261926651001,0.11056379973888397,-0.28089067339897156,-1.024641752243042,30.87468147277832,-10.662185668945312,39.779544830322266,0
451,4510102,-0.0671447291970253,0.018277861177921295,-1.0084269046783447,0.2877449691295624,-0.5688095092773438,-0.4231937527656555,29.93301010131836,-10.021953582763672,39.42530822753906,0
452,4520159,-0.05187184736132622,0.05563398078083992,-1.0080915689468384,0.011827624402940273,-0.5089083313941956,-0.037010740488767624,30.90752601623535,-9.949713706970215,40.411869049072266,0
453,4529991,0.07283388078212738,0.02286526933312416,-0.9997836947441101,-0.38809213042259216,0.18369410932064056,0.27809324860572815,29.46678352355957,-10.417610168457031,39.74103546142578,0
454,4539855,-0.06795889139175415,0.026084158569574356,-0.9895455837249756,0.506733775138855,-0.0625315010547638,0.4797331988811493,29.90867042541504,-9.773649215698242,39.37596130371094,0
455,4550041,-0.04774424433708191,0.033224623650312424,-0.9937437176704407,0.7855669260025024,-0.052721090614795685,-0.3139815330505371,30.58108901977539,-11.42945384979248,40.90410232543945,0
456,4559944,0.007640641648322344,0.007292344234883785,-0.9840090274810791,-0.024782435968518257,-0.43937990069389343,-0.08628475666046143,30.95506477355957,-8.807723999023438,38.063262939453125,0
457,4569811,-0.03328985720872879,0.03608020022511482,-1.0018870830535889,-0.29264605045318604,-0.056183602660894394,-0.33770328760147095,29.460363388061523,-10.277973175048828,40.65545654296875,0
458,4580097,0.10555357486009598,-0.05111713334918022,-1.0076756477355957,-0.2988053560256958,0.27888256311416626,-0.08024671673774719,32.10805892944336,-9.431626319885254,42.8070182800293,0
459,4589760,-0.06341623514890671,0.07230120152235031,-0.9946771264076233,-0.28229549527168274,-0.9897376894950867,0.26667320728302,28.936769485473633,-12.282652854919434,40.34693145751953,0
460,4600030,-0.05423152074217796,-0.08954466134309769,-0.9833382368087769,-0.9416244626045227,-0.26390624046325684,0.2847430408000946,32.635536193847656,-10.440624237060547,38.66376876831055,0
461,4610072,0.07867170125246048,-0.08853431791067123,-1.008758544921875,0.005406651180237532,0.7139014601707458,0.02526615932583809,28.463918685913086,-10.01071834564209,40.19023895263672,0
462,4620233,-0.0238602664321661,-0.05467572808265686,-1.002909779548645,0.13884156942367554,0.11682269722223282,0.6435410976409912,29.643054962158203,-9.989893913269043,40.94696044921875,0
463,4629761,-0.040389660745859146,0.0755574107170105,-0.9955921769142151,-0.31757745146751404,-0.044171325862407684,-0.0005791467265225947,30.983732223510742,-10.685358047485352,40.118408203125,0
464,4639935,0.0002041752595687285,0.09741990268230438,-1.0116609334945679,0.2472711056470871,-0.2716606557369232,0.8774169087409973,29.36387062072754,-9.370196342468262,39.44646453857422,0
465,4649989,-0.031346645206213,-0.01994902454316616,-1.010226845741272,-0.05249505117535591,-0.881557822227478,-0.734174907207489,29.48231315612793,-10.332812309265137,39.40272903442383,0
466,4660024,-0.036461230367422104,0.03775143623352051,-1.0092581510543823,0.16584965586662292,0.5985503196716309,-0.11543365567922592,29.255659103393555,-8.751971244812012,39.432979583740234,0
467,4669995,-0.02889697626233101,0.07762783020734787,-1.02694833278656,0.8320912718772888,-0.07366763055324554,-0.04975865036249161,28.548574447631836,-10.574678421020508,39.343902587890625,0
468,4680091,-0.0054557304829359055,0.0609220415353775,-0.9850975275039673,0.40407201647758484,0.6533786654472351,-0.36590105295181274,29.185365676879883,-10.60927963256836,39.468109130859375,0
469,4689973,-0.019499555230140686,-0.06635896861553192,-1.0066134929656982,0.24577708542346954,-0.6318225860595703,-1.0298877954483032,30.41655158996582,-9.800884246826172,40.769718170166016,0
470,4699904,0.0012564999051392078,0.04864148050546646,-0.9852178692817688,-0.36397162079811096,-0.8985802531242371,0.353085458278656,28.123573303222656,-10.696322441101074,40.97294235229492,0
471,4709923,-0.08527305722236633,-0.09155284613370895,-1.03274667263031,0.4602741003036499,0.1368608921766281,0.0005135159590281546,28.527713775634766,-10.815253257751465,39.93164825439453,0
472,4720050,-0.09653714299201965,-0.04113532230257988,-1.007129192352295,-0.28760287165641785,0.5581315159797668,0.42449477314949036,30.27976417541504,-11.620453834533691,39.587257385253906,0
473,4730004,-0.08591688424348831,-0.0605773888528347,-1.022737979888916,0.24442677199840546,-0.3483521342277527,0.26839765906333923,29.820947647094727,-10.190349578857422,40.26409912109375,0
474,4739960,0.0009377599926665425,-0.04021679237484932,-1.0096039772033691,-0.11713311076164246,0.30596059560775757,0.2225971817970276,30.239736557006836,-10.427902221679688,39.1081428527832,0
475,4749937,-0.01294442918151617,0.06771379709243774,-1.035535454750061,-0.6747397780418396,-0.3027726113796234,0.26400038599967957,29.000585556030273,-10.573851585388184,38.827091217041016,0
476,4759907,0.004796669818460941,0.0020792330615222454,-1.0261964797973633,-0.4882453978061676,-0.08139743655920029,-0.8686821460723877,29.3271427154541,-10.067970275878906,39.187522888183594,0
477,4769879,0.06603576987981796,-0.018535258248448372,-1.0120965242385864,-0.6364936232566833,0.18259043991565704,-0.0682012140750885,30.74425506591797,-9.998148918151855,37.9106559753418,0
478,4779798,0.00432553282007575,0.01489342376589775,-0.9924845099449158,0.023594805970788002,-0.14304526150226593,-0.4726267158985138,29.622642517089844,-9.054731369018555,40.97188949584961,0
479,4790239,-0.018883787095546722,-0.037834253162145615,-0.9920140504837036,0.8658310174942017,-0.2520048916339874,0.1880480945110321,29.635448455810547,-9.230308532714844,40.89756774902344,0
480,4800115,0.10102414339780807,-0.028078017756342888,-1.0173587799072266,-0.7014346718788147,0.07407388836145401,-0.6647540926933289,28.774215698242188,-10.598484992980957,41.01515579223633,0
481,4810334,-0.024266621097922325,-0.03142615407705307,-0.9737091660499573,1.0902637243270874,-0.2276042252779007,0.2958059310913086,29.774232864379883,-8.609146118164062,39.689697265625,0
482,4820053,-0.0010808318620547652,-0.02008981816470623,-1.029359221458435,-0.05512363463640213,0.5750065445899963,-0.2378438115119934,29.318307876586914,-8.495138168334961,38.400333404541016,0
483,4830228,0.020925845950841904,-0.02371254935860634,-0.9945126175880432,0.4823388457298279,-0.0232484582811594,0.6140187978744507,30.907878875732422,-11.324795722961426,39.219200134277344,0
484,4840141,-0.020428752526640892,0.016751600429415703,-1.0140135288238525,0.14256775379180908,-0.3728967010974884,-0.6358852982521057,29.91520881652832,-9.044169425964355,38.58266830444336,0
485,4850135,-0.046630971133708954,-0.06086408346891403,-1.039292812347412,0.0634145513176918,0.25670844316482544,0.3509451746940613,30.4132137298584,-10.154311180114746,38.677215576171875,0
486,4859861,0.0697869285941124,0.020429261028766632,-1.0331108570098877,0.36765098571777344,0.2145969420671463,0.362364262342453,29.645479202270508,-9.43448257446289,40.897579193115234,0
487,4870161,0.08210843801498413,0.001147027825936675,-0.9535666108131409,0.43027228116989136,-0.6964734196662903,-0.03235602006316185,29.26634979248047,-9.071313858032227,39.365631103515625,0
488,4880255,-0.08904725313186646,0.0068142651580274105,-1.0067788362503052,0.8250423073768616,-0.270407497882843,0.507152795791626,30.764965057373047,-9.993595123291016,39.184444427490234,0
489,4889963,0.0723816454410553,0.01838952675461769,-1.0393811464309692,0.12534816563129425,-0.08444097638130188,0.2335391640663147,30.75703239440918,-9.314276695251465,37.93540954589844,0
490,4900053,-0.02661764621734619,-0.0006679000216536224,-0.9886738061904907,0.8564173579216003,-0.7036898136138916,-0.575495719909668,29.982633590698242,-9.541364669799805,41.402408599853516,0
491,4909879,-0.03441501781344414,0.07070562988519669,-1.041290044784546,0.4292026460170746,0.1494695246219635,-0.24324969947338104,28.082805633544922,-11.513970375061035,40.9043083190918,0
492,4920099,0.06274545937776566,0.037258878350257874,-1.0084211826324463,0.3127078413963318,0.2967807948589325,0.5861049294471741,30.695070266723633,-9.411468505859375,38.07246780395508,0
493,4930098,-0.07131697982549667,-0.04606155678629875,-1.021703839302063,0.004564292728900909,0.25365906953811646,-0.11314629018306732,32.31642532348633,-9.684407234191895,39.85646438598633,0
494,4939959,0.07842034846544266,-0.02661437913775444,-1.0185503959655762,0.3322729468345642,-0.4244370460510254,0.7522627115249634,30.163864135742188,-9.70241928100586,39.73451232910156,0
495,4949820,-0.05702608823776245,-0.01207446027547121,-0.9940246939659119,-0.8863993883132935,-0.5382546186447144,0.7948710918426514,28.94906997680664,-9.923683166503906,39.446903228759766,0
496,4960081,-0.07719336450099945,-0.015886856243014336,-1.0072909593582153,-0.365765780210495,0.4533069431781769,-0.3272397518157959,30.40966796875,-9.028776168823242,40.31343460083008,0
497,4970214,0.06699281930923462,-0.10309882462024689,-1.0142167806625366,0.5501961708068848,0.7180432081222534,0.5272687673568726,29.447986602783203,-10.214581489562988,39.8367919921875,0
498,4980021,-0.008932673372328281,-0.0006283538532443345,-1.020689845085144,0.6533201932907104,0.3144175708293915,1.002851963043213,27.560897827148438,-8.30279541015625,38.53032684326172,0
499,4989907,-0.012855750508606434,-0.011648698709905148,-1.0193095207214355,0.11841630935668945,-0.28078320622444153,0.9972152709960938,29.769426345825195,-12.444703102111816,39.931732177734375,0
500,5000006,-0.13289816677570343,0.002351394621655345,-0.9851680994033813,1.0750383138656616,0.3081108033657074,0.991454541683197,29.14801597595215,-10.258137702941895,39.249942779541016,0
501,5010084,0.024753229692578316,-0.0940588116645813,-1.024929404258728,-0.2661752998828888,0.27051785588264465,-0.39174142479896545,30.29261589050293,-9.958096504211426,39.21828079223633,0
502,5019907,-0.011807048693299294,0.08342009037733078,-0.9592716097831726,0.35563594102859497,-0.018203193321824074,0.3006550371646881,27.47279167175293,-8.955657958984375,40.414398193359375,0
503,5030025,0.0013347623171284795,0.03915666416287422,-0.9953261613845825,0.019701095297932625,-0.9412996172904968,0.016042834147810936,31.12435531616211,-8.592536926269531,40.542354583740234,0
504,5040021,-0.0003150557167828083,-0.03833240270614624,-0.9993603229522705,-0.13310495018959045,0.3866637349128723,0.13703247904777527,30.873600006103516,-10.524710655212402,39.8189697265625,0
505,5050231,0.09721671044826508,-0.013280732557177544,-1.0024906396865845,-0.47323161363601685,0.44708725810050964,-0.24316613376140594,29.01090431213379,-11.069012641906738,41.567142486572266,0
506,5059813,0.0064370534382760525,0.005137244705110788,-1.0082024335861206,0.21282677352428436,0.18895100057125092,0.5788952112197876,29.861053466796875,-9.063651084899902,40.38780212402344,0
507,5069973,0.054863184690475464,0.01436108723282814,-0.9924700856208801,0.7079676389694214,0.15983366966247559,0.35899797081947327,28.44357681274414,-9.796085357666016,40.9211311340332,0
508,5080015,-0.004291003569960594,0.016990000382065773,-1.0300225019454956,0.48875290155410767,-1.0772055387496948,-0.4217222332954407,30.61785125732422,-8.300393104553223,39.574039459228516,0
509,5090007,0.048319075256586075,-0.02328862063586712,-0.9958083033561707,-0.14786414802074432,0.06621982157230377,-0.44356483221054077,29.67978286743164,-10.86044692993164,40.637962341308594,0
510,5100128,0.10788773000240326,0.012040174566209316,-1.030128836631775,0.2519150972366333,-1.2922981977462769,0.698270857334137,29.53729820251465,-9.22829818725586,40.47462463378906,0
511,5110086,-0.02895040437579155,-0.10246072709560394,-0.9972843527793884,0.4517264664173126,0.28245919942855835,-0.3846135139465332,30.69527816772461,-12.019845962524414,38.8330078125,0
512,5120053,-0.02317507565021515,-0.0326048843562603,-0.9605669379234314,-0.5077008605003357,-0.2649073898792267,-0.8168604969978333,28.700578689575195,-9.756023406982422,39.8519401550293,0
513,5130125,-0.0009060527081601322,-0.0011763203656300902,-1.0081300735473633,0.5581017136573792,0.04833926260471344,-0.3134186267852783,28.278398513793945,-10.020341873168945,39.45347595214844,0
514,5139798,0.016247613355517387,-0.011117900721728802,-0.9950733780860901,0.11897383630275726,-0.547718346118927,0.6119833588600159,29.158655166625977,-9.68292236328125,38.08235168457031,0
515,5149792,-0.005122052971273661,0.05261649563908577,-1.0000114440917969,-0.6127924919128418,-0.6472436189651489,-0.02884281612932682,30.425134658813477,-8.947515487670898,40.363128662109375,0
516,5159945,0.007175459526479244,0.1358591765165329,-0.9679546356201172,-1.0155829191207886,0.12590359151363373,0.31868189573287964,29.332731246948242,-9.059300422668457,38.77812194824219,0
517,5169791,-0.035145100206136703,-0.11907246708869934,-0.9847697615623474,-0.3389987051486969,0.6064304113388062,-0.22107408940792084,29.214345932006836,-10.902386665344238,40.092857360839844,0
518,5180014,0.016838109120726585,0.07241379469633102,-0.9824090600013733,-0.7430336475372314,-0.48630642890930176,0.44745367765426636,28.786602020263672,-11.238045692443848,39.396358489990234,0
519,5190044,0.03437907621264458,0.07952360808849335,-1.0122992992401123,0.507128119468689,0.4477981925010681,0.43275225162506104,28.601545333862305,-9.625428199768066,38.469852447509766,0
520,5199944,0.00920894742012024,0.0931684598326683,-1.008840560913086,0.4104439616203308,1.2523983716964722,-0.49825552105903625,30.095333099365234,-9.792990684509277,38.46636199951172,0
521,5210077,0.08884735405445099,0.05695859342813492,-0.9792992472648621,-0.12393077462911606,0.30004698038101196,0.26539894938468933,30.192771911621094,-10.001019477844238,38.94255065917969,0
522,5219844,0.017588183283805847,-0.05266274884343147,-1.0089653730392456,-0.06344576179981232,-0.11926599591970444,0.021638914942741394,29.839609146118164,-8.981696128845215,40.242645263671875,0
523,5230063,0.03770732134580612,0.05864853411912918,-0.9843957424163818,-0.3868057131767273,-0.12738215923309326,0.23035705089569092,29.192398071289062,-9.594710350036621,42.06829833984375,0
524,5240183,-0.03441588208079338,-0.028761612251400948,-0.9900081753730774,0.3125757575035095,0.84187912940979,0.16694863140583038,29.986421585083008,-10.148429870605469,39.29304122924805,0
525,5249993,-0.07429583370685577,-0.04797539860010147,-0.9896354079246521,0.05427568405866623,-0.3267661929130554,0.5731804370880127,30.920860290527344,-9.947771072387695,40.4490966796875,0
526,5259908,-0.038640622049570084,-0.06736118346452713,-0.9886587858200073,0.3045565187931061,0.2971932888031006,0.32938146591186523,29.316694259643555,-8.96633243560791,39.21432113647461,0
527,5270146,-0.030153166502714157,-0.04748291149735451,-1.0169378519058228,0.10499835759401321,0.31456258893013,-0.6534315943717957,31.592361450195312,-11.34730339050293,39.92167282104492,0
528,5279851,0.006041300483047962,-0.14748267829418182,-0.9533892273902893,-0.1689867079257965,-1.2213796377182007,-0.29003408551216125,30.072250366210938,-10.56798267364502,41.434661865234375,0
529,5290045,0.02352248691022396,-0.03855018690228462,-0.9889496564865112,0.30371198058128357,0.02469003200531006,0.03987797349691391,29.308534622192383,-9.663726806640625,41.625892639160156,0
530,5299993,-0.05007147416472435,-0.00515951169654727,-1.032606840133667,0.13150011003017426,-0.08505339920520782,-0.22216923534870148,29.4464054107666,-10.018919944763184,39.139244079589844,0
531,5310126,-0.041541147977113724,0.031733233481645584,-1.0454248189926147,-0.28549137711524963,-0.42827123403549194,-0.33671122789382935,29.631399154663086,-13.024736404418945,39.17759323120117,0
532,5319880,0.07103054970502853,0.0062078312039375305,-1.0344464778900146,-0.4377903342247009,0.4218219816684723,0.41480931639671326,31.41585922241211,-8.329816818237305,41.67833709716797,0
533,5329836,0.06160755828022957,-0.05198705196380615,-0.993685781955719,-1.0060256719589233,-0.2985674738883972,0.15731455385684967,31.34160041809082,-10.694818496704102,39.282047271728516,0
534,5339918,0.024255255237221718,-0.02286818064749241,-0.9943256974220276,-0.18818742036819458,0.6211183071136475,0.4273259937763214,29.275999069213867,-9.518027305603027,38.035072326660156,0
535,5350320,0.08728747814893723,-0.007110391277819872,-1.0036433935165405,-0.3147134780883789,-0.04680671542882919,0.49589988589286804,28.44985008239746,-10.287797927856445,39.7133903503418,0
536,5359886,-0.05631402134895325,-0.015087250620126724,-0.9955999255180359,0.7643038034439087,-0.1471462994813919,-0.2965289056301117,30.940040588378906,-10.653606414794922,38.76742172241211,0
537,5370110,0.011195113882422447,-0.03224494680762291,-0.9752957820892334,1.03581702709198,0.4230513274669647,0.16220499575138092,28.684446334838867,-9.981868743896484,40.405860900878906,0
538,5380188,0.04099616780877113,-0.0634593591094017,-1.0247284173965454,0.5504661798477173,-1.6297082901000977,-0.42296454310417175,31.07996940612793,-10.51634693145752,41.163848876953125,0
539,5389862,-0.014110121876001358,0.011394068598747253,-0.997137725353241,-0.11558841168880463,0.06606972217559814,0.9311631321907043,30.4866886138916,-8.278654098510742,40.97876739501953,0
540,5399567,0.0788782611489296,-0.029000546783208847,-0.9984565377235413,-0.03670533746480942,-0.7153022885322571,0.03949860483407974,28.92058753967285,-10.476737022399902,40.87614440917969,0
541,5409845,0.006424717605113983,0.01127050444483757,-1.0123958587646484,0.05097632110118866,0.4774896800518036,0.6644690632820129,31.021268844604492,-8.952128410339355,39.12733840942383,0
542,5419874,0.040794696658849716,0.08080866187810898,-1.0035665035247803,0.20148617029190063,-0.37646862864494324,-0.321301132440567,30.600004196166992,-11.729422569274902,39.03860092163086,0
543,5430002,0.016601620241999626,-0.037181414663791656,-1.0055102109909058,-0.3741762042045593,0.5557965040206909,-0.2701463997364044,30.057281494140625,-12.270060539245605,39.528167724609375,0
544,5440301,0.047967106103897095,-0.011626548133790493,-1.0156627893447876,0.09879571199417114,-0.3592354655265808,0.11815565079450607,25.791475296020508,-8.326942443847656,40.407012939453125,0
545,5450154,-0.07087985426187515,0.006773908622562885,-1.0152586698532104,-0.2585070729255676,0.4815359115600586,0.014843323267996311,30.284744262695312,-9.0582275390625,40.844120025634766,0
546,5460098,0.005974719766527414,-0.07140744477510452,-1.0071219205856323,-1.1992006301879883,-1.7819406986236572,-0.32539036870002747,30.102230072021484,-9.407028198242188,39.64573287963867,0
547,5470188,0.01877475157380104,-0.013612187467515469,-0.9824059009552002,0.3499930500984192,0.1318012773990631,-0.4375239312648773,29.585002899169922,-10.796900749206543,39.67498016357422,0
548,5479812,0.13095586001873016,-0.004160070326179266,-1.01897132396698,0.274487167596817,-0.17129382491111755,0.17228087782859802,30.64429473876953,-8.957289695739746,38.99513244628906,0
549,5489928,0.08173451572656631,0.10874266922473907,-0.9979497194290161,0.5689070820808411,0.45683151483535767,0.7820383310317993,31.572338104248047,-10.811110496520996,39.940731048583984,0
550,5499913,0.030920440331101418,0.014774144627153873,-0.9982370138168335,-0.8097280859947205,-0.46299028396606445,1.0831071138381958,30.68677520751953,-10.399508476257324,39.90086364746094,0
551,5510104,-0.12449351698160172,0.03066823072731495,-1.0229403972625732,0.04332331568002701,-0.27671802043914795,-0.6203097701072693,30.350942611694336,-10.022676467895508,38.102699279785156,0
552,5519924,-0.05318000540137291,-0.18244874477386475,-0.9891635179519653,-0.6243967413902283,0.1619967222213745,1.1327283382415771,31.414291381835938,-10.092670440673828,40.29458999633789,0
553,5530071,-0.03631219267845154,0.09303881227970123,-1.0022194385528564,-0.3826078176498413,-0.20603743195533752,0.41216230392456055,29.370128631591797,-8.529656410217285,39.67753982543945,0
554,5540046,-0.09923946857452393,0.060994576662778854,-0.967596173286438,0.11502017080783844,0.023562613874673843,-0.6631949543952942,29.47589683532715,-9.468572616577148,38.19186782836914,0
555,5550011,-0.05198688060045242,0.061559222638607025,-0.9788095355033875,0.10447666049003601,-0.45393359661102295,-1.1082837581634521,30.13796615600586,-9.554646492004395,39.68783950805664,0
556,5559863,-0.03111778385937214,0.0703849196434021,-0.9954990744590759,0.6190387606620789,0.07191070914268494,-0.03290842846035957,28.101957321166992,-9.885071754455566,39.06321716308594,0
557,5569982,-0.044027965515851974,0.01340535469353199,-0.9734885692596436,0.541005551815033,-0.5715711116790771,-0.052038196474313736,29.70943260192871,-10.64367961883545,41.40106964111328,0
558,5580164,0.003459783038124442,-0.02443530596792698,-0.9813550114631653,0.5972488522529602,0.09417957812547684,-0.9666708707809448,29.516942977905273,-9.802933692932129,41.57556915283203,0
559,5590102,-0.14591531455516815,0.019436698406934738,-1.0503389835357666,0.07772377878427505,-0.1888507604598999,0.3878314793109894,29.696277618408203,-9.692825317382812,40.41608810424805,0
560,5600104,-0.08958979696035385,0.06506730616092682,-0.9802049994468689,0.283122181892395,0.04729842022061348,-0.48278963565826416,30.121356964111328,-8.840767860412598,42.048179626464844,0
561,5610002,-0.012667613103985786,0.13510821759700775,-0.9877181649208069,-0.058379314839839935,0.08710692822933197,-0.22162127494812012,28.943449020385742,-8.698145866394043,38.29895782470703,0
562,5620287,-0.01702689193189144,0.0034145854879170656,-1.0025149583816528,0.2596518099308014,-0.35011085867881775,-1.1316769123077393,29.395597457885742,-11.326888084411621,38.6163215637207,0
563,5629332,-0.02903786674141884,0.0460810624063015,-0.9756495356559753,0.40643104910850525,-0.2632344961166382,0.17639389634132385,30.317001342773438,-7.034395694732666,37.92659378051758,0
564,5639685,0.019260626286268234,-0.006463093217462301,-0.9925451278686523,-0.4388650357723236,-0.012862193398177624,-0.47888386249542236,29.759136199951172,-10.181538581848145,40.1151008605957,0
565,5649803,0.03537517040967941,0.011838645674288273,-1.0130630731582642,0.36139124631881714,0.44601649045944214,-0.40153366327285767,30.198528289794922,-10.00456714630127,40.5015754699707,0
566,5659885,0.08101122826337814,-0.020118940621614456,-0.9921056628227234,-1.266777515411377,0.5432707071304321,0.19137737154960632,28.593486785888672,-8.146989822387695,42.103370666503906,0
567,5669989,-0.013139626011252403,-0.049795132130384445,-0.9985802173614502,0.8714302778244019,-1.1144616603851318,0.37859609723091125,30.963491439819336,-11.988040924072266,39.954551696777344,0
568,5679956,0.03303181380033493,-0.0356031097471714,-0.9776778221130371,0.02746179886162281,-0.046545758843421936,0.5388540625572205,29.22335433959961,-8.89708137512207,38.487735748291016,0
569,5690007,0.03303656727075577,0.010477696545422077,-1.0327134132385254,-0.8397653698921204,0.08529818058013916,-1.054970622062683,31.670490264892578,-9.560615539550781,40.14872741699219,0
570,5699988,0.04479384794831276,0.017435850575566292,-0.9799131155014038,-0.007620060350745916,0.383333295583725,-0.5069895386695862,30.990144729614258,-11.107873916625977,39.452613830566406,0
571,5710101,-0.03451092913746834,0.01342280488461256,-0.9865882992744446,0.2818486988544464,-0.197950080037117,-0.43660375475883484,28.002979278564453,-9.451112747192383,40.54811096191406,0
572,5720003,0.08217450231313705,-0.03284487873315811,-1.032374620437622,-0.10729586333036423,0.5123208165168762,0.06710789352655411,30.611194610595703,-9.83679485321045,38.20879364013672,0
573,5729939,0.03994446620345116,0.008617720566689968,-1.0097979307174683,-0.025994572788476944,0.41166695952415466,-0.34581437706947327,30.674976348876953,-10.182310104370117,41.21928787231445,0
574,5740097,0.010503331199288368,0.000723157252650708,-1.0141713619232178,-0.41845622658729553,-0.6297844052314758,0.2000090628862381,28.85860824584961,-8.81725025177002,40.23064041137695,0
575,5750212,-0.09909328073263168,-0.03936399146914482,-1.0009006261825562,-0.1099325641989708,-0.26948845386505127,-0.2461153119802475,30.416963577270508,-8.443965911865234,39.9695930480957,0
576,5759880,-0.010409228503704071,0.057121116667985916,-0.9860547780990601,-0.5070231556892395,-0.3434067368507385,-0.6259974837303162,29.656587600708008,-10.202932357788086,40.29732894897461,0
577,5770040,0.060574721544981,-0.05249004811048508,-1.006443977355957,0.32468077540397644,0.2974947392940521,0.22110630571842194,28.97357940673828,-11.737100601196289,41.35306167602539,0
578,5779917,0.03558426722884178,-0.06987625360488892,-1.0111900568008423,0.4767025411128998,0.702562153339386,0.6962762475013733,30.574981689453125,-9.362079620361328,39.73208236694336,0
579,5790158,0.04180268943309784,0.01611297018826008,-0.9879746437072754,-0.7869142889976501,-0.33258306980133057,0.33101966977119446,29.971464157104492,-9.953289031982422,40.47746658325195,0
580,5799908,0.007391031831502914,0.07922017574310303,-1.0437517166137695,0.49369990825653076,-1.0526454448699951,-0.09412483125925064,28.95586395263672,-10.178853034973145,42.90708541870117,0
581,5809753,0.08077341318130493,0.04463211074471474,-0.978751540184021,-0.27307841181755066,-0.10101545602083206,0.571457028388977,30.435245513916016,-8.869239807128906,40.34462356567383,0
582,5819994,-0.02896144799888134,0.0038140127435326576,-1.0214606523513794,0.4863579571247101,0.3995981514453888,-0.208167165517807,30.17579460144043,-8.9845609664917,39.842735290527344,0
583,5829908,-0.11890164762735367,0.03846587985754013,-1.0064058303833008,0.7316209077835083,-0.6323954463005066,-0.19344541430473328,30.054550170898438,-9.167706489562988,39.5126953125,0
584,5840169,0.09497274458408356,-0.07524119317531586,-0.9693043231964111,0.28791525959968567,0.24124573171138763,-0.12521223723888397,32.218143463134766,-9.964561462402344,39.13080596923828,0
585,5850195,0.05545194447040558,-0.04777231067419052,-0.984772264957428,-0.18897387385368347,0.011503191664814949,0.07249462604522705,28.66651153564453,-9.45379638671875,39.13934326171875,0
586,5860127,-0.004042748361825943,0.007444064598530531,-0.9735909700393677,-0.20329788327217102,-0.2251000702381134,-0.08764224499464035,30.27698516845703,-10.671784400939941,41.097930908203125,0
587,5869936,-0.05432271212339401,0.0010586443822830915,-1.0014901161193848,0.9700343608856201,0.02032160572707653,-0.26500582695007324,28.119548797607422,-12.139601707458496,40.84819030761719,0
588,5880108,0.01951008290052414,0.10687538981437683,-1.0413789749145508,-0.9097037315368652,0.19495879113674164,-0.9953651428222656,29.972675323486328,-10.33187198638916,40.59505844116211,0
589,5889803,0.04567798972129822,0.005357357207685709,-1.0282862186431885,0.15020930767059326,-0.041592806577682495,0.2731533348560333,29.799144744873047,-11.959668159484863,39.650943756103516,0
590,5900290,-0.09547803550958633,-0.02648027427494526,-1.0060926675796509,0.6734358668327332,0.27668657898902893,-0.0806550607085228,30.243900299072266,-9.954817771911621,39.659793853759766,0
591,5909952,-0.02421758882701397,0.10601767152547836,-1.0108610391616821,-0.23186028003692627,-0.0919785350561142,0.6479399800300598,30.96799087524414,-8.569071769714355,40.03228759765625,0
592,5919887,-0.0632578507065773,-0.013458828441798687,-1.04749596118927,-0.20021405816078186,0.057267941534519196,0.7907414436340332,29.42230987548828,-10.161171913146973,40.31523513793945,0
593,5930111,-0.07485242187976837,-0.013973007909953594,-0.9782596826553345,-1.5692967176437378,-0.056809961795806885,0.3715270161628723,30.60708236694336,-9.803760528564453,39.198944091796875,0
594,5939901,0.0760071650147438,0.03636806458234787,-0.9814578294754028,0.21809685230255127,0.8681466579437256,-0.5445218086242676,27.90850257873535,-9.895855903625488,40.1325569152832,0
595,5950167,-0.11191903799772263,0.01133633404970169,-1.0023219585418701,0.3364403247833252,0.6291326880455017,0.41705864667892456,30.551851272583008,-10.198285102844238,39.94893264770508,0
596,5959653,-0.04374375939369202,-0.012822163291275501,-1.0189552307128906,-0.1602122187614441,0.16456161439418793,-0.4696155786514282,29.151140213012695,-9.674629211425781,41.175025939941406,0
597,5970124,0.025118838995695114,0.02777981385588646,-0.9649452567100525,0.2248777449131012,-0.10447590053081512,0.6265459060668945,28.915611267089844,-9.10641860961914,40.938724517822266,0
598,5979772,0.0011897088261321187,-0.03195597603917122,-1.010535717010498,0.9985477328300476,-0.804252564907074,-0.20888687670230865,29.98737335205078,-10.039692878723145,40.2014045715332,0
599,5989806,-0.04667028412222862,0.06794402003288269,-0.9921032190322876,0.27615299820899963,-0.5479662418365479,-0.7564225196838379,31.474590301513672,-10.21866226196289,39.722145080566406,0
600,6000261,-0.00806534942239523,0.09109172224998474,-0.9867323040962219,1.2477648258209229,0.5373101830482483,-0.310753732919693,29.012210845947266,-9.48754596710205,39.829925537109375,0
601,6010071,-0.011254220269620419,0.05560740828514099,-1.0226058959960938,0.3503262996673584,-0.13248108327388763,-0.222051739692688,30.628751754760742,-9.230317115783691,40.57987976074219,0
602,6019954,-0.05177168548107147,-0.031012577936053276,-0.9972667694091797,-0.755666196346283,-0.14160236716270447,1.7468873262405396,29.57413673400879,-9.772236824035645,39.4356803894043,0
603,6029936,0.004526850301772356,0.02000923454761505,-0.9720945358276367,0.051298171281814575,1.2733315229415894,0.7756343483924866,31.16593360900879,-9.27629566192627,40.31285095214844,0
604,6039993,0.008704956620931625,0.01242668367922306,-0.9892573952674866,-0.29270777106285095,-0.02650114893913269,0.457501083612442,31.139066696166992,-8.977056503295898,39.2451057434082,0
605,6049909,0.04452148824930191,0.03275953233242035,-1.0110234022140503,0.051019877195358276,-0.020347315818071365,0.42494526505470276,28.920072555541992,-9.732653617858887,40.9841194152832,0
606,6060036,-0.049067236483097076,0.022200070321559906,-1.0597153902053833,0.03353205695748329,0.7266604900360107,0.1640588641166687,32.392127990722656,-10.2200288772583,39.60013198852539,0
607,6069976,0.021760975942015648,-0.009936039336025715,-1.0150995254516602,1.0676037073135376,-0.33518683910369873,0.026287391781806946,29.06332778930664,-9.816617012023926,40.35685348510742,0
608,6080018,-0.05848764255642891,0.022830137982964516,-1.005463719367981,-0.06570804119110107,-0.2141718864440918,-1.1820148229599,30.675464630126953,-9.075838088989258,38.864341735839844,0
609,6090102,0.07952359318733215,-0.012809731997549534,-1.0232727527618408,-0.14159734547138214,-0.40742549300193787,-0.052528321743011475,30.317745208740234,-9.987290382385254,39.09128952026367,0
610,6099865,0.013453351333737373,-0.03517526760697365,-1.000983476638794,-0.33158794045448303,-1.0498132705688477,0.6920666098594666,30.347148895263672,-11.53825855255127,40.12843322753906,0
611,6109851,-0.004179897718131542,-0.046167511492967606,-1.0294318199157715,-0.27961835265159607,-0.4955533444881439,0.09089489281177521,28.763427734375,-9.26037311553955,38.5687141418457,0
612,6120197,-0.08336001634597778,0.07658708840608597,-1.0097222328186035,-0.4297591745853424,0.4037456810474396,-0.1785118132829666,28.184144973754883,-8.238256454467773,41.18645095825195,0
613,6130035,-0.061351191252470016,0.0628478154540062,-0.9944026470184326,1.3791505098342896,0.528497040271759,0.6004176139831543,29.16322135925293,-11.123052597045898,40.29441833496094,0
614,6140040,-0.04173007234930992,-0.011449094861745834,-1.0170258283615112,-0.4700442850589752,0.5897080302238464,0.2703274190425873,28.604843139648438,-10.563983917236328,39.38801574707031,0
615,6150001,-0.02899087592959404,0.10204163938760757,-1.0175071954727173,-0.8805414438247681,0.026623038575053215,-0.10007337480783463,29.672840118408203,-10.78384017944336,38.9586296081543,0
616,6159766,-0.0013841739855706692,-0.013853365555405617,-1.01597261428833,-0.16812042891979218,-0.30516788363456726,-0.03684445470571518,30.209346771240234,-10.247669219970703,39.89627456665039,0
617,6170096,0.005656728520989418,-0.0840916559100151,-1.0099382400512695,-0.037899136543273926,0.08880659937858582,-0.014643386006355286,28.411897659301758,-8.816051483154297,40.361934661865234,0
618,6180027,0.07353417575359344,-0.036432065069675446,-1.0107011795043945,0.06004012003540993,-0.25879669189453125,-0.16006936132907867,28.301307678222656,-9.819778442382812,41.49665451049805,0
619,6190038,-0.03570523485541344,0.06743423640727997,-0.9841840267181396,0.2329554557800293,-1.1144288778305054,-0.37331825494766235,31.144874572753906,-8.973917007446289,41.0744743347168,0
620,6200044,-0.03615223243832588,0.07951710373163223,-1.0416722297668457,-0.7530331015586853,0.9711198210716248,-0.02697683311998844,28.855348587036133,-8.660715103149414,41.115028381347656,0
621,6210093,0.037474315613508224,0.07216791808605194,-0.9715547561645508,-0.8134743571281433,-0.6811031699180603,-0.0671062245965004,30.55948257446289,-9.227914810180664,40.351417541503906,0
622,6219803,-0.016072146594524384,0.04504048079252243,-1.0172395706176758,-0.007489181589335203,1.113188624382019,0.03739829361438751,32.95196533203125,-10.341691970825195,39.567562103271484,0
623,6229819,-0.10094979405403137,0.05545338615775108,-0.9749558568000793,-0.9648276567459106,0.5374673008918762,-0.9862222075462341,28.023488998413086,-9.512584686279297,40.55380630493164,0
624,6239948,0.10868268460035324,0.09401530027389526,-0.9765072464942932,-0.8514620065689087,-0.22060708701610565,-0.5042831301689148,29.582441329956055,-7.267335414886475,40.66569519042969,0
625,6250122,0.053349319845438004,-0.0763949453830719,-0.9838538765907288,0.9939785003662109,-0.03599685803055763,1.1574686765670776,28.770137786865234,-9.806817054748535,40.80936050415039,0
626,6260068,-0.026975633576512337,-0.026655975729227066,-0.9733640551567078,0.5007457733154297,-0.02961733750998974,-0.649209201335907,28.7181339263916,-10.697576522827148,41.13017272949219,0
