seq,time_us,ax,ay,az,gx,gy,gz,mx,my,mz,drop_flag
0,60,-0.01846214011311531,-0.06860057264566422,-0.9926698803901672,-0.03800530359148979,0.42428845167160034,0.21067483723163605,29.880725860595703,-9.401912689208984,40.277259826660156,0
1,9926,-0.0530729778110981,-0.09959211945533752,-1.029205322265625,-0.19878311455249786,-0.7804510593414307,0.26101595163345337,32.673160552978516,-8.36269760131836,39.57759094238281,0
2,19956,-0.10056590288877487,0.03191762417554855,-0.9890558123588562,0.15174588561058044,-0.47785213589668274,-0.3084067702293396,29.97576332092285,-10.89979362487793,40.49385452270508,0
3,30153,-0.040063340216875076,-0.09623274207115173,-0.9869178533554077,-0.5077671408653259,0.12786433100700378,0.6853115558624268,29.78998374938965,-11.1460599899292,40.951683044433594,0
4,39948,0.02750958502292633,-0.01592206209897995,-0.9979625940322876,0.0051075853407382965,-0.21205934882164001,0.2624879479408264,30.360261917114258,-10.534018516540527,40.343082427978516,0
5,50251,0.04113072529435158,0.09007156640291214,-0.9720386862754822,-0.43077516555786133,-0.8137105107307434,-0.0182049497961998,31.519817352294922,-8.924972534179688,41.758544921875,0
6,60115,-0.09889102727174759,-0.0029200029093772173,-0.9685325622558594,0.7189319729804993,0.6334128975868225,0.2845717668533325,29.47600746154785,-9.81761646270752,41.87424087524414,0
7,69846,0.03160145506262779,0.037165019661188126,-1.0110589265823364,-0.6938487887382507,0.18015262484550476,0.34009602665901184,29.444854736328125,-10.152383804321289,40.058677673339844,0
8,80151,0.046986013650894165,-0.008683910593390465,-0.9967511892318726,-0.40027472376823425,0.11953821778297424,-0.4779026508331299,28.854915618896484,-10.098302841186523,38.659950256347656,0
9,90188,0.020894283428788185,0.016481773927807808,-0.9712619185447693,0.04417119547724724,0.40170755982398987,-0.5417829155921936,29.46000099182129,-11.073801040649414,40.282955169677734,0
10,100280,0.07453504204750061,0.02834196202456951,-0.987703800201416,-0.0020509720779955387,0.3465999662876129,-0.009610128588974476,28.40663719177246,-8.942228317260742,39.53162384033203,0
11,110022,0.018929028883576393,-0.00488669378682971,-0.9979894161224365,-0.7667295932769775,-0.16592980921268463,-0.9293273687362671,31.04013442993164,-9.573076248168945,39.7706413269043,0
12,119999,-0.06842223554849625,0.004562309943139553,-0.990483820438385,0.5838084816932678,0.06956895440816879,-0.29518112540245056,30.5535888671875,-10.828950881958008,41.5059700012207,0
13,130005,0.018754566088318825,0.03351956978440285,-0.9731549620628357,-0.4129554331302643,0.08703013509511948,-0.9650863409042358,30.33952522277832,-9.599380493164062,40.374019622802734,0
14,140071,-0.008228704333305359,-0.01061614416539669,-0.9891606569290161,-0.11839337646961212,0.35520538687705994,0.36658838391304016,31.015430450439453,-10.677938461303711,38.38935852050781,0
15,149995,0.02306775003671646,-0.021951474249362946,-0.9782448410987854,0.0562957301735878,-0.36475419998168945,-0.3958278000354767,27.834604263305664,-11.059027671813965,39.39219665527344,0
16,160132,0.06729484349489212,-0.00420277938246727,-0.9752169251441956,0.3484484851360321,-0.5258117318153381,0.7730278372764587,31.669055938720703,-7.9351701736450195,38.33601379394531,0
17,170051,0.10514752566814423,-0.05677963048219681,-1.0241128206253052,-0.46187856793403625,0.33892011642456055,0.42782607674598694,28.99540901184082,-10.098678588867188,40.619842529296875,0
18,180196,0.016500312834978104,-0.02067561075091362,-1.0017266273498535,0.0797613114118576,0.7357521057128906,-1.1952126026153564,30.96215057373047,-10.760807037353516,40.72683334350586,0
19,190062,0.024267222732305527,0.044586181640625,-0.9750021696090698,-0.7795724272727966,0.06657031178474426,-0.872647762298584,29.559402465820312,-9.498355865478516,42.06745910644531,0
20,200218,0.018681030720472336,0.002236094791442156,-1.0281614065170288,-0.3408087193965912,-0.949104905128479,0.46291056275367737,31.540433883666992,-9.500654220581055,39.85792541503906,0
21,209897,-0.016401538625359535,-0.017234472557902336,-1.0046461820602417,0.8286646604537964,0.24620917439460754,0.5681957602500916,30.1261043548584,-9.584708213806152,38.967376708984375,0
22,220389,-0.0628930851817131,0.07403961569070816,-0.9914436936378479,-0.1659727692604065,0.6537416577339172,-0.8923836350440979,30.416179656982422,-9.554572105407715,39.93996047973633,0
23,230310,0.02584804967045784,-0.08820391446352005,-1.014589786529541,0.24710112810134888,-0.5235942602157593,0.3203590512275696,30.238697052001953,-7.30605411529541,39.323062896728516,0
24,240494,0.013429556041955948,0.039504874497652054,-0.9649038314819336,-0.12811952829360962,-0.49181613326072693,0.11680921167135239,28.15129280090332,-9.938785552978516,39.373077392578125,0
25,249960,-0.02178630232810974,0.04010838642716408,-0.9856200218200684,-0.7634336948394775,0.10554305464029312,-0.702522873878479,27.727262496948242,-10.4235200881958,41.774436950683594,0
26,260141,0.03277016058564186,0.011944642290472984,-1.013564944267273,0.022930633276700974,-0.9906054735183716,0.6506679058074951,30.674882888793945,-8.237222671508789,40.083412170410156,0
27,270105,0.04063691943883896,0.053875632584095,-0.9996958374977112,0.12417925149202347,0.07352472841739655,0.20393165946006775,30.81909942626953,-10.26472282409668,39.86492156982422,0
28,279815,0.08998995274305344,0.003915316425263882,-0.9951954483985901,0.14920063316822052,0.07893774658441544,0.2712586224079132,30.408910751342773,-8.565584182739258,40.92583465576172,0
29,289939,-0.024814758449792862,-0.03693639114499092,-0.9532005190849304,0.06661991029977798,-0.34906259179115295,-0.6332786679267883,30.50538444519043,-10.594691276550293,39.464317321777344,0
30,300093,-0.03960762545466423,-0.01909562572836876,-1.065386414527893,0.41656264662742615,-0.4209766387939453,-0.16401700675487518,30.770483016967773,-11.285401344299316,40.99228286743164,0
31,310084,0.05702288821339607,-0.03625793755054474,-0.987909197807312,-0.023980842903256416,0.09347367286682129,0.5597344040870667,31.801076889038086,-9.39895248413086,38.320247650146484,0
32,320096,-0.007416288834065199,-0.005853944458067417,-0.9906091690063477,-0.82576584815979,0.17295600473880768,0.00998469814658165,30.9064998626709,-10.346343994140625,38.88102340698242,0
33,330239,0.11936995387077332,0.03544313833117485,-1.0100903511047363,-0.6994084715843201,-0.013363064266741276,0.6917429566383362,28.278024673461914,-11.749591827392578,40.196834564208984,0
34,340049,0.004989794455468655,-0.08984475582838058,-0.9886209964752197,-0.18919096887111664,0.4006718695163727,0.301456481218338,30.17292022705078,-9.555559158325195,39.53634262084961,0
35,350172,-0.09328743815422058,-0.020598843693733215,-1.0012545585632324,-0.5067498683929443,0.6044260263442993,-0.3467111587524414,30.009897232055664,-9.91884994506836,40.972434997558594,0
36,360155,-0.11466742306947708,-0.026762522757053375,-0.9864411354064941,-0.0007450719713233411,0.3378891944885254,0.43680471181869507,29.401960372924805,-11.279265403747559,40.14418029785156,0
37,369918,-0.07790922373533249,0.005672125611454248,-0.999266505241394,0.35902515053749084,-0.15255342423915863,0.14099034667015076,32.01638412475586,-8.274681091308594,38.75259017944336,0
38,379904,0.004272852558642626,-0.054807864129543304,-0.9681051969528198,-0.2870355248451233,-0.9694084525108337,0.9178221225738525,29.678871154785156,-10.684404373168945,39.591285705566406,0
39,389766,-0.025659779086709023,-0.14585699141025543,-1.001090168952942,-0.9582098126411438,-0.37042322754859924,-1.2145109176635742,29.38756561279297,-11.478050231933594,38.17702865600586,0
40,399887,0.0917801558971405,0.03769214078783989,-0.9769439697265625,0.1630764752626419,0.3901459872722626,-0.304699569940567,28.660160064697266,-9.724555969238281,41.161434173583984,0
41,409986,-0.04990937560796738,-0.0433594286441803,-0.976111888885498,-0.5619233250617981,-0.5874084234237671,-0.7215767502784729,30.320331573486328,-11.170414924621582,41.04933547973633,0
42,419872,0.011685626581311226,-0.03981230780482292,-0.9989932775497437,-0.09905467182397842,0.17589214444160461,-0.24959489703178406,30.986169815063477,-10.239095687866211,40.35892868041992,0
43,430088,0.013827805407345295,-0.01577894762158394,-1.0131199359893799,-0.21313533186912537,0.3809077739715576,0.5740007162094116,29.125459671020508,-10.990221977233887,39.85232162475586,0
44,439790,0.11295978724956512,0.05807498097419739,-0.9982661008834839,0.7885947227478027,-0.010304479859769344,0.3147483766078949,30.241180419921875,-10.805374145507812,39.78086471557617,0
45,450256,0.04165917634963989,0.0018993400735780597,-1.0209981203079224,-0.7897008061408997,-0.13433711230754852,0.33868128061294556,29.492536544799805,-13.087056159973145,39.615814208984375,0
46,460192,0.04854223132133484,-0.0353902168571949,-1.0108531713485718,-0.742713987827301,-0.42418336868286133,0.11485069990158081,30.215309143066406,-8.626924514770508,39.99721908569336,0
47,470134,0.05271616205573082,0.013888631947338581,-0.996471643447876,-0.25385603308677673,0.8651590943336487,0.47622939944267273,28.07500457763672,-9.246801376342773,38.45696258544922,0
48,479806,0.046427588909864426,-0.07343767583370209,-1.0212136507034302,-0.05341016873717308,0.5440163016319275,-0.34995320439338684,29.141328811645508,-9.877273559570312,39.68407440185547,0
49,490141,0.05831693857908249,0.00020642565505113453,-1.0061089992523193,-1.2027862071990967,-1.2020456790924072,-0.4667668640613556,30.45830726623535,-9.609308242797852,40.6547966003418,0
50,500076,-0.047798704355955124,-0.02010994777083397,-0.9790354371070862,-0.0761006623506546,-0.14982172846794128,-0.8532387614250183,29.801794052124023,-10.566999435424805,41.89542770385742,0
51,509874,-0.0651613101363182,0.04522450640797615,-1.0206369161605835,-0.10960590839385986,-0.2825014889240265,0.2944389283657074,31.142337799072266,-8.879024505615234,38.249122619628906,0
52,520179,-0.0007610569009557366,0.05068400874733925,-0.9941326975822449,0.6094976663589478,-0.5347234010696411,-0.09055910259485245,31.316051483154297,-11.26308822631836,38.267578125,0
53,529812,-0.06470953673124313,0.05168895050883293,-1.0086250305175781,0.057790398597717285,-0.5276757478713989,0.6053577065467834,30.68701934814453,-9.579216957092285,38.991363525390625,0
54,540285,0.015153502114117146,0.012364140711724758,-1.0125892162322998,-0.8086796402931213,0.1020841971039772,-0.009545191191136837,30.685516357421875,-10.481144905090332,38.22654342651367,0
55,549973,0.05161683261394501,-0.030020369216799736,-0.9948270320892334,-0.32098859548568726,-0.23091068863868713,-0.060987118631601334,30.207033157348633,-10.379335403442383,39.3482780456543,0
56,559892,-0.07469625025987625,0.070630744099617,-1.0206778049468994,0.3134843111038208,0.3218703269958496,0.44400909543037415,29.618408203125,-10.566054344177246,41.396148681640625,0
57,569975,0.0014200506266206503,0.06177084520459175,-0.9902960062026978,-0.21271036565303802,-0.3895849883556366,-0.22717750072479248,29.163393020629883,-10.085199356079102,41.60496139526367,0
58,579973,0.038770027458667755,0.0305266585201025,-1.0245561599731445,0.03253478929400444,0.46278879046440125,0.2615201473236084,28.698974609375,-10.43626880645752,42.00624465942383,0
59,590112,0.06787631660699844,-0.024382349103689194,-1.0044748783111572,0.17161576449871063,0.5898231863975525,0.014654511585831642,31.53715705871582,-10.779227256774902,39.323509216308594,0
60,599987,-0.021285993978381157,0.08902832120656967,-0.9726789593696594,-0.24751122295856476,0.7173967361450195,-0.2792213261127472,31.93290138244629,-9.153218269348145,37.23902130126953,0
61,609942,-0.07537233829498291,0.0380915068089962,-0.982474148273468,0.3203701078891754,0.09673352539539337,-0.34704679250717163,30.35966682434082,-10.952605247497559,41.43104553222656,0
62,620066,-0.09829986095428467,-0.0392235666513443,-1.0085179805755615,-0.8638818264007568,-0.46439117193222046,-0.08726049959659576,29.795732498168945,-10.39831256866455,39.763092041015625,0
63,629914,0.008792865090072155,-0.004557207692414522,-0.9776667356491089,-0.06271481513977051,0.6076328158378601,-0.2531557083129883,30.31866455078125,-11.433932304382324,41.037322998046875,0
64,639988,-0.008712493814527988,0.03714938461780548,-1.021402359008789,-0.18096251785755157,-0.07610757648944855,-0.4360348582267761,29.758583068847656,-10.823626518249512,38.50338363647461,0
65,650102,0.029537159949541092,0.02262062206864357,-0.9942411780357361,0.43459826707839966,0.7984271049499512,0.8366185426712036,30.795185089111328,-9.95244312286377,39.79771423339844,0
66,660161,0.01425535324960947,0.03889603167772293,-1.022828221321106,0.38097861409187317,0.5194389224052429,0.6349561214447021,30.699352264404297,-10.255868911743164,38.705875396728516,0
67,670085,0.04280737042427063,0.027665749192237854,-0.975318431854248,-0.4786972105503082,-0.33894625306129456,0.08705803006887436,30.74390983581543,-9.795858383178711,40.59358596801758,0
68,679889,-0.0415852926671505,-0.052198342978954315,-1.0004570484161377,-0.6658070087432861,0.010064568370580673,0.15078409016132355,30.503204345703125,-9.976001739501953,41.534786224365234,0
69,690146,0.07737341523170471,0.026325685903429985,-0.9753581881523132,0.23345394432544708,-0.06022822484374046,0.37823280692100525,29.676298141479492,-10.730428695678711,38.980247497558594,0
70,700089,0.07142949104309082,-0.04253455996513367,-1.004774808883667,0.11772668361663818,0.45627668499946594,-0.18684197962284088,28.355939865112305,-10.636490821838379,39.66938781738281,0
71,710009,-0.03792262077331543,0.0003598537005018443,-1.0335445404052734,-0.494027316570282,0.5197476744651794,-0.10018455237150192,29.239147186279297,-8.810750961303711,40.127262115478516,0
72,719919,0.05284890532493591,0.10950139909982681,-0.9786575436592102,-0.5427922010421753,-0.137036994099617,-0.26159730553627014,31.14289665222168,-10.207103729248047,39.142459869384766,0
73,730000,-0.06400115042924881,-0.01221560686826706,-0.9834433794021606,0.34183165431022644,1.0108964443206787,-0.5787824988365173,30.526687622070312,-10.89833927154541,41.31110382080078,0
74,740357,0.017339861020445824,0.02820466086268425,-0.978159487247467,-0.7298150658607483,1.0413728952407837,0.2417135089635849,29.649288177490234,-9.940759658813477,39.25720977783203,0
75,749807,-0.05855788290500641,-0.02647531032562256,-0.9800127744674683,0.42321258783340454,0.5560325980186462,-0.25533610582351685,29.509891510009766,-11.295577049255371,38.96367645263672,0
76,760190,0.03635052591562271,-0.05718522518873215,-0.9761107563972473,0.7366697788238525,-0.790234386920929,0.4246685206890106,30.700908660888672,-8.055996894836426,38.89631652832031,0
77,770316,-0.07547412812709808,0.019034162163734436,-1.0179036855697632,-0.23759832978248596,-0.051591187715530396,0.12930965423583984,28.779985427856445,-10.285943984985352,41.26704788208008,0
78,779890,0.01539845671504736,0.05243039131164551,-0.984133243560791,-0.33792370557785034,0.4578710198402405,-0.07275816053152084,30.750070571899414,-11.078317642211914,40.8237419128418,0
79,790061,-0.010818349197506905,0.019296374171972275,-0.99251389503479,0.020935673266649246,-0.1378381997346878,-0.33420997858047485,29.212738037109375,-9.871316909790039,38.64799118041992,0
80,800038,-0.013759737834334373,-0.10365456342697144,-1.0010266304016113,-0.364018052816391,-0.21900063753128052,-0.38780632615089417,30.389442443847656,-11.499822616577148,38.44355773925781,0
81,809919,-0.07524437457323074,-0.060115087777376175,-1.0035969018936157,-0.5776357650756836,-0.4667447507381439,0.06991264969110489,30.335432052612305,-10.327339172363281,40.369300842285156,0
82,819975,0.09872465580701828,-0.05371393635869026,-1.0144788026809692,-0.26347583532333374,-1.0843008756637573,0.16125665605068207,30.949872970581055,-8.221663475036621,40.27147674560547,0
83,829853,-0.06090603396296501,0.0625552237033844,-0.9990120530128479,-1.3784961700439453,0.27313530445098877,0.34560489654541016,29.6605167388916,-10.654897689819336,39.26816177368164,0
84,840187,0.05260666832327843,-0.05032046511769295,-1.0093724727630615,-0.5911607146263123,-0.12721844017505646,0.009780422784388065,30.142683029174805,-10.144380569458008,40.529685974121094,0
85,850100,-0.020514020696282387,-0.057004135102033615,-1.0194098949432373,0.9064274430274963,-0.4106956422328949,0.2762550413608551,30.341306686401367,-9.113856315612793,40.27499008178711,0
86,860008,-0.05897852033376694,0.0924607589840889,-0.9921123385429382,0.28261798620224,-0.25616249442100525,-0.24512836337089539,31.33108901977539,-8.864864349365234,41.00921630859375,0
87,870000,-0.03363437205553055,-0.012564586475491524,-0.9951637387275696,0.45111286640167236,0.03938334435224533,-0.6232109069824219,31.344348907470703,-10.803335189819336,41.17949676513672,0
88,879783,-0.022246839478611946,0.09464884549379349,-1.0057796239852905,-0.2613263726234436,-0.06715815514326096,-0.5692715644836426,29.858022689819336,-8.327274322509766,39.57386016845703,0
89,890091,0.04228537529706955,0.03336048498749733,-1.02847158908844,0.8973484039306641,0.8985577821731567,0.593567430973053,29.2398624420166,-9.444169044494629,41.753719329833984,0
90,899859,0.06496915966272354,-0.047975946217775345,-1.0082306861877441,-0.18140575289726257,-0.16674649715423584,-0.7492784857749939,31.28740882873535,-12.248181343078613,40.62898254394531,0
91,909844,0.008715394884347916,0.03471006825566292,-1.0196229219436646,0.2630748748779297,0.6510576605796814,0.22338779270648956,31.232717514038086,-10.253414154052734,39.12517166137695,0
92,920146,0.027982648462057114,0.014331093989312649,-0.9953901767730713,0.44139549136161804,-0.13027898967266083,-0.2916468679904938,31.575233459472656,-10.516783714294434,38.23748779296875,0
93,929932,-0.006871928460896015,-0.0443774051964283,-0.9778024554252625,-0.36687180399894714,-0.11549700051546097,0.25828659534454346,30.042709350585938,-10.569499969482422,38.46451950073242,0
94,939826,0.05910646542906761,-0.1036527156829834,-1.0053379535675049,0.053953178226947784,0.5739376544952393,0.5696953535079956,28.618877410888672,-10.316561698913574,39.58161544799805,0
95,949991,0.004874442238360643,-0.012162706814706326,-1.0096489191055298,-0.37963247299194336,0.4394294321537018,1.163170576095581,28.985549926757812,-9.716692924499512,39.408424377441406,0
96,959866,-0.012302021495997906,0.01467391662299633,-0.9893513917922974,-0.4524763822555542,0.20226174592971802,-0.6041615009307861,27.81426239013672,-8.47808837890625,39.56648254394531,0
97,970208,0.02148159220814705,0.033399198204278946,-0.9657992124557495,0.9922756552696228,-0.4393102526664734,-1.0811645984649658,30.528759002685547,-9.432049751281738,40.09667205810547,0
98,980201,0.03636813908815384,0.10394997894763947,-0.9959053993225098,-0.18770793080329895,0.6301308870315552,-0.2518351674079895,28.257797241210938,-10.74637508392334,39.0435905456543,0
99,989993,-0.04310078173875809,0.0009684040560387075,-0.9742549657821655,0.7752740979194641,0.15694522857666016,-0.3314609229564667,31.620437622070312,-11.490900993347168,40.25938034057617,0
100,999922,0.02451319992542267,0.00675729475915432,-1.020305871963501,-0.6580145359039307,0.4614408612251282,-0.521304190158844,29.845195770263672,-9.076486587524414,40.41863250732422,0
101,1009986,0.030443932861089706,-0.01647551730275154,-0.9799309372901917,0.22826699912548065,0.20464113354682922,1.0192428827285767,31.757946014404297,-9.72227954864502,41.490413665771484,0
102,1019895,0.009713619947433472,0.06117293983697891,-0.9815167784690857,-0.10720031708478928,0.39122623205184937,-0.6620334386825562,31.222307205200195,-9.931483268737793,38.60279846191406,0
103,1030035,-0.016235727816820145,0.031505193561315536,-0.9904119968414307,-0.30771559476852417,-0.1772165447473526,0.824981689453125,29.84688377380371,-9.639570236206055,40.73418426513672,0
104,1040152,-0.0021973527036607265,0.028431158512830734,-1.014669418334961,-0.8465499877929688,0.4715862572193146,-0.14336290955543518,29.905643463134766,-10.690285682678223,39.39771270751953,0
105,1049789,-0.06279698014259338,-0.03882986307144165,-0.9891976118087769,0.13439366221427917,0.24192361533641815,-0.08288481086492538,30.981536865234375,-10.555290222167969,37.967811584472656,0
106,1060055,0.06607873737812042,0.047605421394109726,-1.0206128358840942,0.7329934239387512,-0.011550446040928364,0.7835059762001038,29.901620864868164,-9.099998474121094,39.91152572631836,0
107,1070337,0.0426671989262104,0.024113425984978676,-1.0341562032699585,-0.1963425725698471,0.9417797923088074,-0.49572479724884033,28.76038360595703,-9.820194244384766,40.81051254272461,0
108,1080066,0.013932501897215843,-0.08410393446683884,-0.9966807961463928,0.6218831539154053,0.1579357087612152,-0.5807891488075256,29.075084686279297,-9.856348991394043,40.83893966674805,0
109,1089980,-0.043410707265138626,0.0230825487524271,-1.0073693990707397,0.07498053461313248,0.039853837341070175,-1.7481508255004883,29.114227294921875,-9.598617553710938,40.56924057006836,0
110,1099823,-0.005253538955003023,-0.029896585270762444,-0.9808453917503357,0.8636412024497986,-0.4945983290672302,0.11634552478790283,29.903812408447266,-10.440608024597168,39.40359878540039,0
111,1110128,-0.04254118725657463,0.07286403328180313,-1.0003447532653809,-0.2562379539012909,0.01852441392838955,0.46131443977355957,31.206279754638672,-10.194087982177734,40.470497131347656,0
112,1120000,-0.04214661568403244,-0.01822221837937832,-1.012713074684143,0.11118575185537338,-0.16227564215660095,0.0649266242980957,29.546493530273438,-8.637494087219238,39.856990814208984,0
113,1129818,-0.09637244790792465,0.0009230406139977276,-0.9935923218727112,-0.10284299403429031,0.7387263774871826,-0.5870417356491089,31.98259925842285,-10.63333797454834,41.0834846496582,0
114,1140076,0.01661008410155773,0.033912498503923416,-1.0072828531265259,-0.6225975751876831,0.405400812625885,-0.31184765696525574,29.69858741760254,-11.660517692565918,39.44168472290039,0
115,1149994,0.022328810766339302,0.006488928571343422,-0.972219705581665,0.29940345883369446,1.069761872291565,0.3676852583885193,29.282943725585938,-8.972103118896484,41.52456283569336,0
116,1160000,-0.05814212188124657,-0.013177127577364445,-1.0085359811782837,0.41259220242500305,0.03693012520670891,0.9144383072853088,30.142873764038086,-9.08903694152832,40.63102340698242,0
117,1169951,0.016735484823584557,0.045979034155607224,-1.005979299545288,-0.39220356941223145,-0.04807426780462265,-0.9435803890228271,29.177928924560547,-9.592320442199707,41.91362380981445,0
118,1180098,-0.03292699530720711,-0.06041790544986725,-0.9988254308700562,0.03292638808488846,-0.6887291669845581,-1.0251730680465698,29.7398681640625,-8.79529094696045,40.6781005859375,0
119,1189959,0.04173900932073593,-0.047630395740270615,-0.9913254380226135,0.1520577371120453,0.9770020842552185,0.12219850718975067,30.766950607299805,-11.115571022033691,39.776611328125,0
120,1199920,0.044848036020994186,-0.007449623662978411,-0.9967655539512634,0.6050024032592773,-0.11391163617372513,0.6604041457176208,29.76483154296875,-10.600774765014648,38.8287239074707,0
121,1209697,0.01735558919608593,0.040712662041187286,-1.0148957967758179,-0.21175652742385864,-0.40894171595573425,0.49315378069877625,30.042743682861328,-10.660619735717773,38.83842849731445,0
122,1220056,-0.010940521955490112,-0.05610723793506622,-1.0052025318145752,-0.12544475495815277,0.21630895137786865,-0.6379621028900146,30.880651473999023,-9.875685691833496,39.259132385253906,0
123,1229935,-0.09620202332735062,-0.05259808152914047,-1.0444716215133667,1.079172968864441,0.2710043489933014,-0.09998483210802078,30.231557846069336,-8.92373275756836,40.31074905395508,0
124,1239655,0.011043654754757881,0.024162892252206802,-0.981924831867218,0.8532447218894958,0.12020353972911835,-0.15363842248916626,30.418760299682617,-8.840188980102539,40.39902877807617,0
125,1250139,-0.00526540819555521,-0.00046104801003821194,-1.0044822692871094,0.5956547260284424,1.4436321258544922,0.1292237490415573,27.97348403930664,-9.40036392211914,40.02240753173828,0
126,1259871,0.05681867152452469,0.0009230630821548402,-1.023529291152954,-0.47051453590393066,-0.19949327409267426,-0.348610520362854,28.359262466430664,-10.757847785949707,39.890716552734375,0
127,1270012,-0.1001066267490387,-0.0713905543088913,-0.9863645434379578,-0.5845833420753479,0.133870929479599,0.8911334872245789,30.81073570251465,-10.375048637390137,40.97484588623047,0
128,1279846,-0.007703222334384918,-0.040060583502054214,-1.0184376239776611,-0.13188692927360535,-0.3575584888458252,0.2652091979980469,28.33651351928711,-9.353302955627441,39.15585708618164,0
129,1289807,-0.03707152605056763,-0.08714448660612106,-0.9907482862472534,-0.3106445372104645,0.1076727882027626,0.005014155525714159,29.91961097717285,-8.63233470916748,39.20807647705078,0
130,1300148,0.012810987420380116,-0.005763474851846695,-0.9948769211769104,0.16712060570716858,-0.06933925300836563,-0.602782130241394,29.210186004638672,-8.966980934143066,38.27207565307617,0
131,1309873,-0.016953514888882637,-0.02745264396071434,-0.9811863303184509,1.1375792026519775,0.18398486077785492,-0.09453469514846802,29.70062828063965,-11.290960311889648,40.42972946166992,0
132,1320281,-0.09691553562879562,-0.013537163846194744,-0.9435203671455383,-0.2792511284351349,0.266338974237442,0.7095129489898682,30.77031707763672,-10.717935562133789,39.06553268432617,0
133,1329948,-0.03369152545928955,0.12522484362125397,-1.0097585916519165,-0.6910218596458435,-0.0850425660610199,-0.14208489656448364,29.237201690673828,-10.960110664367676,39.08879852294922,0
134,1339986,-0.11136308312416077,0.046918608248233795,-1.00980806350708,-0.9266328811645508,-0.3878002166748047,-0.07109440118074417,32.585968017578125,-9.319890022277832,40.312400817871094,0
135,1350167,0.036893174052238464,0.07309024780988693,-0.9749031066894531,-0.04150889813899994,0.5859001874923706,0.3309280276298523,30.213685989379883,-12.402950286865234,41.613914489746094,0
136,1360140,-0.005091563332825899,-0.0027106008492410183,-0.958985447883606,-1.0478485822677612,-0.29158636927604675,1.1711225509643555,29.08590316772461,-10.800603866577148,39.01191711425781,0
137,1369762,-0.1011197417974472,0.007487600669264793,-1.0017893314361572,-0.649516224861145,0.0631803423166275,-0.21023088693618774,31.570167541503906,-10.062039375305176,39.303558349609375,0
138,1380166,-0.008068517781794071,0.08495627343654633,-0.9959084391593933,-0.18103188276290894,-0.2251269817352295,-0.714065432548523,28.918676376342773,-11.623361587524414,40.41647720336914,0
139,1389974,-0.03020438365638256,0.06919573247432709,-0.9660868644714355,0.4624720811843872,0.6693682670593262,-0.09607920795679092,28.832286834716797,-9.371337890625,42.357940673828125,0
140,1400072,0.003074133535847068,-0.012382528744637966,-1.0107026100158691,-0.758969783782959,0.578361988067627,0.21426261961460114,29.929092407226562,-10.045741081237793,40.247310638427734,0
141,1409817,-0.060354508459568024,-0.0030796367209404707,-1.0180385112762451,-0.31983402371406555,0.374078631401062,-0.09022711217403412,30.13865852355957,-9.779000282287598,39.57212448120117,0
142,1420040,0.036508709192276,-0.03650687262415886,-0.9994385242462158,-1.0220378637313843,-0.08335420489311218,0.08695792406797409,30.71938705444336,-9.906404495239258,40.1909294128418,0
143,1429926,-0.07100518047809601,0.033185772597789764,-1.0062917470932007,0.3735443353652954,-0.21853068470954895,0.018039369955658913,30.335845947265625,-6.863500118255615,40.95964050292969,0
144,1439873,-0.04688861593604088,-0.0012557036243379116,-0.9961367249488831,0.5256404280662537,-0.2366212010383606,0.12166211009025574,31.955902099609375,-8.670904159545898,40.08720779418945,0
145,1450153,-0.05600965768098831,-0.09172937273979187,-0.9914610981941223,-0.09850996732711792,-0.5688890218734741,-0.38087812066078186,29.1261043548584,-9.52294635772705,39.29405212402344,0
146,1459975,0.055972870439291,-0.07503840327262878,-0.9648410081863403,-0.3593125641345978,0.6405613422393799,0.5419996380805969,30.612895965576172,-9.357275009155273,38.380741119384766,0
147,1469917,-0.08216780424118042,-0.07599890232086182,-1.025950312614441,0.7435911297798157,-0.647793173789978,-0.0810789167881012,29.872224807739258,-11.334336280822754,39.50743865966797,0
148,1480131,-0.0539204403758049,0.05016525089740753,-0.999705970287323,0.27785569429397583,0.4164174795150757,-0.9986818432807922,29.20767593383789,-10.826783180236816,38.368385314941406,0
149,1489969,0.03514404222369194,0.028333082795143127,-1.0114924907684326,-0.6419175267219543,0.0017402853118255734,0.04053498059511185,29.498748779296875,-11.243694305419922,41.518348693847656,0
150,1499685,0.04527847096323967,-0.042605817317962646,-1.0094926357269287,-0.5383599400520325,0.5536811351776123,-0.13218820095062256,31.302465438842773,-8.713517189025879,41.152000427246094,0
151,1509867,-0.02205669693648815,0.06014527007937431,-1.0173816680908203,0.1817893534898758,0.07346933335065842,0.037536993622779846,30.706987380981445,-10.609186172485352,40.652400970458984,0
152,1519862,0.10221929103136063,0.07514376938343048,-1.0168204307556152,0.9650657773017883,-0.15972410142421722,0.41488659381866455,31.150821685791016,-10.518717765808105,41.35694122314453,0
153,1530122,0.06094539910554886,-0.005042769946157932,-0.9988315105438232,0.3784751892089844,-0.09517638385295868,-0.5935863852500916,29.303932189941406,-8.190851211547852,40.24858474731445,0
154,1540044,-0.03819969668984413,-0.027440322563052177,-0.9973458051681519,-0.13570642471313477,-0.15391123294830322,-0.033852118998765945,29.6619930267334,-9.632991790771484,40.26576614379883,0
155,1549498,-0.033480409532785416,-0.047117989510297775,-0.9797623157501221,-0.13821235299110413,0.4659213721752167,0.4503895044326782,32.159088134765625,-9.701004981994629,40.91071319580078,0
156,1560101,-0.0313558503985405,0.026214301586151123,-1.0121766328811646,0.5378985404968262,0.2037985622882843,0.6337404251098633,28.217037200927734,-8.934408187866211,41.07301712036133,0
157,1569859,0.02849828265607357,0.0018554029520601034,-0.9943587183952332,-0.8256762027740479,-0.7708914279937744,0.570881724357605,30.47178840637207,-9.053418159484863,40.86722183227539,0
158,1580035,0.0998440682888031,-0.040998201817274094,-1.0138007402420044,-0.14409558475017548,0.7493433952331543,0.8268560171127319,31.604726791381836,-9.806041717529297,39.83015060424805,0
159,1589848,-0.06534121930599213,0.03914959728717804,-1.035218358039856,0.08219143003225327,-0.6221227049827576,-0.25894495844841003,28.147003173828125,-9.662208557128906,40.393009185791016,0
160,1599846,0.026455309242010117,-0.006161956116557121,-1.0107520818710327,-0.0910440981388092,0.00019358877034392208,0.40750476717948914,30.016618728637695,-9.900918960571289,39.727622985839844,0
161,1610078,-0.052549853920936584,-0.011108803562819958,-0.9885089993476868,-0.1070333868265152,-0.24367791414260864,0.8189243674278259,29.521926879882812,-11.261563301086426,38.993309020996094,0
162,1620050,0.013623261824250221,-0.012820491567254066,-1.0129873752593994,-0.22332291305065155,-0.26852360367774963,-0.3714698553085327,30.433717727661133,-11.995218276977539,39.814002990722656,0
163,1629901,0.042862072587013245,-0.03562028706073761,-0.985213577747345,0.03462788090109825,0.1804945468902588,-0.5954439043998718,29.497413635253906,-8.92910385131836,39.080970764160156,0
164,1640030,0.09715613722801208,-0.033496007323265076,-0.9936750531196594,-0.12630200386047363,0.4204741418361664,1.0188044309616089,29.397052764892578,-10.572510719299316,38.438255310058594,0
165,1649940,0.06431131064891815,0.03162088245153427,-1.0010347366333008,0.20663224160671234,0.3484252691268921,0.6731070876121521,28.87172508239746,-9.912199974060059,40.96073913574219,0
166,1660183,-0.03309398889541626,0.0028123329393565655,-1.0581022500991821,0.19789686799049377,-0.022466763854026794,-0.44113001227378845,31.192960739135742,-10.551175117492676,39.93553924560547,0
167,1669910,0.09823350608348846,0.037344083189964294,-0.9991490840911865,-0.07605526596307755,-0.07888436317443848,-0.21810457110404968,29.575483322143555,-9.57032299041748,41.09986877441406,0
168,1680034,0.05785132944583893,-0.04998749867081642,-0.9745790958404541,-0.04107852652668953,0.0793205052614212,-0.2947295308113098,30.67926788330078,-11.291110038757324,41.04950714111328,0
169,1690062,-0.04315553233027458,0.05041757971048355,-0.9692631363868713,0.6533541679382324,-0.07811596244573593,0.24196256697177887,29.78193473815918,-10.020270347595215,40.25432205200195,0
170,1700155,-0.0004531006561592221,-0.03006732277572155,-1.0051419734954834,-0.5583303570747375,0.020504923537373543,0.08427637070417404,28.761873245239258,-10.638920783996582,40.90375518798828,0
171,1710013,0.035124272108078,0.03162599727511406,-1.0104337930679321,0.20438630878925323,-0.02288171462714672,0.14944365620613098,31.100263595581055,-9.155733108520508,40.34174728393555,0
172,1719826,0.008715334348380566,0.04849281162023544,-1.0438340902328491,0.20188134908676147,0.2594611942768097,-0.43115946650505066,30.64056968688965,-10.02432632446289,41.17728805541992,0
173,1730063,0.03239459916949272,0.015128783881664276,-0.9993606209754944,-0.7854140400886536,-0.19081220030784607,-0.04273616150021553,30.44900894165039,-10.562643051147461,40.750850677490234,0
174,1739790,-0.026656106114387512,0.06592897325754166,-0.9787502288818359,-0.7592505216598511,-0.7243595719337463,0.6283211708068848,30.436050415039062,-10.723599433898926,40.74151611328125,0
175,1750107,-0.05078037828207016,0.002128622028976679,-1.0076066255569458,0.5500605702400208,-0.36744236946105957,-0.7908994555473328,28.873226165771484,-10.714179992675781,40.742820739746094,0
176,1760023,-0.01500766072422266,0.00880077201873064,-0.9713008999824524,-0.255941241979599,-0.3093707859516144,0.10985351353883743,29.857187271118164,-10.94180679321289,39.62118148803711,0
177,1769902,-0.0005044726422056556,0.02417915128171444,-0.9978975653648376,0.3439532220363617,0.1341637820005417,-0.18573859333992004,27.44810676574707,-10.49974250793457,38.8896369934082,0
178,1780190,0.026430580765008926,-0.058468349277973175,-1.0039180517196655,-0.2243632674217224,-0.15798786282539368,-0.9805155992507935,30.591434478759766,-8.871482849121094,39.604793548583984,0
179,1789936,-0.025690723210573196,0.04182421416044235,-0.9816532135009766,0.5736923217773438,0.13542784750461578,0.9446436762809753,29.244144439697266,-11.77235221862793,39.56147384643555,0
180,1799892,0.012763090431690216,0.025294436141848564,-0.9393113851547241,-0.372532457113266,-0.12839604914188385,-0.43758267164230347,29.263938903808594,-11.371060371398926,40.8242301940918,0
181,1810207,0.09461705386638641,-0.009197311475872993,-1.017816424369812,-0.6637812852859497,-0.21253982186317444,0.13221295177936554,30.886381149291992,-9.042577743530273,40.450706481933594,0
182,1820072,-0.003699794877320528,-0.02061541937291622,-0.9997121691703796,-0.005207016132771969,0.11639753729104996,0.1632944941520691,30.477447509765625,-9.139047622680664,41.99393081665039,0
183,1830125,-0.0011403830721974373,-0.02322951890528202,-0.9901806712150574,-0.4310462772846222,0.08851948380470276,0.9243130683898926,30.52994155883789,-10.578089714050293,41.17660903930664,0
184,1840078,0.009241631254553795,-0.03810567781329155,-1.0099544525146484,0.41484224796295166,0.03463645279407501,0.3897503614425659,30.611942291259766,-10.477946281433105,40.28334045410156,0
185,1849850,-0.04761255905032158,0.0006159413023851812,-0.9895622730255127,-0.7430875897407532,-0.8973826169967651,1.1706993579864502,31.149633407592773,-9.517909049987793,39.954002380371094,0
186,1860013,-0.06587141752243042,0.025016356259584427,-1.0067530870437622,0.8853895664215088,-0.18719209730625153,-0.6501995325088501,30.176612854003906,-11.203194618225098,40.922340393066406,0
187,1870073,-0.0037313818465918303,-0.05112558975815773,-0.9531530737876892,-0.4325524866580963,-0.1926012933254242,0.10049181431531906,28.65827751159668,-11.075056076049805,40.300201416015625,0
188,1879988,0.10035993158817291,0.06915245950222015,-1.0147128105163574,0.7926362156867981,-0.2029675841331482,-0.8236520886421204,30.960176467895508,-9.291738510131836,39.19041061401367,0
189,1890120,0.009719524532556534,0.04182663559913635,-1.00650954246521,0.16103214025497437,-0.7093788981437683,-0.38271772861480713,30.672954559326172,-10.60317611694336,39.35121154785156,0
190,1900083,-0.024490872398018837,0.014795065857470036,-0.9962993264198303,0.1618504375219345,0.21037550270557404,-0.033560797572135925,32.997802734375,-9.35115909576416,39.53783416748047,0
191,1909944,-0.012616337276995182,-0.014697111211717129,-1.0152212381362915,0.3652780055999756,0.21374498307704926,-0.06557927280664444,31.27767562866211,-10.015711784362793,40.58082962036133,0
192,1920114,0.0747389867901802,-0.034004274755716324,-0.9805151224136353,0.08044064044952393,-0.03942689672112465,0.1825253665447235,29.14415168762207,-9.334782600402832,39.67027282714844,0
193,1930200,-0.03544240817427635,0.115536168217659,-0.9864695072174072,1.026109218597412,1.3243274688720703,0.7437982559204102,29.437673568725586,-9.798445701599121,38.5064697265625,0
194,1939827,-0.03330865502357483,-0.06669978052377701,-0.9997249245643616,-0.14202934503555298,-0.10558964312076569,-0.0077299149706959724,30.584566116333008,-9.012228965759277,39.650699615478516,0
195,1950053,-0.028229588642716408,-0.005918579176068306,-0.9761683940887451,0.6755006313323975,0.4771406948566437,0.0008783564553596079,31.065340042114258,-10.352567672729492,40.79417419433594,0
196,1959893,-0.024468347430229187,0.01738414727151394,-0.9725415110588074,-0.1476297825574875,0.23097798228263855,0.7649014592170715,29.342479705810547,-10.997318267822266,39.05974578857422,0
197,1970155,-0.05275291949510574,0.02328183315694332,-1.018067479133606,-0.31512558460235596,-1.1039323806762695,-0.6794176697731018,29.514028549194336,-10.360819816589355,39.21867370605469,0
198,1980059,-0.0547541119158268,-0.0038512609899044037,-0.99894779920578,-0.19635164737701416,0.2607804238796234,0.013768994249403477,30.90402603149414,-7.2826924324035645,40.26063919067383,0
199,1990167,0.08455289900302887,0.09555858373641968,-1.0148240327835083,0.7190333604812622,0.06955369561910629,0.2644060552120209,29.28801918029785,-9.535579681396484,38.54689407348633,0
200,1999993,0.035555098205804825,0.03565649315714836,-0.9786776304244995,0.17949853837490082,0.2510513365268707,-0.7884227633476257,28.98516273498535,-9.907516479492188,39.46957778930664,0
201,2009970,-0.05464741587638855,0.016278482973575592,-0.9887804388999939,0.23136340081691742,0.12962459027767181,-0.22460681200027466,29.57461166381836,-9.99862289428711,40.38838577270508,0
202,2019846,0.01667160540819168,0.01565665937960148,-0.9925044775009155,0.030739912763237953,0.7035050392150879,0.38755109906196594,27.970359802246094,-9.83594799041748,40.85594177246094,0
203,2030033,0.023027442395687103,-0.04440602287650108,-0.9666821956634521,-0.42112091183662415,-0.6636064052581787,0.24053996801376343,29.161720275878906,-9.530388832092285,40.301700592041016,0
204,2039859,0.006072612479329109,-0.029784616082906723,-0.9852854013442993,0.7877160310745239,0.3118025064468384,1.0193490982055664,31.08179473876953,-12.777318000793457,40.47372817993164,0
205,2050026,0.002124069258570671,-0.08048084378242493,-0.9810142517089844,-0.18605740368366241,0.5589742064476013,0.35149624943733215,29.3768253326416,-10.915827751159668,40.07943344116211,0
206,2060049,-0.04941345751285553,0.041823480278253555,-0.9587379097938538,-0.5291265249252319,0.035762567073106766,0.4838145077228546,30.24358558654785,-10.007072448730469,40.867462158203125,0
207,2069967,0.0002597002312541008,0.026956891641020775,-1.0025200843811035,-0.2902798652648926,-0.3823885917663574,-0.27107924222946167,29.601787567138672,-10.322844505310059,38.39756774902344,0
208,2079998,0.029135413467884064,-0.047428350895643234,-1.050485372543335,0.15934526920318604,-0.26578161120414734,-1.1823376417160034,29.769943237304688,-12.25735855102539,39.70441818237305,0
209,2089865,-0.05873435363173485,-0.0890289917588234,-0.9951263070106506,0.11493783444166183,0.758420467376709,-0.43470707535743713,30.087413787841797,-10.851679801940918,39.783077239990234,0
210,2099958,0.10563736408948898,0.04829395189881325,-0.9843655824661255,0.5416195392608643,-0.6513066291809082,0.19664867222309113,30.34971046447754,-8.855278968811035,40.28702163696289,0
211,2110033,-0.04979413375258446,0.1146041601896286,-1.0120019912719727,-0.698067307472229,0.262100487947464,0.05912841111421585,30.283639907836914,-8.769576072692871,39.76821517944336,0
212,2119513,0.05030201002955437,0.008407512679696083,-0.993819534778595,-0.1004929170012474,0.14953908324241638,-0.004071336705237627,27.637920379638672,-10.110822677612305,40.8148193359375,0
213,2129999,-0.007861229591071606,-0.05822063237428665,-1.015939712524414,-0.18293550610542297,-1.2290269136428833,-0.38169771432876587,29.98780632019043,-11.45939826965332,40.24345779418945,0
214,2139794,-0.033122628927230835,-0.01890427991747856,-0.9661606550216675,-0.30974122881889343,-0.33777791261672974,0.3676050305366516,30.85929298400879,-8.795531272888184,40.04568099975586,0
215,2149922,-0.07865791767835617,0.011341814883053303,-0.9827048182487488,-1.2710965871810913,0.9309137463569641,-0.3189420700073242,30.42913818359375,-11.906457901000977,39.67078399658203,0
216,2159899,0.0058061713352799416,0.04821855202317238,-0.9892209768295288,0.21017302572727203,-0.1455126255750656,0.39138221740722656,32.0306510925293,-10.710165977478027,40.21658706665039,0
217,2169903,-0.020595645532011986,-0.05265852436423302,-0.9976102113723755,0.1593279391527176,0.5057201385498047,0.5190714001655579,30.387666702270508,-10.564330101013184,38.508880615234375,0
218,2179845,-0.03944867104291916,-0.12512299418449402,-0.9863452911376953,-0.02335844561457634,-0.0414050854742527,-0.8156470060348511,29.804344177246094,-10.72924518585205,40.916656494140625,0
219,2189939,0.028526922687888145,0.04145396128296852,-1.0136587619781494,0.3863159418106079,-0.21203947067260742,-0.11458219587802887,30.890289306640625,-11.391427040100098,37.436763763427734,0
220,2199816,-0.01735670492053032,0.01756383292376995,-0.9970152378082275,-1.016873836517334,-0.6352729201316833,-0.9581449627876282,30.602643966674805,-8.95719051361084,40.46428680419922,0
221,2210201,-0.045945946127176285,0.043805234134197235,-1.038537859916687,-0.2932124137878418,-0.6165385842323303,-0.22078049182891846,29.388986587524414,-11.036764144897461,40.89372253417969,0
222,2219796,-0.041779812425374985,0.05075293406844139,-1.046433448791504,0.07289496809244156,0.3077976703643799,0.20624852180480957,30.51751708984375,-9.291621208190918,39.996856689453125,0
223,2229839,-0.05435146763920784,0.007367394398897886,-0.9516936540603638,-0.02751048468053341,-0.5429680347442627,0.47486844658851624,29.685407638549805,-11.40929889678955,39.268123626708984,0
224,2240110,-0.024878323078155518,0.0355718620121479,-0.9791939854621887,-0.6223282814025879,-0.6803101897239685,0.0341138057410717,30.58162498474121,-9.921266555786133,39.693389892578125,0
225,2249863,-0.06438832730054855,0.04314851760864258,-1.009667992591858,0.1560593992471695,-1.027397632598877,0.04083609953522682,29.969249725341797,-10.908220291137695,38.321006774902344,0
226,2259719,0.012150865979492664,0.015245147980749607,-0.9608641862869263,-0.8967308402061462,0.08169212192296982,-0.5004433989524841,32.0192756652832,-11.161349296569824,38.775962829589844,0
227,2270223,-0.03544722497463226,0.08451391011476517,-1.0194286108016968,1.0995984077453613,0.04312378168106079,-0.2586035430431366,29.71699333190918,-9.870105743408203,40.742698669433594,0
228,2280162,0.11104094982147217,0.0018828983884304762,-1.0104690790176392,-0.28623420000076294,-0.043550990521907806,-0.45470693707466125,30.005138397216797,-9.411770820617676,38.82189178466797,0
229,2290126,0.058447640389204025,0.0005797133198939264,-1.0026909112930298,0.2867802381515503,0.09420393407344818,0.3682418763637543,29.372196197509766,-11.624879837036133,38.78036880493164,0
230,2299920,0.0347273014485836,0.10575025528669357,-0.9933491349220276,-0.21721763908863068,0.8112062811851501,0.549019992351532,29.762794494628906,-9.646647453308105,41.906219482421875,0
231,2310142,0.008350911550223827,0.0007554779294878244,-1.0045663118362427,0.0015723812393844128,-0.46547621488571167,0.11990546435117722,31.984039306640625,-10.919498443603516,40.89552688598633,0
232,2319743,-0.05741458386182785,-0.05389830097556114,-1.0240432024002075,-0.6956110596656799,0.3637513816356659,0.9284232258796692,32.205848693847656,-9.377296447753906,40.1618766784668,0
233,2330244,0.07708745449781418,0.008702677674591541,-1.0114407539367676,-0.02265893667936325,1.018131971359253,0.39079898595809937,31.847942352294922,-9.040517807006836,40.2373046875,0
234,2340014,-0.0020531672053039074,0.03221823275089264,-1.0231013298034668,0.6132118105888367,-0.0630669891834259,0.32578369975090027,29.111616134643555,-10.207592010498047,39.94301986694336,0
235,2349902,0.014143461361527443,-0.09789202362298965,-1.0144259929656982,-0.04199768975377083,-0.5036036968231201,-0.7130168080329895,28.88765525817871,-8.29859733581543,39.48237228393555,0
236,2360066,-0.0005547317559830844,-0.02656623162329197,-0.9781431555747986,-0.197065532207489,0.5917965173721313,0.33860278129577637,28.95967674255371,-9.75625228881836,39.84196090698242,0
237,2369805,0.07926194369792938,-0.017595747485756874,-1.0017266273498535,-0.6946842074394226,0.5474086403846741,0.5793098211288452,30.29416275024414,-11.177907943725586,39.384742736816406,0
238,2380113,0.03859323635697365,-0.022954333573579788,-1.0200997591018677,0.23076395690441132,-0.8050670623779297,0.22235627472400665,30.43197250366211,-11.377803802490234,40.27073669433594,0
239,2390047,-0.07119598984718323,0.007792839780449867,-0.9970123767852783,0.19372355937957764,0.663033664226532,0.144821435213089,29.94352912902832,-9.899989128112793,39.67247009277344,0
240,2399780,-0.07462254166603088,-0.02872816100716591,-0.9816223978996277,0.18651293218135834,0.22100496292114258,-0.770479142665863,30.24557113647461,-11.806724548339844,40.47819137573242,0
241,2409881,-0.013746335171163082,-0.012239011935889721,-0.9803547263145447,0.7117778062820435,0.28228631615638733,0.3095288574695587,30.56377410888672,-11.432242393493652,39.75361633300781,0
242,2419904,0.03884956240653992,-0.043268442153930664,-1.025757908821106,-0.2693190574645996,-0.46466630697250366,0.7205540537834167,29.742107391357422,-8.527892112731934,39.9365348815918,0
243,2430026,-0.00412646634504199,0.030223967507481575,-1.001147985458374,-0.2965845763683319,0.6984687447547913,-0.284515917301178,28.54183578491211,-11.852945327758789,41.8695182800293,0
244,2440150,0.023160336539149284,0.0025485351216048002,-1.0035498142242432,0.778462290763855,0.20670951902866364,0.4784390926361084,27.057300567626953,-9.36831283569336,40.72639846801758,0
245,2450115,0.005303641781210899,-0.024861318990588188,-0.9736514091491699,0.31720060110092163,0.19248661398887634,0.31564971804618835,30.368045806884766,-9.626298904418945,40.68135070800781,0
246,2460180,-0.03122074343264103,-0.11520804464817047,-1.0191513299942017,0.35965868830680847,0.09406190365552902,0.5462824702262878,29.049570083618164,-10.913866996765137,40.78685760498047,0
247,2470077,0.011945369653403759,-0.01778622344136238,-0.9776760935783386,-0.5911635756492615,0.2405889481306076,-0.10160581022500992,28.809701919555664,-9.074254989624023,40.3121452331543,0
248,2480160,-0.060471005737781525,-0.02916426584124565,-0.9962060451507568,-1.2188268899917603,-0.6221192479133606,-1.1232458353042603,31.124738693237305,-10.771198272705078,39.575679779052734,0
249,2489813,0.04544857516884804,0.001843850826844573,-0.9980334043502808,-0.07414062321186066,0.9722989201545715,0.3671719431877136,29.534425735473633,-12.370254516601562,39.91277313232422,0
250,2499949,-0.008973075076937675,-0.03729231283068657,-1.0430346727371216,0.28474870324134827,-0.620835542678833,0.139699786901474,29.03689193725586,-11.447766304016113,42.17688751220703,0
251,2509782,-0.06006815284490585,-0.0018346552969887853,-1.0302715301513672,-0.48387378454208374,0.818666934967041,-0.24792979657649994,30.18021583557129,-8.54323959350586,40.35328674316406,0
252,2520121,0.04147937521338463,-0.08968046307563782,-1.0319989919662476,0.6533133387565613,-0.42489105463027954,0.4000155031681061,31.64904022216797,-10.304281234741211,40.62320327758789,0
253,2529898,0.04265879839658737,0.017170868813991547,-1.0042622089385986,-0.32752513885498047,0.05092815309762955,1.0254837274551392,28.10638999938965,-9.399404525756836,40.5758056640625,0
254,2539943,0.07385030388832092,0.025052407756447792,-1.0087896585464478,-0.2395649552345276,0.6726550459861755,0.024928096681833267,29.8537654876709,-9.766789436340332,38.36371612548828,0
255,2550256,-0.027030853554606438,-0.05163879320025444,-0.9977672696113586,-0.22763903439044952,0.20295631885528564,-0.2523956000804901,29.98970603942871,-9.803143501281738,39.27820587158203,0
256,2559975,-0.02073795162141323,-0.019862405955791473,-1.0057110786437988,-0.0520695224404335,-0.2216600924730301,-0.40559348464012146,29.47167205810547,-10.641129493713379,40.41325378417969,0
257,2569990,0.03045155107975006,0.026804985478520393,-0.998404324054718,0.054364413022994995,0.024572985246777534,-0.6012277603149414,31.28264617919922,-9.999258995056152,40.1437873840332,0
258,2579978,-0.014743257313966751,0.08408352732658386,-1.0044634342193604,0.09747106581926346,-1.0146422386169434,-0.3139526844024658,28.44586753845215,-8.382251739501953,40.33969497680664,0
259,2589991,-0.002435433678328991,0.05803252384066582,-0.9997978806495667,0.05753779411315918,0.24040791392326355,-0.33348044753074646,29.501232147216797,-8.879865646362305,39.82423782348633,0
260,2600077,0.00570708466693759,-0.04041673615574837,-1.0366456508636475,-0.5512743592262268,0.26522403955459595,-0.3312760889530182,28.742958068847656,-9.291570663452148,40.717708587646484,0
261,2610120,-0.04629698395729065,-0.010595465078949928,-1.0218108892440796,-0.011525378562510014,0.9435790777206421,0.38485562801361084,30.572824478149414,-10.030794143676758,40.98891830444336,0
262,2620171,0.053655970841646194,0.035249125212430954,-0.969733476638794,-0.5012677907943726,-1.0167019367218018,-1.0810636281967163,31.326059341430664,-8.882060050964355,39.57564926147461,0
263,2630200,0.014794206246733665,0.0887664258480072,-1.0054433345794678,0.08992704004049301,0.304787278175354,-0.19274352490901947,30.391395568847656,-11.539080619812012,41.97633361816406,0
264,2639860,-0.06622610241174698,-0.06984870135784149,-0.9975557327270508,0.2638498544692993,1.0333164930343628,-0.7983953952789307,28.745229721069336,-10.559976577758789,38.57129669189453,0
265,2650127,-0.024971846491098404,-0.08478942513465881,-0.9906858205795288,0.22848491370677948,0.1289147436618805,0.07658646255731583,30.61838150024414,-9.173773765563965,41.467041015625,0
266,2660047,0.0175539031624794,0.08421839028596878,-1.0011217594146729,-0.05748531222343445,-0.6439584493637085,-0.18832559883594513,29.006155014038086,-9.264105796813965,40.344970703125,0
267,2669736,-0.0525028258562088,0.02475280873477459,-0.9692509770393372,0.29143327474594116,-0.28208455443382263,0.842369556427002,30.57981300354004,-9.520294189453125,40.451904296875,0
268,2679773,-0.0014409641735255718,0.016232900321483612,-1.0072555541992188,0.2372918277978897,0.531399130821228,-0.43396618962287903,30.689191818237305,-12.213988304138184,40.49433517456055,0
269,2690052,-0.05510153993964195,-0.06296826899051666,-1.0058610439300537,-0.4510256052017212,0.008911730721592903,-0.41578495502471924,31.51449966430664,-9.388962745666504,40.37582778930664,0
270,2700190,0.023248126730322838,-0.04493246600031853,-0.9814528822898865,0.40448495745658875,0.15374842286109924,0.07302315533161163,31.91474151611328,-9.409750938415527,39.274658203125,0
271,2710131,-0.10043075680732727,-0.035419829189777374,-0.9636601805686951,0.21713940799236298,-0.33516380190849304,-0.07551506161689758,27.846630096435547,-11.429352760314941,40.01587677001953,0
272,2720246,-0.00032478742650710046,-0.030035879462957382,-0.9755196571350098,0.8572802543640137,0.13364754617214203,-0.0404694601893425,30.4887752532959,-9.333950996398926,39.997337341308594,0
273,2730129,0.013261551037430763,0.02979229763150215,-0.9674544930458069,-0.10834227502346039,0.21106021106243134,-0.639129638671875,28.381357192993164,-9.008674621582031,40.15562057495117,0
274,2740077,-0.004214596468955278,-0.07091207057237625,-1.017367959022522,-0.06591992825269699,-0.007222198881208897,-0.03170271962881088,29.2784423828125,-10.613041877746582,40.79682922363281,0
275,2749921,-0.06288685649633408,-0.0027538235299289227,-1.003852128982544,0.18354350328445435,0.6817592978477478,0.22161847352981567,27.988874435424805,-9.011285781860352,41.151763916015625,0
276,2759747,0.004653841257095337,-0.06334123015403748,-0.982250988483429,0.45006996393203735,-0.6199756264686584,-0.2860089838504791,29.070405960083008,-8.612577438354492,38.65747833251953,0
277,2770004,-0.05553615093231201,0.030708428472280502,-0.98973149061203,0.189381405711174,0.26508957147598267,-0.44744351506233215,30.581754684448242,-9.586920738220215,39.03886795043945,0
278,2780194,0.021218346431851387,0.032873764634132385,-0.9995778203010559,0.21785970032215118,-0.4013526141643524,0.05522271990776062,32.44185256958008,-11.705384254455566,38.44755554199219,0
279,2789859,0.015813281759619713,-0.11923181265592575,-1.0105870962142944,-0.4561883509159088,0.5486288070678711,0.1362522691488266,30.1752986907959,-10.269550323486328,40.514739990234375,0
280,2799976,-0.05938359349966049,-0.04154643788933754,-1.0033514499664307,0.6849029064178467,-0.5025070309638977,0.40434300899505615,31.98406982421875,-12.46591567993164,41.92013168334961,0
281,2810032,0.05251722037792206,-0.018673157319426537,-1.0234804153442383,0.5394784808158875,-1.2507257461547852,-0.1986842006444931,32.15237808227539,-9.893342971801758,41.54948806762695,0
282,2820147,0.04072815552353859,0.05824705958366394,-1.0248867273330688,0.6486860513687134,-0.6681564450263977,0.6853429675102234,30.29143524169922,-9.563508033752441,40.51057434082031,0
283,2830227,-0.03187550604343414,-0.009128835052251816,-0.9941500425338745,-0.9381657838821411,-0.929939866065979,-0.17323175072669983,29.309612274169922,-10.294392585754395,39.92287063598633,0
284,2840119,0.01516062393784523,-0.052927885204553604,-1.0189954042434692,0.6267528533935547,-0.45360252261161804,-0.06091342866420746,29.587629318237305,-10.053611755371094,39.622352600097656,0
285,2849777,-0.01465389784425497,0.021400151774287224,-0.9810810685157776,-0.4570128619670868,0.18373112380504608,0.40705516934394836,29.204214096069336,-8.529374122619629,40.055301666259766,0
286,2859981,-0.00019519802299328148,-0.016631251201033592,-0.9808825850486755,-0.5364496111869812,-0.5452880263328552,-0.6297815442085266,30.650798797607422,-9.770522117614746,40.119354248046875,0
287,2869799,0.08448239415884018,-0.007684795185923576,-0.9770225882530212,0.40606236457824707,-1.1985241174697876,0.5343953967094421,30.720521926879883,-9.978124618530273,39.307289123535156,0
288,2880136,-0.01724167913198471,-0.03668082877993584,-1.020843505859375,-0.11889643222093582,-0.2514275312423706,0.052513379603624344,29.411361694335938,-7.54353666305542,40.79628372192383,0
289,2890010,-0.019354376941919327,0.12019404768943787,-0.9840061664581299,-0.44955313205718994,-0.4546501934528351,0.6583536863327026,30.494094848632812,-10.35965347290039,39.19799041748047,0
290,2899664,-0.012855310924351215,-0.02111203595995903,-0.9905736446380615,-0.21164020895957947,-0.6709114909172058,0.2645884156227112,28.339628219604492,-10.49588394165039,39.297245025634766,0
291,2910087,0.07056676596403122,-0.056206077337265015,-0.9873472452163696,0.034350208938121796,0.09618404507637024,-0.7876186370849609,29.682525634765625,-10.086954116821289,40.26913833618164,0
292,2919851,-0.06172819063067436,0.0327276848256588,-1.0182124376296997,0.5876221656799316,0.5703709721565247,0.12433316558599472,30.46584701538086,-10.099149703979492,39.269493103027344,0
293,2929759,0.06212026998400688,0.05703214928507805,-0.9898664355278015,0.7597976326942444,0.3882018029689789,-0.3481723964214325,29.39847183227539,-8.34326171875,40.71363067626953,0
294,2939947,0.08577905595302582,-0.007100163493305445,-1.004768967628479,0.09212049096822739,-0.19930118322372437,-0.5919427871704102,30.473176956176758,-10.025602340698242,39.68018341064453,0
295,2950229,0.0906364768743515,0.0988379716873169,-0.9853075742721558,0.9736171960830688,-0.06154445931315422,0.6889032125473022,27.51260757446289,-10.020401954650879,40.15628433227539,0
296,2959813,0.018806230276823044,0.007794560864567757,-1.0110050439834595,-0.23078596591949463,-0.5227243900299072,0.6744713187217712,30.02918815612793,-10.733907699584961,40.4473876953125,0
297,2970025,-0.008263537660241127,-0.01796204410493374,-1.0179346799850464,-0.32717809081077576,0.32330769300460815,0.20752786099910736,28.947935104370117,-9.785246849060059,40.16743850708008,0
298,2979837,-0.07826811820268631,0.05164588987827301,-1.0078604221343994,0.41385501623153687,0.1730976700782776,-0.045342735946178436,31.392419815063477,-10.667136192321777,40.48321533203125,0
299,2990080,0.022422440350055695,-0.06687158346176147,-1.0098659992218018,0.7359377145767212,0.5297549366950989,0.05826406925916672,31.08507537841797,-9.092256546020508,40.35277557373047,0
300,3000187,0.10442015528678894,-0.008991523645818233,-0.9991904497146606,0.2552907168865204,0.0002621478051878512,0.1132403016090393,29.290029525756836,-9.746033668518066,39.45710372924805,0
301,3010162,0.026713015511631966,0.026348887011408806,-1.0029339790344238,-0.05752202123403549,0.5266067981719971,-0.01714119128882885,30.15970802307129,-10.157234191894531,38.17555236816406,0
302,3020073,-0.020961398258805275,0.041839633136987686,-1.0162174701690674,-1.1239715814590454,-0.7003118991851807,0.7533533573150635,29.654603958129883,-10.913500785827637,39.1989860534668,0
303,3029934,0.04307089373469353,0.035040318965911865,-1.0193109512329102,-0.015187959186732769,0.8282274007797241,-0.3076743185520172,31.54918098449707,-9.278636932373047,38.65837478637695,0
304,3040107,-0.04544692859053612,-0.053187817335128784,-1.0290307998657227,1.0096968412399292,-0.0441114604473114,-0.42767515778541565,30.2524356842041,-7.560720443725586,38.91646957397461,0
305,3050039,0.01155924890190363,0.014823192730545998,-0.9726995229721069,-0.5483502149581909,0.20620372891426086,0.03661223128437996,31.01679039001465,-7.875124454498291,39.584964752197266,0
306,3059888,-0.04182374104857445,-0.043911632150411606,-0.9869427680969238,-0.5380715727806091,0.13832075893878937,0.8195520639419556,29.003618240356445,-8.028491973876953,38.07484436035156,0
307,3069853,-0.051662907004356384,0.017498232424259186,-0.9798076748847961,-0.01858154870569706,1.0794507265090942,-0.2310762256383896,30.93804359436035,-10.561603546142578,39.302669525146484,0
308,3079949,0.0639781579375267,0.02492685243487358,-1.0058202743530273,-0.012312665581703186,-0.09890887141227722,-0.281852126121521,30.046222686767578,-9.425333976745605,39.84455490112305,0
309,3089923,-0.005973509047180414,-0.0038432239089161158,-0.9843407273292542,-0.36088407039642334,0.7077344059944153,1.260836124420166,29.96673011779785,-9.275501251220703,40.40068054199219,0
310,3099781,-0.03141462802886963,0.05495214834809303,-1.0314435958862305,-0.4409506618976593,0.46890538930892944,0.055663108825683594,29.377784729003906,-9.438855171203613,41.57514953613281,0
311,3109971,0.029262475669384003,-0.05389224737882614,-1.037832260131836,0.13136377930641174,0.08612062782049179,0.08912841230630875,29.867467880249023,-9.504049301147461,39.16412353515625,0
312,3119911,-0.006389073096215725,0.04686656594276428,-1.0272756814956665,-0.42049360275268555,-0.07488733530044556,0.1478741466999054,29.860164642333984,-10.30408000946045,40.90895462036133,0
313,3129730,0.012198562733829021,0.058640845119953156,-1.0093470811843872,-0.29611125588417053,0.04995625466108322,-0.8815416693687439,31.634498596191406,-10.993912696838379,40.35232925415039,0
314,3139941,-0.035023946315050125,-0.057734016329050064,-0.989120364189148,0.28262874484062195,-0.1860576570034027,-0.6813572645187378,29.74595832824707,-11.514785766601562,40.79024124145508,0
315,3149914,-0.018866026774048805,-0.01797438971698284,-0.9933283925056458,-0.005301228258758783,0.7745389342308044,1.0062377452850342,29.080896377563477,-9.814809799194336,41.13689422607422,0
316,3160004,0.032551564276218414,0.012415959499776363,-1.0119842290878296,0.006382505409419537,-0.4305752217769623,-0.3389829695224762,30.50640106201172,-10.351308822631836,40.36949920654297,0
317,3169714,-0.08942973613739014,0.03566502407193184,-0.9897457361221313,0.0359656997025013,0.689355194568634,-0.5134522914886475,27.640485763549805,-10.259810447692871,38.86051940917969,0
318,3179923,0.04534853249788284,0.0695391520857811,-0.9829784631729126,0.20301222801208496,0.388512521982193,-0.6267022490501404,30.1483097076416,-9.929386138916016,40.231590270996094,0
319,3189717,0.014818164519965649,0.05015327036380768,-0.9862183928489685,0.674997091293335,-0.8977664113044739,0.21195940673351288,28.903383255004883,-9.128172874450684,39.98209762573242,0
320,3199971,-0.08240533620119095,-0.0047245873138308525,-0.9987149238586426,0.4015907347202301,0.6553122401237488,-0.5979716777801514,31.049650192260742,-10.565072059631348,39.52360916137695,0
321,3210081,0.10576675087213516,0.048419274389743805,-0.9889119863510132,0.8263752460479736,0.47432762384414673,0.44489729404449463,31.05129051208496,-10.911962509155273,38.825321197509766,0
322,3219674,0.085026815533638,-0.0005784674431197345,-0.9930483102798462,0.9177676439285278,-0.8251613974571228,0.16925489902496338,30.185317993164062,-10.478337287902832,41.66659927368164,0
323,3229960,-0.008706886321306229,-0.06326597183942795,-1.0035364627838135,-0.3293285071849823,0.280212938785553,0.001990830758586526,29.8641300201416,-7.905118465423584,39.573307037353516,0
324,3240115,0.053344644606113434,0.004830869846045971,-1.002334713935852,-1.1158959865570068,0.18163961172103882,-0.40705180168151855,30.672237396240234,-8.61410140991211,38.21018981933594,0
325,3250117,-0.002451900392770767,0.03505367413163185,-1.0051991939544678,0.21999600529670715,-0.41895073652267456,0.17335309088230133,30.53333282470703,-10.187026977539062,39.569618225097656,0
326,3260012,0.06320119649171829,-0.004935195203870535,-0.9980806708335876,0.8753334283828735,-0.18460509181022644,0.09449505805969238,29.470468521118164,-10.047930717468262,40.81800842285156,0
327,3270015,0.034802064299583435,-0.0157090462744236,-1.000523567199707,0.7448644042015076,0.5878708958625793,-0.306054949760437,29.048810958862305,-9.6251220703125,41.950439453125,0
328,3279881,-0.03905931115150452,0.021374991163611412,-0.9408890604972839,1.059877872467041,-0.1939622312784195,-0.17163348197937012,28.850555419921875,-11.22739028930664,40.14558792114258,0
329,3290081,-0.01663852483034134,-0.04526884853839874,-1.007476568222046,0.06812264025211334,0.01965148188173771,0.14486034214496613,29.75981903076172,-9.52061939239502,39.41572189331055,0
330,3299801,0.006438210606575012,0.10132426768541336,-0.996748149394989,0.34681349992752075,-0.6268312335014343,-0.3954116404056549,28.458293914794922,-10.825860977172852,39.73297882080078,0
331,3309896,-0.06198043003678322,0.07125212252140045,-1.0183857679367065,-0.03527325391769409,0.5733741521835327,0.09739498794078827,31.749677658081055,-10.728111267089844,39.498085021972656,0
332,3320016,-0.005016020964831114,-0.024945219978690147,-0.9731985330581665,-0.22674569487571716,0.5553581118583679,0.649249255657196,30.67218017578125,-9.570544242858887,40.64865493774414,0
333,3329840,0.049829598516225815,-0.006063423119485378,-1.0015206336975098,-0.05919549614191055,-0.278367817401886,0.24291248619556427,29.316604614257812,-8.656109809875488,40.67017364501953,0
334,3340172,0.026275204494595528,-0.015941685065627098,-1.0026835203170776,-0.026164432987570763,-0.2618200182914734,-0.25293850898742676,29.61960792541504,-7.941788673400879,41.506996154785156,0
335,3349748,0.005929790902882814,0.007780374493449926,-1.0123354196548462,0.29226067662239075,-0.20660077035427094,0.8400704860687256,30.643293380737305,-9.480368614196777,41.20832824707031,0
336,3360114,-0.004701066762208939,0.04301958903670311,-0.980830192565918,-0.7205338478088379,-0.02554469369351864,-0.9729447960853577,30.46156120300293,-10.01509952545166,39.24163055419922,0
337,3369966,-0.0206720270216465,-0.00359394121915102,-0.9735006093978882,-0.1466284692287445,-0.7795400023460388,-0.030004329979419708,31.126319885253906,-9.376702308654785,39.96459197998047,0
338,3380126,-0.01765402778983116,-0.01542026549577713,-0.989955484867096,-0.5688424110412598,0.08086053282022476,-0.35576775670051575,29.47260093688965,-10.856927871704102,40.77124786376953,0
339,3389797,-0.09102098643779755,-0.04990234598517418,-1.0208697319030762,0.15294721722602844,-0.11093129217624664,0.11286678165197372,29.541696548461914,-9.520769119262695,40.021724700927734,0
340,3399765,-0.030737975612282753,0.01533142477273941,-0.9882912635803223,0.440995991230011,-0.26690319180488586,-0.39031916856765747,30.423015594482422,-10.195976257324219,39.33252716064453,0
341,3410318,-0.020351510494947433,0.01436073612421751,-1.0093333721160889,-0.029781300574541092,0.8305280208587646,-0.6524373888969421,30.107646942138672,-9.201306343078613,38.43685531616211,0
342,3420334,0.047081176191568375,-0.0014437218196690083,-0.9785874485969543,-0.3687683343887329,0.949732780456543,0.72989422082901,31.13355255126953,-8.996750831604004,39.910030364990234,0
343,3429960,-0.01907152682542801,-0.004431353881955147,-1.0035420656204224,0.17086897790431976,-0.15388783812522888,0.21564212441444397,30.870763778686523,-9.516565322875977,39.854957580566406,0
344,3440066,-0.04054331034421921,-0.033643901348114014,-1.0051738023757935,0.04312426969408989,0.6540399193763733,0.682404637336731,30.020231246948242,-10.6325101852417,38.0596923828125,0
345,3449961,-0.013160361908376217,0.07248284667730331,-0.9809727668762207,-0.055711545050144196,-0.6930719614028931,0.17005892097949982,32.239227294921875,-10.49050235748291,40.497955322265625,0
346,3459793,-0.0391569584608078,-0.02825876511633396,-1.0181790590286255,0.16579383611679077,-0.01213807426393032,-0.2702305316925049,29.04205894470215,-9.349696159362793,40.593875885009766,0
347,3469721,0.014444025233387947,0.008398177102208138,-1.0314403772354126,0.020323650911450386,-0.058548711240291595,0.2938743829727173,29.508771896362305,-9.199963569641113,41.11152267456055,0
348,3480077,-0.056199029088020325,-0.024149654433131218,-1.0230568647384644,-0.20950408279895782,0.4433424472808838,0.298725962638855,30.765485763549805,-9.135795593261719,41.71536636352539,0
349,3490055,-0.025781603530049324,-0.019078286364674568,-1.0016789436340332,0.5058967471122742,-0.19053736329078674,-0.631344735622406,28.946537017822266,-10.148736000061035,39.14725875854492,0
350,3499989,-0.07128770649433136,-0.006274722050875425,-1.005414605140686,0.571388304233551,-0.13021157681941986,0.49945470690727234,28.91337776184082,-11.340906143188477,40.500144958496094,0
351,3509876,-0.048453181982040405,-0.11427181214094162,-1.0067472457885742,1.3260608911514282,0.41335633397102356,-0.9797211289405823,31.047039031982422,-10.715904235839844,40.16587448120117,0
352,3519772,-0.0020329109393060207,-0.02259487845003605,-1.0214389562606812,-0.6488456130027771,0.8418383002281189,-0.4578526020050049,30.04673194885254,-10.423614501953125,39.05347442626953,0
353,3530198,0.10381101071834564,0.04656115919351578,-1.00742506980896,0.00389207829721272,0.937394380569458,0.09704660624265671,27.43425941467285,-11.590376853942871,40.81246566772461,0
354,3540147,0.06073485687375069,-0.06421037018299103,-1.0217498540878296,-0.5361649990081787,0.18230780959129333,0.3603547513484955,28.748241424560547,-9.515424728393555,39.83369445800781,0
355,3549696,0.031948499381542206,-0.01268402673304081,-1.0129222869873047,0.5405149459838867,-0.6044722199440002,0.39220112562179565,29.43936538696289,-10.183894157409668,40.19251251220703,0
356,3559980,-0.01174660213291645,0.02073466032743454,-1.0167275667190552,0.0013885052176192403,-0.010051312856376171,-0.28514066338539124,31.693613052368164,-9.456405639648438,42.13885498046875,0
357,3569728,0.002584052039310336,0.024403521791100502,-0.9675287008285522,0.07048582285642624,-0.6955212950706482,-0.845340371131897,30.37806510925293,-8.200757026672363,41.443809509277344,0
358,3580158,-0.046937111765146255,-0.017550284042954445,-1.0073399543762207,-0.026412785053253174,-0.15006457269191742,0.06645870953798294,28.98556137084961,-10.533397674560547,37.9296760559082,0
359,3589995,-0.015879303216934204,-0.05661581829190254,-0.9998687505722046,-0.54847651720047,-0.02731229178607464,-0.36452674865722656,30.327089309692383,-9.273995399475098,38.53328323364258,0
360,3600090,-0.05052180215716362,-0.08495600521564484,-0.9885554909706116,-0.25264236330986023,-0.1763642281293869,0.9520883560180664,30.5870418548584,-9.030019760131836,39.817378997802734,0
361,3610236,-0.0020463799592107534,0.06386426091194153,-0.9828338027000427,0.2722269594669342,0.0037692233454436064,-0.7230145931243896,31.16114044189453,-11.647735595703125,40.757286071777344,0
362,3620095,-0.01245870254933834,-0.01784352771937847,-0.995337188243866,0.14074797928333282,0.2982272505760193,0.008958660997450352,30.241947174072266,-11.142989158630371,40.669830322265625,0
363,3630003,0.009879937395453453,0.08212351053953171,-1.0485726594924927,0.06376054137945175,-0.44522231817245483,-0.3477465808391571,31.637794494628906,-11.26447868347168,39.192726135253906,0
364,3639997,0.043858833611011505,-0.02519926056265831,-0.9623761177062988,0.7588315606117249,0.9136572480201721,0.06599368900060654,28.961870193481445,-9.41018295288086,41.78541946411133,0
365,3649963,-0.07653944939374924,0.005480293184518814,-0.9950773119926453,-0.04520420357584953,-0.6954781413078308,0.00973560567945242,30.236133575439453,-9.551547050476074,40.23175811767578,0
366,3660104,-0.01658162847161293,0.035635318607091904,-1.0032544136047363,-0.33102497458457947,-0.4110516607761383,-1.267032504081726,29.250118255615234,-10.005362510681152,40.84379577636719,0
367,3669957,-0.004016046412289143,-0.08347009867429733,-0.9937446713447571,0.8391233086585999,0.6645808219909668,0.23773519694805145,29.662511825561523,-10.127721786499023,38.975318908691406,0
368,3679840,0.0999840572476387,0.06008781120181084,-1.009668231010437,0.19264250993728638,-0.6149868369102478,0.19217732548713684,30.871135711669922,-8.859312057495117,40.25048065185547,0
369,3690101,0.0039057175163179636,-0.013146020472049713,-1.0046483278274536,0.0061061447486281395,-0.7437242865562439,-0.7434934973716736,30.934282302856445,-9.327790260314941,39.71467971801758,0
370,3700055,-0.033808059990406036,-0.05718740448355675,-1.03200101852417,0.17839805781841278,0.12570348381996155,0.0024784007109701633,30.31540870666504,-9.800392150878906,39.47505569458008,0
371,3709887,0.003194204531610012,-0.08464637398719788,-0.9980883598327637,0.29112866520881653,-0.5251134634017944,-0.22964723408222198,30.2698974609375,-8.96373462677002,40.825904846191406,0
372,3720057,-0.029214909300208092,-0.04633345827460289,-0.9531416893005371,0.2104782611131668,-1.0466232299804688,-0.30540066957473755,28.269227981567383,-10.810589790344238,40.46039581298828,0
373,3730108,-0.0017894129268825054,0.07002677768468857,-1.0615732669830322,0.08034941554069519,0.7455287575721741,-0.06054866686463356,28.78071403503418,-11.193036079406738,40.365928649902344,0
374,3740160,0.09436504542827606,-0.015982594341039658,-0.9908662438392639,-0.7996466159820557,0.24985839426517487,1.0444848537445068,29.412109375,-11.127547264099121,41.21138381958008,0
375,3749993,0.03954172134399414,-0.01313906442373991,-0.9974926710128784,-0.7786499261856079,0.21388384699821472,-0.3362652063369751,31.151809692382812,-7.834950923919678,41.907901763916016,0
376,3760064,0.0014739598846063018,0.09828167408704758,-1.0091657638549805,-1.0202118158340454,-0.2710840702056885,-0.0623076856136322,29.448331832885742,-9.766087532043457,41.48479080200195,0
377,3769904,-0.04610275849699974,-0.04667769744992256,-0.9891898036003113,-0.0016814150149002671,-1.0373269319534302,-0.04354036599397659,29.001419067382812,-9.281015396118164,40.31220245361328,0
378,3780085,0.03140326961874962,-0.003714555175974965,-1.0028374195098877,0.21793685853481293,0.34101614356040955,0.0006063188775442541,32.84725570678711,-8.880034446716309,40.655723571777344,0
379,3790156,0.08152253180742264,-0.004737649578601122,-1.0431498289108276,-0.1278095245361328,0.39641672372817993,0.677777111530304,29.184749603271484,-10.087968826293945,40.34895706176758,0
380,3800224,-0.0028963370714336634,-0.04614752158522606,-1.020810842514038,-0.14036925137043,0.045472096651792526,0.2897232174873352,30.049373626708984,-10.789214134216309,38.76622009277344,0
381,3810053,0.013682194985449314,-0.11833502352237701,-0.9609780311584473,0.3047657907009125,0.12264551222324371,-0.1937285214662552,29.909936904907227,-12.2369966506958,39.56366729736328,0
382,3819905,0.03778573498129845,0.027222314849495888,-0.982172429561615,0.2919771373271942,1.5403308868408203,-0.37139853835105896,30.591310501098633,-9.566744804382324,39.88307189941406,0
383,3829726,0.025536447763442993,-0.08053010702133179,-0.9967138171195984,0.3255826234817505,-0.7549189329147339,-0.0014947819290682673,30.00640106201172,-8.884247779846191,39.16541290283203,0
384,3839964,0.07841356098651886,-0.02070549689233303,-1.040780782699585,-0.3117894232273102,-0.6764019727706909,0.4093717932701111,30.271854400634766,-10.407876968383789,39.52267074584961,0
385,3849758,0.06187434121966362,0.1086452454328537,-0.9674149751663208,-0.08796202391386032,-0.5997083187103271,0.11514222621917725,30.04714012145996,-10.452730178833008,40.987918853759766,0
386,3860242,0.04469909891486168,0.02173795737326145,-1.0178792476654053,-0.7595624923706055,-0.508298397064209,0.5165930390357971,28.624963760375977,-10.830141067504883,39.788814544677734,0
387,3870119,0.08866025507450104,0.011092445813119411,-0.9825937151908875,-0.0961141437292099,0.8855564594268799,0.06922300904989243,31.12388038635254,-9.304646492004395,40.83816909790039,0
388,3880039,-0.03430026397109032,0.0211227647960186,-1.0137943029403687,0.00981683749705553,0.407499223947525,-0.6281306743621826,31.26630401611328,-9.792943000793457,39.37227249145508,0
389,3889860,0.06725858896970749,0.05189082399010658,-0.9456318616867065,-0.01954345777630806,-0.21306882798671722,-0.24226702749729156,30.35590171813965,-9.925902366638184,40.54636764526367,0
390,3899980,0.027754690498113632,0.05238267406821251,-1.0120903253555298,0.5770847201347351,-0.5816691517829895,0.3164271116256714,29.522184371948242,-10.265256881713867,39.70182418823242,0
391,3910034,0.014554410241544247,0.04382629692554474,-0.9955331087112427,-0.8922616243362427,-0.7442312836647034,0.2197508066892624,29.424509048461914,-8.300919532775879,40.665523529052734,0
392,3920081,-0.002747470745816827,0.04292221739888191,-0.9857134222984314,1.2302805185317993,-0.4222903847694397,-0.4597570300102234,29.229459762573242,-10.486599922180176,39.44934844970703,0
393,3929812,0.005209106020629406,0.0523512102663517,-1.0248010158538818,0.47811445593833923,0.340455025434494,-0.07574674487113953,30.58078956604004,-9.318082809448242,41.063697814941406,0
394,3940185,-0.02688019350171089,-0.005971966776996851,-1.0034635066986084,-0.03857309743762016,0.13149523735046387,0.17739617824554443,29.447765350341797,-7.932089805603027,38.56055450439453,0
395,3950184,0.05666493624448776,-0.11761091649532318,-1.007020115852356,0.9280428290367126,-0.040621139109134674,-0.20361341536045074,30.199485778808594,-10.199407577514648,39.96624755859375,0
396,3959980,0.013384757563471794,-0.04623183235526085,-1.005371332168579,0.35100558400154114,0.008960680104792118,-0.08247493952512741,29.778841018676758,-11.095218658447266,39.351417541503906,0
397,3970162,0.13546094298362732,-0.07069769501686096,-0.9982601404190063,-0.22618789970874786,-0.30866730213165283,-0.056499481201171875,30.26325225830078,-9.660614967346191,38.568687438964844,0
398,3980256,-0.02723477967083454,-0.005732450634241104,-0.9909961223602295,0.32866278290748596,-0.6402666568756104,-0.36846160888671875,29.568662643432617,-11.032854080200195,41.79677200317383,0
399,3990040,0.087827667593956,-0.07033795863389969,-1.0022234916687012,0.2207750529050827,-0.077510304749012,0.21562591195106506,29.43006134033203,-11.16523551940918,40.14826965332031,0
400,3999705,0.06815487891435623,-0.03702288493514061,-1.000410795211792,-0.4482101500034332,0.7547701001167297,-0.6663343906402588,30.734575271606445,-8.956939697265625,41.28714370727539,0
401,4009827,-0.09240943193435669,0.03446507826447487,-1.0380260944366455,-0.36462998390197754,-0.7995585799217224,-0.48061537742614746,32.18395233154297,-8.951316833496094,37.523250579833984,0
402,4020111,-0.025241313502192497,-0.03312978893518448,-0.9973115921020508,-0.6736990809440613,0.20319101214408875,1.0871275663375854,30.56232261657715,-11.55100154876709,40.09825134277344,0
403,4029949,0.06561002135276794,0.05408360809087753,-0.9767044186592102,-0.3041502833366394,-0.313975989818573,0.7098177075386047,27.667648315429688,-9.866199493408203,40.466434478759766,0
404,4040293,0.12353847175836563,-0.017379458993673325,-0.9642676115036011,-0.21400201320648193,0.37994733452796936,-0.6243683099746704,31.397281646728516,-10.451127052307129,39.044395446777344,0
405,4050042,-0.03747626766562462,0.050370313227176666,-1.031241774559021,1.0122605562210083,0.0117564145475626,1.013943076133728,30.043540954589844,-8.554522514343262,40.65281295776367,0
406,4059923,-0.05834518373012543,-0.05265267565846443,-1.0082077980041504,-0.7011401653289795,0.37766125798225403,0.26427802443504333,30.388652801513672,-9.08994197845459,40.850406646728516,0
407,4069913,-0.06301582604646683,-0.047548726201057434,-0.9947901964187622,0.8562172651290894,0.5778135657310486,0.12850742042064667,30.020448684692383,-9.756149291992188,38.988563537597656,0
408,4080164,0.0677950531244278,-0.0058470917865633965,-1.0009655952453613,0.8898928761482239,-0.245895653963089,0.5944308638572693,30.529748916625977,-11.017745018005371,40.17285919189453,0
409,4089951,0.02879967913031578,-0.05073026940226555,-1.0137351751327515,0.9723494052886963,-0.18559947609901428,-0.7186235785484314,30.87220573425293,-9.171324729919434,39.89200210571289,0
410,4099989,0.029406994581222534,-0.019725143909454346,-0.9982244372367859,-0.8981043696403503,0.25488173961639404,0.8799413442611694,30.728618621826172,-10.732887268066406,39.64414596557617,0
411,4110125,-0.030235202983021736,0.013557180762290955,-0.9886035323143005,-0.5592788457870483,0.12608297169208527,0.35364851355552673,28.066852569580078,-9.34103012084961,39.352169036865234,0
412,4120514,-0.06466681510210037,-0.01896907575428486,-1.0321054458618164,0.3858141005039215,-0.16189923882484436,-0.012875446118414402,30.171642303466797,-9.893027305603027,40.97492218017578,0
413,4130123,0.0012972273398190737,-0.08700524270534515,-0.9877218008041382,-0.39799177646636963,0.27008017897605896,-0.11716637760400772,30.269079208374023,-10.199966430664062,41.833961486816406,0
414,4139992,-0.059008724987506866,0.039069533348083496,-1.0277773141860962,-0.3362574875354767,-0.433684766292572,-0.5679198503494263,30.81478500366211,-9.953974723815918,41.137359619140625,0
415,4150087,0.010948693379759789,0.054668232798576355,-1.0133863687515259,-0.04761867597699165,0.6102645993232727,0.14498235285282135,30.228113174438477,-8.172229766845703,39.74165725708008,0
416,4160065,-0.006259877234697342,-0.007337889168411493,-0.9775554537773132,0.9129170775413513,1.0497392416000366,-0.1822192221879959,29.539113998413086,-9.16036605834961,39.664039611816406,0
417,4169890,-0.02170831710100174,-0.0175270177423954,-0.9764582514762878,0.46380814909935,-0.539148211479187,0.19215305149555206,29.24168586730957,-10.380643844604492,40.37088394165039,0
418,4179791,-0.03810269013047218,0.014537125825881958,-0.9891581535339355,-0.5428866147994995,0.3681259751319885,-0.06779268383979797,30.46329689025879,-10.640225410461426,38.85797119140625,0
419,4190014,0.03779319301247597,0.012230534106492996,-1.006440281867981,0.6641033291816711,0.21799519658088684,0.9244449734687805,30.07342529296875,-13.613126754760742,41.14457321166992,0
420,4199699,-0.010980877093970776,-0.06833261996507645,-1.0109143257141113,-0.07069309800863266,-0.3166233003139496,-0.2211582213640213,30.91726303100586,-9.364838600158691,40.03522872924805,0
421,4209923,-0.009841729886829853,-0.06402269750833511,-0.9760386347770691,0.15127655863761902,-0.15634235739707947,-0.11242912709712982,28.050182342529297,-10.69745922088623,40.25578689575195,0
422,4220079,-0.11308261007070541,0.02966095507144928,-1.0183131694793701,-0.1801176816225052,-0.2232559323310852,0.09017236530780792,29.159128189086914,-10.476171493530273,39.18830490112305,0
423,4230013,-0.016398059204220772,0.02219570428133011,-0.9658156633377075,0.47460097074508667,-0.20258453488349915,-0.02281641960144043,29.677677154541016,-9.801594734191895,39.07097625732422,0
424,4240120,0.0041784183122217655,-0.0032506620045751333,-1.013074517250061,0.21825890243053436,0.7977116703987122,0.3924771547317505,29.053964614868164,-9.3250093460083,39.883304595947266,0
425,4250128,-0.029761802405118942,0.04452703893184662,-0.9756375551223755,0.540346086025238,-0.3454247713088989,-0.2757579982280731,29.633604049682617,-9.617337226867676,37.20223617553711,0
426,4260036,0.04163295775651932,0.04174446314573288,-1.0001310110092163,0.05009038373827934,0.04886459931731224,-0.011080521158874035,29.466537475585938,-10.627274513244629,39.63475799560547,0
427,4269956,-0.02518155425786972,0.01014164462685585,-1.0177663564682007,1.0170514583587646,-0.030957501381635666,0.055263716727495193,29.32291603088379,-10.077313423156738,39.18095016479492,0
428,4280014,-0.02447703666985035,0.04102429747581482,-1.0211578607559204,-0.22104716300964355,0.4229106903076172,0.717074990272522,28.853607177734375,-9.621827125549316,40.64899444580078,0
429,4289854,0.05056959390640259,0.025181114673614502,-0.9915712475776672,0.8052730560302734,0.21499300003051758,-0.10620027780532837,30.064485549926758,-8.51518440246582,40.3918571472168,0
430,4299887,-0.003936488647013903,0.02864968590438366,-1.026463270187378,0.41266122460365295,-0.19326233863830566,0.34665054082870483,30.828857421875,-9.080811500549316,41.129783630371094,0
431,4310108,-0.04864473268389702,-0.019628865644335747,-1.0081138610839844,-0.1508166640996933,-0.37005773186683655,0.4740828573703766,30.75275230407715,-10.560873985290527,41.29536056518555,0
432,4319944,0.0015372823690995574,0.062042731791734695,-0.9947789311408997,0.25080111622810364,0.1782287359237671,-0.5190841555595398,29.476408004760742,-9.750725746154785,39.746273040771484,0
433,4330288,0.013863738626241684,0.06068095192313194,-0.973844587802887,-0.34798991680145264,0.5298833250999451,-0.22158251702785492,32.564388275146484,-9.452595710754395,40.12226867675781,0
434,4339910,-0.04801400750875473,0.02953418530523777,-1.0014221668243408,-0.2347971498966217,0.20627588033676147,0.023574385792016983,30.348472595214844,-11.194489479064941,42.28716278076172,0
435,4349990,-0.08598224818706512,-0.08023019880056381,-0.9915807843208313,-0.4326157569885254,-0.49933210015296936,-1.2208138704299927,29.78157615661621,-10.767300605773926,39.10892868041992,0
436,4360216,-0.08684622496366501,0.13758157193660736,-0.9776225090026855,-0.6942694187164307,0.9025512337684631,0.12354039400815964,29.47149085998535,-9.871573448181152,39.72111892700195,0
437,4369961,0.0030042999424040318,0.0785403698682785,-0.9821426868438721,0.043154630810022354,0.5095610022544861,0.5518906116485596,29.792816162109375,-11.190607070922852,40.41987609863281,0
438,4379705,0.0723157450556755,0.057530999183654785,-1.0452858209609985,0.2075258493423462,-0.72269606590271,0.0401557981967926,31.00212287902832,-8.910216331481934,39.372032165527344,0
439,4390001,0.044923048466444016,0.03288060054183006,-0.9573705196380615,-1.2924754619598389,-1.0113298892974854,-1.2620000839233398,30.977943420410156,-10.111689567565918,38.17563247680664,0
440,4400025,0.02244231104850769,-0.04463432356715202,-0.992734968662262,0.19141504168510437,-0.731575071811676,0.0702580064535141,30.4893741607666,-11.648369789123535,39.516510009765625,0
441,4410069,-0.05982033163309097,0.06478353589773178,-0.9844093322753906,-0.48056086897850037,-0.07520327717065811,0.005626385565847158,31.048952102661133,-9.201700210571289,40.458438873291016,0
442,4420465,-0.07240850478410721,-0.03976906090974808,-1.0040417909622192,-0.5126798152923584,0.3155793845653534,0.07611116766929626,29.89900779724121,-9.698171615600586,38.940982818603516,0
443,4429866,0.03930208459496498,0.06687243282794952,-1.0094672441482544,-0.23158590495586395,0.30572038888931274,0.15628139674663544,29.8425235748291,-9.59192180633545,40.0987548828125,0
444,4440173,-0.033484216779470444,-0.024416429921984673,-1.0284639596939087,-0.4248999059200287,-0.1893366426229477,0.3510447144508362,29.494760513305664,-9.15440845489502,40.81355667114258,0
445,4449889,0.008378090336918831,-0.025257229804992676,-1.0028659105300903,0.05332164466381073,0.6211861968040466,-0.10016658157110214,29.82485580444336,-9.33033561706543,37.43547821044922,0
446,4459954,0.007461032830178738,-0.007405257783830166,-0.9709272980690002,0.6826927661895752,-0.35116875171661377,0.18111270666122437,31.04183006286621,-9.329667091369629,37.135345458984375,0
447,4470250,-0.03476771339774132,-0.0878276377916336,-0.9905725717544556,0.35733097791671753,0.9343425631523132,0.21090632677078247,31.797733306884766,-8.66257095336914,40.71570587158203,0
448,4479945,0.08943875133991241,-0.018329249694943428,-1.0021387338638306,0.08067044615745544,-0.5084154009819031,0.007288416847586632,30.011974334716797,-9.044025421142578,40.82891082763672,0
449,4490018,0.08129899948835373,-0.03768255561590195,-0.9914092421531677,-0.6369540095329285,0.48057758808135986,-0.19506748020648956,30.03708839416504,-9.218098640441895,40.73564529418945,0
450,4500173,0.06251715868711472,0.026098228991031647,-1.0053250789642334,0.3205236792564392,-0.11370977014303207,-0.1779504120349884,28.575212478637695,-10.267937660217285,41.02388000488281,0
451,4510012,0.019598664715886116,-0.02045198157429695,-0.9912892580032349,-0.5208059549331665,0.4357084333896637,0.5300608277320862,30.016870498657227,-8.379939079284668,39.6814079284668,0
452,4519970,-0.12457939982414246,-0.04218318685889244,-1.004219889640808,-0.6253318786621094,-0.11295807361602783,-0.02990228869020939,31.742107391357422,-10.189523696899414,38.601314544677734,0
453,4530319,0.06678702682256699,-0.006474369205534458,-0.9774946570396423,0.4853944778442383,-0.3655504882335663,0.15815967321395874,28.29648208618164,-10.95262336730957,39.51787185668945,0
454,4540000,0.01525014266371727,-0.08599298447370529,-1.02617347240448,-0.17855902016162872,-0.2377687394618988,0.17824295163154602,28.88564682006836,-9.287714004516602,40.20391845703125,0
455,4550047,0.0815654918551445,-0.03698277845978737,-0.9768585562705994,-0.19281117618083954,-0.2784445285797119,0.5089237689971924,28.884368896484375,-9.671273231506348,38.86152267456055,0
456,4559926,0.008991598151624203,0.04146501421928406,-1.0072813034057617,0.16370856761932373,-0.02565612457692623,-0.5804281234741211,31.642789840698242,-10.2783842086792,38.90961456298828,0
457,4569998,0.06811797618865967,-0.009976339526474476,-1.00989830493927,0.6962279081344604,0.00951733160763979,0.07436597347259521,29.805391311645508,-10.130809783935547,40.861167907714844,0
458,4579769,0.04187259078025818,0.03007153607904911,-1.0185133218765259,-0.4492513835430145,-0.2207440733909607,-0.07805118709802628,30.68219757080078,-9.37977409362793,38.93427276611328,0
459,4590118,-0.01611408405005932,0.0021139406599104404,-0.9807578921318054,-0.517727255821228,0.21019558608531952,0.431211918592453,28.933074951171875,-10.752873420715332,40.423789978027344,0
460,4600152,0.008182059973478317,0.007733147591352463,-0.9929064512252808,0.16690954566001892,0.40954792499542236,0.44715043902397156,31.033212661743164,-10.105743408203125,39.51576232910156,0
461,4610046,0.06980576366186142,0.05653451755642891,-0.9567267298698425,-0.16599199175834656,0.04190460965037346,0.4851381182670593,29.62042236328125,-9.343212127685547,39.44167709350586,0
462,4620099,-0.004752775188535452,-0.059487372636795044,-1.0164507627487183,-0.36152535676956177,0.7116526961326599,-0.14503011107444763,29.72846031188965,-9.40900993347168,40.16353225708008,0
463,4630144,-0.00532726664096117,0.01437547616660595,-0.988517165184021,0.2802422046661377,0.13780349493026733,-0.3322996497154236,30.529062271118164,-11.221631050109863,39.126060485839844,0
464,4640042,0.07836757600307465,0.07024305313825607,-0.9988173246383667,0.04148499667644501,0.10568522661924362,0.49427688121795654,30.10710334777832,-7.989680767059326,40.14271545410156,0
465,4649859,-0.04843970388174057,0.04962441325187683,-0.9653025269508362,0.08784199506044388,-0.340972900390625,0.14363577961921692,29.525835037231445,-10.481620788574219,39.93177795410156,0
466,4660094,-0.01080351509153843,0.14483094215393066,-0.9800638556480408,1.0797538757324219,-0.1936122626066208,0.019028203561902046,31.07401466369629,-8.038778305053711,40.53522872924805,0
467,4669949,0.06519094109535217,0.04282410815358162,-0.9928204417228699,-0.7343767881393433,0.0018334127962589264,0.3519396483898163,30.638504028320312,-10.500518798828125,40.8805046081543,0
468,4679838,-0.017223363742232323,-0.0035467343404889107,-1.0016716718673706,0.8356447219848633,0.5463871359825134,0.4619073271751404,30.5519962310791,-10.341729164123535,40.07699966430664,0
469,4689887,0.09186913818120956,-0.047948792576789856,-1.0035653114318848,0.5207203030586243,0.7546299695968628,-0.5564566850662231,29.3979549407959,-9.794303894042969,40.24697494506836,0
470,4699769,-0.0037567922845482826,-0.0011703429045155644,-0.9752862453460693,-0.41442859172821045,0.5143035054206848,-0.18125347793102264,29.361101150512695,-11.160828590393066,40.08677673339844,0
471,4710101,0.0633443146944046,0.0008037390653043985,-1.0293689966201782,0.31028512120246887,-0.09979166090488434,-0.13111521303653717,31.94322395324707,-9.555550575256348,39.89047622680664,0
472,4719906,-0.02710687182843685,0.03620688617229462,-0.9937804341316223,0.18755462765693665,0.7881369590759277,-1.0833172798156738,29.315343856811523,-10.80971908569336,40.146392822265625,0
473,4729977,0.006552617996931076,-0.021384308114647865,-0.9966952204704285,0.6519882678985596,0.17311276495456696,-0.47913485765457153,29.943052291870117,-10.994815826416016,38.666656494140625,0
474,4739725,-0.013838172890245914,-0.03993696719408035,-1.0138354301452637,0.5651571750640869,-0.41123130917549133,0.5160247087478638,27.800098419189453,-11.236281394958496,41.4083137512207,0
475,4749979,-0.09800062328577042,-0.06974923610687256,-1.0453404188156128,0.004885219037532806,1.0364965200424194,-0.16119275987148285,30.790828704833984,-9.311945915222168,38.22886657714844,0
476,4760109,-0.1561782956123352,0.016152342781424522,-0.9983259439468384,0.14622357487678528,0.2874702513217926,0.018918758258223534,28.433727264404297,-7.669717788696289,40.95543670654297,0
477,4770024,-0.05000869557261467,0.01763996295630932,-1.0184131860733032,0.2797231078147888,-0.09677552431821823,-0.2086406797170639,29.990882873535156,-8.865341186523438,40.735015869140625,0
478,4779940,0.03697366267442703,0.0026455919723957777,-1.0040487051010132,-1.1573702096939087,0.21494555473327637,0.6059092879295349,31.495025634765625,-10.016142845153809,40.345184326171875,0
479,4790144,-0.07393636554479599,-0.025930820032954216,-0.9607695937156677,-1.1173382997512817,-1.1574760675430298,0.016934625804424286,30.827457427978516,-9.547930717468262,40.211273193359375,0
480,4799986,0.08936131000518799,-0.0675276517868042,-0.9989079833030701,0.47434476017951965,0.520562469959259,0.2154722958803177,31.54749870300293,-10.503045082092285,40.12259292602539,0
481,4809937,-0.14871180057525635,-0.0021849852055311203,-0.9878658056259155,-0.09818142652511597,-0.8957504630088806,0.3808853328227997,30.898588180541992,-9.68211555480957,40.529502868652344,0
482,4819997,-0.016114449128508568,-0.09102802723646164,-1.0136628150939941,0.2580609619617462,-0.1021462082862854,0.4480805993080139,30.112735748291016,-9.95960521697998,39.23048782348633,0
483,4829818,-0.058751385658979416,0.038069725036621094,-0.9834060668945312,0.0548580177128315,-0.03564558923244476,0.7304471135139465,30.045673370361328,-10.088746070861816,39.96940612792969,0
484,4840091,0.003941323142498732,-0.059843167662620544,-1.005402684211731,-0.2478807419538498,0.4088606834411621,0.018487995490431786,31.60089111328125,-11.024909019470215,41.10101318359375,0
485,4850198,0.016520347446203232,-0.08107614517211914,-0.9879293441772461,-0.5201727747917175,-0.06654394418001175,-0.2051880955696106,31.992942810058594,-10.8544340133667,39.871055603027344,0
486,4859676,-0.04601931571960449,0.04577143117785454,-0.9898982048034668,0.5641254186630249,-0.032604556530714035,-0.3118469715118408,31.0030517578125,-8.79603385925293,39.651676177978516,0
487,4869946,0.027755822986364365,0.06858000159263611,-0.9805474877357483,-0.3790215849876404,-0.16532890498638153,-0.814955472946167,29.679729461669922,-10.725083351135254,37.70404815673828,0
488,4880028,0.013332052156329155,0.04619115963578224,-0.9612036347389221,0.24218130111694336,-0.04018831625580788,-0.08100301027297974,29.586814880371094,-9.291021347045898,41.60826873779297,0
489,4889965,-0.07561958581209183,0.056028492748737335,-0.9734740257263184,-0.6496458053588867,-0.8457961678504944,1.062179684638977,31.52414321899414,-9.335198402404785,40.644344329833984,0
490,4900180,-0.07261205464601517,0.009887270629405975,-0.9953473806381226,0.13802354037761688,-0.11149033904075623,0.08137815445661545,29.541635513305664,-10.791949272155762,40.74156951904297,0
491,4910040,-0.045752182602882385,0.008693644776940346,-1.0043234825134277,-0.2981537878513336,0.23302501440048218,-0.26853400468826294,29.203643798828125,-11.177460670471191,40.660099029541016,0
492,4919922,0.010231222957372665,0.023713354021310806,-0.9796249866485596,0.5454617142677307,0.4830520451068878,0.5194441676139832,30.03865623474121,-10.110939979553223,38.547096252441406,0
493,4930026,-0.012192985974252224,-0.05103038623929024,-1.0029566287994385,-0.2801903784275055,-0.30259448289871216,0.7443177103996277,28.835790634155273,-10.459766387939453,40.52865982055664,0
494,4939958,0.058507684618234634,0.002169713145121932,-1.0178712606430054,0.8141053318977356,-0.4973846971988678,0.2616019546985626,29.292749404907227,-12.040931701660156,38.891876220703125,0
495,4949981,0.011348769068717957,0.05822107940912247,-1.0261799097061157,-0.5626207590103149,-0.15594631433486938,-0.8454956412315369,31.424724578857422,-11.29758358001709,40.46891784667969,0
496,4960145,-0.07560049742460251,0.007456181105226278,-0.9695013165473938,0.4793563783168793,0.9020742177963257,-0.3033141493797302,31.228164672851562,-9.657196044921875,40.54674530029297,0
497,4970078,-0.034763455390930176,0.056273605674505234,-0.9946612119674683,-0.8555428981781006,0.7185749411582947,-0.056394144892692566,31.31732749938965,-9.670600891113281,39.517578125,0
498,4979915,-0.0005769284325651824,0.04992426559329033,-0.9900545477867126,-0.00863402709364891,-0.16636554896831512,0.3234395682811737,29.7066650390625,-10.799642562866211,41.23445510864258,0
499,4989795,0.1046454906463623,0.013073808513581753,-1.0228333473205566,-0.42101988196372986,-0.4582073390483856,0.4836607277393341,30.119617462158203,-10.6530122756958,38.240352630615234,0
500,5000227,0.03924937546253204,-0.021198473870754242,-0.9705266356468201,0.3792746067047119,0.2353622019290924,-0.16455566883087158,29.54874038696289,-10.883490562438965,39.1357307434082,0
501,5010127,0.15429627895355225,-0.05489256605505943,-0.9745199680328369,0.33109050989151,1.0654996633529663,0.35864463448524475,29.260709762573242,-9.877365112304688,39.40314865112305,0
502,5020117,0.09758324176073074,0.058216020464897156,-0.9928469657897949,-0.4471525251865387,-0.45592406392097473,-0.8279802799224854,30.12432289123535,-8.763545989990234,40.48361587524414,0
503,5029842,0.07051487267017365,0.031789615750312805,-0.9769960641860962,-0.23179468512535095,-1.1392631530761719,1.0369012355804443,28.968259811401367,-10.115364074707031,40.936832427978516,0
504,5039973,-0.10161849111318588,-0.05060620605945587,-1.0290778875350952,-0.3134850263595581,-0.1345195323228836,-0.19634747505187988,28.858442306518555,-10.904474258422852,39.427825927734375,0
505,5050135,-0.014864588156342506,-0.16782091557979584,-1.009909749031067,0.47724875807762146,0.36189574003219604,0.1300858110189438,30.400684356689453,-10.34801197052002,39.379825592041016,0
506,5059959,-0.018603576347231865,-0.013341247104108334,-1.0151140689849854,-0.8429147005081177,0.5113849639892578,-0.13305170834064484,29.449495315551758,-10.766210556030273,38.7476921081543,0
507,5069861,0.0792747214436531,-0.060817278921604156,-1.0035834312438965,-0.5254613757133484,-0.5533337593078613,-0.47614291310310364,30.169166564941406,-9.575360298156738,39.4049072265625,0
508,5079987,0.05173537880182266,0.0629834532737732,-0.9759276509284973,-0.11762313544750214,0.25881505012512207,-0.6830040812492371,29.163307189941406,-9.259627342224121,40.91470718383789,0
509,5090066,-0.0004114408802706748,-0.1031680479645729,-1.0241587162017822,0.08044732362031937,0.13748671114444733,0.30070623755455017,29.635622024536133,-10.364974975585938,39.97662353515625,0
510,5100016,-0.06904027611017227,-0.010539914481341839,-1.0018386840820312,-0.0036800026427954435,-0.03830293193459511,0.17014798521995544,27.568374633789062,-9.666711807250977,41.25044631958008,0
511,5109858,-0.05350209400057793,0.0437973253428936,-0.9935150742530823,-0.19232963025569916,0.13621091842651367,0.23545899987220764,28.695621490478516,-11.16701889038086,39.43025207519531,0
512,5119937,-0.008224639110267162,-0.01541874185204506,-1.01823091506958,-0.9418773651123047,-0.34706342220306396,0.0684494599699974,28.848573684692383,-10.491164207458496,39.31186294555664,0
513,5129990,-0.03193654119968414,0.018561668694019318,-1.0287903547286987,-0.35249948501586914,-0.04855586960911751,0.02676629275083542,31.368547439575195,-8.172013282775879,39.61507034301758,0
514,5139967,0.10237516462802887,0.04256065934896469,-0.9861214756965637,0.6858258843421936,-0.03989143297076225,0.08605046570301056,31.31959342956543,-8.4417724609375,39.357337951660156,0
515,5149825,-0.05444222688674927,-0.004502733238041401,-1.0049477815628052,-0.16516435146331787,0.6672663688659668,-0.6403768062591553,28.611448287963867,-10.460896492004395,39.35239028930664,0
516,5160205,-0.052861034870147705,0.0809958353638649,-0.9810819029808044,0.5809511542320251,0.4690876007080078,0.27791473269462585,30.17384147644043,-9.989585876464844,40.5439453125,0
517,5170135,-0.00551069900393486,0.12582364678382874,-1.0156302452087402,-0.37084758281707764,1.1070177555084229,0.5504839420318604,29.88789939880371,-11.533785820007324,39.66690444946289,0
518,5179913,-0.05107693746685982,-0.06998496502637863,-1.003848910331726,-0.2434827983379364,-0.58194500207901,-0.6721773147583008,28.988676071166992,-9.476967811584473,38.963531494140625,0
519,5189998,-0.014018288813531399,-0.017704715952277184,-0.970533549785614,-0.38372159004211426,0.2193942815065384,0.17417164146900177,31.294891357421875,-10.804708480834961,40.63605880737305,0
520,5199936,0.04099685326218605,0.0038499783258885145,-0.9867193102836609,0.3478749096393585,-0.47002705931663513,-0.053996775299310684,28.550825119018555,-8.00112533569336,39.18333053588867,0
521,5209738,0.0352068766951561,0.012548631057143211,-1.016550064086914,0.07124708592891693,0.5892770290374756,-0.769274115562439,30.143779754638672,-10.562421798706055,39.986576080322266,0
522,5220350,-0.09387984871864319,-0.061552636325359344,-0.9794125556945801,-0.6727304458618164,0.42182865738868713,0.4831864535808563,29.644916534423828,-9.40064811706543,39.80303955078125,0
523,5229854,0.045578546822071075,0.022773824632167816,-1.0193800926208496,-0.8888250589370728,-0.39810216426849365,-0.6024869680404663,31.563095092773438,-9.242871284484863,39.992332458496094,0
524,5240126,0.014298253692686558,0.008365357294678688,-0.9928575158119202,-0.5585110783576965,-0.3922881782054901,0.6307017207145691,30.920255661010742,-10.755762100219727,36.74695587158203,0
525,5249912,-0.04677829146385193,0.02752264402806759,-1.0114266872406006,-0.2770155966281891,0.031551260501146317,0.19415970146656036,31.08758544921875,-10.63115406036377,41.30653762817383,0
526,5260211,-0.02037285827100277,-0.031481750309467316,-1.0146634578704834,0.14467942714691162,-0.5464236736297607,0.12452901154756546,30.276567459106445,-10.622058868408203,37.23393249511719,0
527,5270240,0.027637267485260963,-0.12263405323028564,-1.007969617843628,0.1762923002243042,0.9648058414459229,0.5678032636642456,30.971399307250977,-10.640060424804688,40.363983154296875,0
528,5280209,0.07938377559185028,-0.018236061558127403,-1.0046696662902832,-0.46907562017440796,0.11602767556905746,0.29620492458343506,28.811508178710938,-10.626823425292969,40.1998291015625,0
529,5289914,0.03732765465974808,-0.0035411217249929905,-1.050903558731079,0.3361393213272095,0.6033268570899963,-0.7293441891670227,27.74481964111328,-10.902185440063477,37.9169807434082,0
530,5299739,0.059410467743873596,-0.022253189235925674,-1.0231465101242065,-0.21110650897026062,0.31782713532447815,-0.014935236424207687,29.932437896728516,-9.57004451751709,38.92451477050781,0
531,5309847,-0.020418252795934677,-0.05609435588121414,-1.00273859500885,0.3222580850124359,-0.275122731924057,-0.33954402804374695,30.66931915283203,-10.649600982666016,39.414852142333984,0
532,5319729,0.0034758150577545166,0.03608405217528343,-0.9751929640769958,-0.23636476695537567,0.20930467545986176,-0.24376168847084045,30.335826873779297,-13.379500389099121,39.42382049560547,0
533,5330003,-0.08556295931339264,0.14254449307918549,-1.026316523551941,0.8125770688056946,-0.1305970698595047,0.06821116805076599,30.958423614501953,-8.56335735321045,39.86100769042969,0
534,5339700,0.03621988743543625,-0.05106199160218239,-0.9523205161094666,-0.6640024185180664,0.28613489866256714,-0.2003081738948822,28.085796356201172,-10.06701374053955,39.39583969116211,0
535,5349749,0.009098976850509644,-0.1130136176943779,-0.9708414673805237,0.3992730677127838,-0.42334428429603577,-0.18113331496715546,29.663055419921875,-8.674025535583496,39.80535125732422,0
536,5360000,0.07255885004997253,-0.051226042211055756,-0.9766307473182678,-0.3154974579811096,0.19437745213508606,-0.5962252020835876,30.17675018310547,-9.515543937683105,39.54734420776367,0
537,5370115,-0.007513076066970825,-0.05316001549363136,-0.9956086277961731,0.6987026333808899,0.25877079367637634,0.2426125556230545,30.669437408447266,-12.239200592041016,40.366275787353516,0
538,5379775,-0.0053398869931697845,0.04292602837085724,-0.9758250117301941,-0.4812037944793701,0.5047234892845154,-0.30384087562561035,30.152847290039062,-10.948688507080078,38.60645294189453,0
539,5389960,0.06711149215698242,-0.015032097697257996,-1.009179949760437,0.5663501620292664,0.3940868377685547,0.11543141305446625,29.829195022583008,-8.123749732971191,38.39493942260742,0
540,5399934,0.15440914034843445,-0.09442125260829926,-1.0188690423965454,-0.12850433588027954,-1.074675440788269,-0.9952139258384705,31.130517959594727,-10.486042976379395,40.561546325683594,0
541,5409944,-0.040606796741485596,-0.07698991894721985,-1.0131433010101318,0.5619946122169495,0.49847257137298584,-0.11605510115623474,28.23137855529785,-10.581607818603516,39.753963470458984,0
542,5420105,0.06668468564748764,-0.004850583150982857,-1.00184166431427,0.028435751795768738,0.42853471636772156,-0.12244734913110733,28.41815185546875,-8.565420150756836,40.00667953491211,0
543,5430326,-0.07999197393655777,0.06393938511610031,-0.9815731048583984,-0.5704711675643921,0.21106122434139252,-0.251723051071167,28.577133178710938,-10.948724746704102,39.12314224243164,0
544,5439857,-0.002821562113240361,0.003154295263811946,-1.015557885169983,-0.11427878588438034,-0.10020802915096283,0.145011767745018,30.70600700378418,-10.460222244262695,40.057655334472656,0
545,5450060,0.10387469828128815,0.05200853943824768,-0.9541271328926086,0.3299694359302521,-0.20814865827560425,-0.7250122427940369,29.663414001464844,-10.167369842529297,39.43260192871094,0
546,5460097,-0.09431145340204239,-0.029553217813372612,-1.0023757219314575,-1.0924822092056274,-0.9081752896308899,-0.2684082090854645,30.334386825561523,-9.533218383789062,41.99774932861328,0
547,5470082,0.023412181064486504,0.036219313740730286,-0.9932470917701721,-0.01972782611846924,0.7415390610694885,0.39146044850349426,30.668367385864258,-10.560595512390137,40.64534378051758,0
548,5480230,-0.010586119256913662,0.036866694688797,-1.0218851566314697,-0.4794330596923828,0.40422573685646057,-0.93961101770401,29.211105346679688,-9.505650520324707,41.096710205078125,0
549,5489959,0.08033055812120438,-0.04254056140780449,-1.0006260871887207,-0.665675938129425,-0.44051358103752136,-0.5500307679176331,30.735633850097656,-8.988008499145508,40.02183151245117,0
550,5499751,-0.016802581027150154,0.0017709931125864387,-0.9960961937904358,0.640636682510376,-0.730032742023468,0.5478635430335999,30.7796688079834,-9.80941390991211,39.953487396240234,0
551,5510128,-0.08536184579133987,0.0669630616903305,-1.01460599899292,0.8728526830673218,-0.2155124396085739,-0.0712289810180664,30.03250503540039,-8.365983009338379,39.06013870239258,0
552,5520052,-0.0641438215970993,0.008672545664012432,-0.9982460141181946,-0.29797929525375366,-0.2242930829524994,0.16800633072853088,30.369640350341797,-8.340389251708984,37.643035888671875,0
553,5530303,-0.03649222478270531,-0.07442689687013626,-0.9942092895507812,0.5174618363380432,0.16993758082389832,-0.8655152916908264,29.94040298461914,-9.818443298339844,39.998172760009766,0
554,5539844,0.0016425461508333683,-0.07804281264543533,-1.031481146812439,1.0954821109771729,0.9685066342353821,-0.8582574129104614,29.812740325927734,-10.081217765808105,40.496055603027344,0
555,5549857,0.023957135155797005,0.03323717415332794,-0.9999102354049683,0.6626892685890198,-0.02637493424117565,0.6784898638725281,28.893924713134766,-9.284772872924805,38.285709381103516,0
556,5559868,-0.015820061787962914,0.02868153341114521,-0.9529830813407898,0.7779713273048401,0.23125497996807098,-0.09210148453712463,30.32171630859375,-8.940818786621094,38.71257781982422,0
557,5569922,0.02320955879986286,0.0549844466149807,-0.9937661290168762,-0.2255525290966034,-0.4664756655693054,0.22998912632465363,29.287137985229492,-9.558477401733398,40.445831298828125,0
558,5580129,-0.007876249961555004,-0.014289533719420433,-1.001731038093567,0.22748710215091705,-0.1586693674325943,-0.14190779626369476,29.396081924438477,-10.942584991455078,41.13829040527344,0
559,5589758,-0.016868826001882553,0.06470001488924026,-0.9956997632980347,0.40431174635887146,-0.01847941428422928,-0.5143295526504517,31.61440658569336,-7.7193922996521,41.264888763427734,0
560,5599735,-0.046129010617733,-0.10526791214942932,-0.9405333399772644,0.20068775117397308,-0.3009136915206909,0.9690276384353638,30.18241310119629,-9.636066436767578,39.276893615722656,0
561,5610026,0.0640261247754097,0.025670329108834267,-0.9665297865867615,-0.6638080477714539,-0.07590672373771667,0.22911512851715088,31.424545288085938,-9.53746509552002,40.072837829589844,0
562,5619982,-0.05401569604873657,-0.07627664506435394,-1.00465726852417,-0.23107147216796875,-0.37383922934532166,0.6315537691116333,30.034934997558594,-9.671969413757324,39.59551239013672,0
563,5629741,-0.015774987637996674,0.009035708382725716,-1.0159354209899902,-0.6394211053848267,0.4263038635253906,0.2503318786621094,29.64546775817871,-8.820456504821777,41.865074157714844,0
564,5639882,-0.007154008373618126,0.05539821833372116,-1.0111424922943115,0.2937704622745514,-0.6870583295822144,-0.6386324763298035,29.06802749633789,-10.937304496765137,41.265777587890625,0
565,5649905,0.03889698535203934,0.0002104734448948875,-0.9965952038764954,-0.2253568172454834,0.16549426317214966,0.16438263654708862,30.335607528686523,-9.049935340881348,40.82275390625,0
566,5659743,0.03568296134471893,-0.009295460768043995,-0.9904713034629822,-0.6473879814147949,0.6380350589752197,-0.38915887475013733,31.571435928344727,-10.003713607788086,39.597232818603516,0
567,5669798,-0.05241530016064644,0.01794661208987236,-1.005138874053955,-0.22472527623176575,0.04163024201989174,-0.33687490224838257,28.756067276000977,-9.646910667419434,38.53413009643555,0
568,5679911,-0.08330980688333511,0.04844300076365471,-0.9741076827049255,-0.40626055002212524,0.4143263101577759,0.5140873193740845,31.0008487701416,-10.826225280761719,40.051456451416016,0
569,5689979,-0.04833567142486572,-0.010481256991624832,-0.9948683381080627,0.09616448730230331,-0.5681315064430237,-0.5525831580162048,29.217933654785156,-9.528482437133789,39.62932205200195,0
570,5699882,0.037727829068899155,0.046842191368341446,-1.0226610898971558,-0.4285842478275299,0.09285751730203629,0.035718146711587906,30.424026489257812,-7.589142322540283,41.152042388916016,0
571,5709888,-0.011859254911541939,0.09056970477104187,-0.9925951361656189,-0.05821826308965683,-0.3624444305896759,0.9094540476799011,31.186267852783203,-10.055055618286133,40.445003509521484,0
572,5719867,-0.06747379153966904,-0.028439447283744812,-1.0291757583618164,-0.34128063917160034,-0.21981818974018097,-0.08202724158763885,29.04059600830078,-8.563436508178711,40.186222076416016,0
573,5729842,0.06772235035896301,-0.004052413161844015,-1.020914077758789,-0.2464904934167862,-0.036973513662815094,-0.35923606157302856,28.59711456298828,-9.429779052734375,41.25312042236328,0
574,5740135,0.012398974038660526,-0.03525542467832565,-0.9705353379249573,0.09121941775083542,-0.5274302363395691,0.8123675584793091,30.716684341430664,-10.133808135986328,40.854740142822266,0
575,5750002,-0.020766867324709892,0.06833667308092117,-0.9949408769607544,0.12273473292589188,-0.14894095063209534,0.17913177609443665,29.635555267333984,-8.652022361755371,40.17195129394531,0
576,5759861,0.002384032355621457,-0.043253105133771896,-1.0225107669830322,0.6576801538467407,0.0455823689699173,0.46804407238960266,29.216392517089844,-9.016469955444336,40.64476776123047,0
577,5770122,-0.030684854835271835,-0.005158001556992531,-1.0247033834457397,-0.10823091864585876,0.618360161781311,0.3459734618663788,30.785306930541992,-9.68356990814209,41.26490783691406,0
578,5779870,-0.0358787439763546,0.027989957481622696,-1.0081312656402588,-0.39999398589134216,-0.3471808433532715,0.08523810654878616,29.088850021362305,-8.823116302490234,39.4722900390625,0
579,5790278,-0.027310628443956375,0.11674943566322327,-0.9963124990463257,0.6244194507598877,0.03868011385202408,-0.7186495065689087,29.119579315185547,-9.942811012268066,40.39180374145508,0
580,5800101,0.09782189875841141,0.09915975481271744,-0.9953714609146118,-0.6323873996734619,-0.014921091496944427,-0.20435480773448944,29.658063888549805,-10.345484733581543,40.6175651550293,0
581,5810072,-0.006192285101860762,0.07014217972755432,-0.9812998175621033,0.2171788066625595,-0.05900363624095917,0.13565073907375336,30.47947120666504,-10.066142082214355,40.11237716674805,0
582,5820082,0.03366132453083992,0.03483346104621887,-1.0008550882339478,-0.1437482386827469,0.28925734758377075,0.03327404335141182,31.261821746826172,-8.938211441040039,39.577484130859375,0
583,5829566,-0.027490001171827316,-0.013921167701482773,-1.0121351480484009,0.03768566995859146,0.08735228329896927,-0.1752060502767563,29.33523941040039,-9.338254928588867,39.80052185058594,0
584,5840141,-0.11190498620271683,0.011191884987056255,-1.0217137336730957,-0.02416125312447548,1.196768879890442,-0.2338017076253891,31.61098861694336,-8.754061698913574,40.10934829711914,0
585,5849967,-0.04743427038192749,-0.034154314547777176,-1.001963496208191,0.12316840887069702,-0.11825631558895111,0.38764798641204834,30.527141571044922,-10.857382774353027,40.40537643432617,0
586,5860120,-0.043888822197914124,-0.05658503249287605,-0.9946222305297852,0.6048987507820129,0.2632189989089966,0.23049865663051605,29.55028533935547,-9.792612075805664,40.37487030029297,0
587,5869861,0.009483277797698975,-0.04916371777653694,-0.9804522395133972,-0.9036948084831238,0.17945188283920288,-0.476095050573349,30.344453811645508,-12.902151107788086,41.80113983154297,0
588,5879922,-0.00941075012087822,-0.04314841330051422,-0.986506998538971,1.2094043493270874,0.9277703762054443,-0.259010910987854,28.756113052368164,-10.221065521240234,40.711971282958984,0
589,5890082,-0.025797808542847633,-0.015758395195007324,-0.9670125246047974,-0.5067670345306396,-0.5423814058303833,0.22624646127223969,30.023853302001953,-7.37274694442749,39.9891242980957,0
590,5900143,0.06452587246894836,0.045682720839977264,-1.003348708152771,0.5497473478317261,-0.026707714423537254,-0.04352334886789322,29.51725959777832,-8.257901191711426,39.538116455078125,0
591,5909938,0.10604870319366455,0.0526965893805027,-1.0037864446640015,-0.07658036798238754,0.8548438549041748,0.012309427373111248,31.515151977539062,-9.99105167388916,38.73356246948242,0
592,5920153,0.07514222711324692,-0.013430062681436539,-1.003589391708374,0.39639830589294434,0.8343213200569153,-0.6045124530792236,30.087636947631836,-8.750868797302246,41.29375457763672,0
593,5930049,0.0888247862458229,-0.0032190813217312098,-1.013418436050415,0.5577653050422668,-0.13589531183242798,-0.07777606695890427,28.64073944091797,-8.848289489746094,40.65366744995117,0
594,5939838,4.264362360117957e-06,0.07916847616434097,-1.0104488134384155,-0.28443461656570435,-0.03348162770271301,-0.22220373153686523,29.224735260009766,-11.473522186279297,40.68098831176758,0
595,5949795,-0.0017473259940743446,0.07491748034954071,-1.0334113836288452,0.34553226828575134,0.16044798493385315,-0.39602425694465637,28.404136657714844,-10.65549373626709,40.92049026489258,0
596,5959956,0.003215055912733078,-0.025968709960579872,-0.9593682885169983,0.9256929159164429,0.1636068969964981,0.12519294023513794,29.0469913482666,-10.398822784423828,39.91024398803711,0
597,5970078,-0.043038561940193176,0.07584646344184875,-0.9787806868553162,-1.3332698345184326,0.328449547290802,0.48946860432624817,31.3040771484375,-9.417332649230957,40.3628044128418,0
598,5979831,-0.08208952844142914,-0.015639908611774445,-0.9698857665061951,0.25456732511520386,0.13806860148906708,0.007321752142161131,29.44402313232422,-8.702169418334961,40.52476119995117,0
599,5990294,-0.03171013295650482,-0.015265612863004208,-0.971264660358429,-0.4357694685459137,-0.3195275664329529,0.4897439479827881,29.799375534057617,-9.36169147491455,40.67222213745117,0
600,6000118,0.05050451308488846,-0.04768180474638939,-1.0002790689468384,-0.018726276233792305,0.24866057932376862,-0.41485244035720825,30.118953704833984,-11.296377182006836,39.9108772277832,0
601,6010180,-0.04363827034831047,0.09200358390808105,-1.0223326683044434,0.08037818968296051,0.7492404580116272,0.14930398762226105,29.28603744506836,-8.557145118713379,40.81392288208008,0
602,6020016,-0.12695524096488953,0.01400603074580431,-0.9931761622428894,-0.28385117650032043,0.7484989166259766,0.5136005878448486,30.489545822143555,-11.16576099395752,38.175575256347656,0
603,6029876,0.02531389147043228,0.026310382410883904,-0.9636174440383911,0.4090961217880249,0.4150061309337616,-0.26208534836769104,29.33564567565918,-10.088899612426758,39.77198028564453,0
604,6040087,0.022453289479017258,0.03838876634836197,-1.000430703163147,-0.5311964750289917,0.4527210295200348,-0.8202731013298035,29.785213470458984,-7.761221885681152,37.92179870605469,0
605,6049937,0.044544193893671036,-0.040604621171951294,-1.0220779180526733,-0.30553632974624634,-0.2855340838432312,-0.7290488481521606,30.33552360534668,-10.486806869506836,40.1214599609375,0
606,6059992,0.06367240101099014,0.02985840104520321,-0.9727895855903625,0.039945293217897415,-0.2927563190460205,-0.050881996750831604,29.546293258666992,-10.320334434509277,41.5461540222168,0
607,6069978,0.044604577124118805,0.0014203094178810716,-0.9977840781211853,-1.3358488082885742,0.7078794836997986,-0.28498566150665283,30.058441162109375,-11.21430492401123,39.14315414428711,0
608,6079924,0.030545510351657867,0.04801693186163902,-1.0372079610824585,0.5709946751594543,-0.11096019297838211,-0.6219947338104248,31.515195846557617,-8.668753623962402,39.71278762817383,0
609,6090271,-0.03305160626769066,0.01987743005156517,-1.0074477195739746,-0.2080109417438507,-0.12805746495723724,0.5667726993560791,29.647680282592773,-9.674367904663086,40.49071502685547,0
610,6099939,0.03846551105380058,0.0061557539738714695,-0.9670974612236023,-0.16370251774787903,1.2663425207138062,-1.5133217573165894,29.475116729736328,-9.118974685668945,40.41596603393555,0
611,6109910,-0.07737414538860321,0.048699069768190384,-1.0001001358032227,0.40990424156188965,0.15428689122200012,0.6769303679466248,32.05013656616211,-10.8640775680542,40.066612243652344,0
612,6119946,0.05626564100384712,-0.06966892629861832,-1.0153058767318726,-0.3774756193161011,0.29071637988090515,-0.1719130128622055,29.882036209106445,-9.407368659973145,41.26173400878906,0
613,6129952,0.029707372188568115,0.0603744201362133,-0.983514666557312,0.16519078612327576,-0.40903612971305847,-0.4932461380958557,31.078393936157227,-11.033333778381348,38.93668746948242,0
614,6140044,-0.005672830622643232,-0.014093453995883465,-1.0189608335494995,-0.43526652455329895,0.7815970778465271,0.05205896124243736,30.888324737548828,-7.698181629180908,39.07619094848633,0
615,6149992,0.017476031556725502,0.03011954016983509,-0.99571293592453,0.08740434795618057,-0.12046454101800919,0.9711294770240784,30.773006439208984,-10.803208351135254,40.202186584472656,0
616,6159718,-0.1065688207745552,0.0007746117771603167,-1.0448514223098755,-0.5232188701629639,-0.4544943869113922,0.6337634325027466,29.807334899902344,-8.863236427307129,40.41033172607422,0
617,6169928,-0.041910167783498764,-0.0015371473273262382,-1.011955738067627,-0.7801423668861389,-0.15780003368854523,0.5676479935646057,30.439022064208984,-8.54001235961914,39.7989387512207,0
618,6179994,0.05961676314473152,0.045074135065078735,-0.9614554047584534,0.5285220742225647,-0.4734615683555603,-0.4955993592739105,29.093225479125977,-8.561863899230957,40.73347473144531,0
619,6190068,-0.03483295068144798,-0.0003046021156478673,-0.9944158792495728,-0.7195823788642883,-0.16282127797603607,-0.5657141804695129,31.285017013549805,-9.938639640808105,40.64373016357422,0
620,6199926,-0.02688021771609783,-0.00017213454702869058,-1.0131980180740356,-0.3531658351421356,0.006289937533438206,-0.7195862531661987,29.49990463256836,-7.744187831878662,41.243309020996094,0
621,6209874,-0.06288719922304153,-0.0073590511456131935,-1.0481890439987183,0.06947404891252518,0.12303903698921204,-0.01954375021159649,29.987157821655273,-9.010156631469727,39.86448287963867,0
622,6220122,0.017734818160533905,-0.012897608801722527,-1.0157973766326904,0.23515646159648895,-0.8480564951896667,-0.06266933679580688,29.83509635925293,-8.258108139038086,39.78506851196289,0
623,6229831,0.1323518455028534,0.038946960121393204,-0.9650369882583618,-0.39651721715927124,0.720260739326477,0.17966265976428986,30.400705337524414,-10.965879440307617,41.64931106567383,0
624,6239963,0.04685074836015701,-0.08817503601312637,-1.0000956058502197,0.15131638944149017,-0.2502184808254242,0.4058157801628113,31.520355224609375,-10.338991165161133,40.7116813659668,0
625,6249985,-0.030631152912974358,-0.010467656888067722,-1.018028974533081,0.029339084401726723,-0.23406055569648743,-0.13163462281227112,31.096641540527344,-9.64179801940918,37.19686508178711,0
626,6259888,-0.02107502706348896,-0.025916893035173416,-1.0015873908996582,0.11373549699783325,-0.017056304961442947,0.14764858782291412,28.214052200317383,-10.171093940734863,42.0366325378418,0
