t_ms,ax,ay,az,gx,gy,gz,mx,my,mz,roll_gyro,pitch_gyro,yaw_gyro,roll_cf,pitch_cf,yaw_cf,roll_ekf,pitch_ekf,yaw_ekf,roll_madgwick,pitch_madgwick,yaw_madgwick,roll_mahony,pitch_mahony,yaw_mahony
0.000,-0.04117680713534355,-0.02669340744614601,-0.9931907653808594,-0.8255202770233154,-0.007735520601272583,0.02362380363047123,30.18527603149414,-8.079268455505371,39.980838775634766,-0.3037310838699341,-2.0663444995880127,-0.019457874819636345,0.2622024118900299,-2.618114948272705,1.464583396911621,-0.4477349519729614,0.8435086607933044,-0.539023756980896,-0.18845942616462708,0.8800119757652283,-0.29936662316322327,-1.8148233890533447,0.23837441205978394,0.8611887097358704
9.710,-0.09512905031442642,0.019737564027309418,-1.0275386571884155,1.1259996891021729,-0.6060864925384521,0.18408003449440002,29.6218204498291,-10.972589492797852,42.4815559387207,-0.7823535203933716,1.1014577150344849,-0.8184871673583984,0.45859554409980774,1.0760889053344727,0.4114358127117157,-0.4906613230705261,2.038729190826416,0.31706079840660095,0.2739483714103699,1.0416176319122314,-0.9276825189590454,1.0538573265075684,-1.9669790267944336,-1.3744627237319946
20.073,0.05154436081647873,-0.04090683162212372,-0.9758460521697998,-0.22203466296195984,-0.636783242225647,-0.3936004042625427,29.544483184814453,-10.775699615478516,39.603511810302734,-1.3386902809143066,0.0809323713183403,-0.29639264941215515,-0.4273456633090973,0.6304426789283752,-0.525486171245575,0.0423637218773365,1.4465019702911377,0.35457903146743774,-0.6394277811050415,-0.7984629273414612,-1.299960970878601,0.7565699219703674,0.20368193089962006,-2.022536277770996
30.049,0.07060971856117249,-0.08448753505945206,-1.0002100467681885,0.23396418988704681,-0.07183313369750977,0.39235952496528625,28.479825973510742,-10.970843315124512,38.1558837890625,-1.3914352655410767,1.8056763410568237,0.6333699822425842,0.3677738904953003,-1.0792124271392822,2.8642821311950684,-0.06540423631668091,0.6686006188392639,0.31793734431266785,-0.4742768108844757,0.028130820021033287,-0.7214940190315247,-0.17843498289585114,-1.4996893405914307,-0.8525854349136353
39.948,-0.01938185654580593,0.028033409267663956,-0.9917116165161133,-0.2531681954860687,0.15923400223255157,0.5792354345321655,30.500436782836914,-10.282012939453125,41.3323860168457,0.6168434619903564,1.0305261611938477,-0.32143428921699524,0.5792636275291443,0.12802326679229736,-0.46050533652305603,-0.6861720681190491,1.4417073726654053,-1.381763219833374,0.9298474788665771,-0.6142002940177917,1.9202041625976562,-1.7397992610931396,-0.6504632830619812,1.3347785472869873
49.968,0.10466098040342331,0.0027504386380314827,-1.0029070377349854,-0.3292730450630188,0.10467881709337234,-0.02363269031047821,29.431398391723633,-9.586978912353516,40.20656204223633,0.10107970982789993,-1.1905502080917358,0.6115779280662537,0.3971821665763855,-1.0248287916183472,1.4820727109909058,-0.8717736005783081,1.1743577718734741,-0.09017371386289597,-1.9917590618133545,0.5304831266403198,0.18163681030273438,0.739190399646759,-1.4580891132354736,0.25306305289268494
59.688,-0.04933129996061325,-0.0401446595788002,-1.0199049711227417,0.11779514700174332,0.09400656074285507,-0.5179449319839478,30.202123641967773,-10.861640930175781,39.05293273925781,0.19249340891838074,-2.976165294647217,0.24720609188079834,-0.7574252486228943,-1.8180828094482422,0.5198718905448914,0.9304670095443726,-0.6881211400032043,-0.10971678793430328,0.11831320077180862,-0.5868019461631775,-1.5268304347991943,0.3282138407230377,-1.3834974765777588,-2.317750930786133
70.227,-0.009591060690581799,0.019188400357961655,-1.0011378526687622,-0.3923327922821045,-0.29312166571617126,-0.43057486414909363,30.53387451171875,-10.81010913848877,40.954986572265625,-0.15233637392520905,2.4598913192749023,2.031381368637085,-0.4497367739677429,0.12437479197978973,-0.4971785545349121,0.3794366419315338,1.8724907636642456,1.6028181314468384,-1.2030376195907593,0.9712050557136536,-0.8025187849998474,-0.7104058265686035,1.0342463254928589,0.9030288457870483
79.718,-0.026698319241404533,-0.033067427575588226,-0.9954373836517334,0.5389015078544617,-0.03456687927246094,-1.2709689140319824,29.67921257019043,-10.19089412689209,40.37514877319336,-0.8972378373146057,-1.7792956829071045,0.030983371660113335,1.6905503273010254,0.8672716021537781,-1.3150862455368042,-1.2214832305908203,-1.383579134941101,-1.5647320747375488,-0.39061978459358215,-0.883881151676178,0.8934338688850403,-0.2987437844276428,-0.052991170436143875,-0.0964009016752243
90.022,0.012424864806234837,0.06625380367040634,-0.9927903413772583,-0.5821740627288818,0.1211714968085289,-0.17763850092887878,30.540170669555664,-8.868953704833984,39.95380401611328,-1.1951560974121094,0.22720715403556824,-0.2832374572753906,-2.107534646987915,1.872385859489441,0.8459182977676392,1.9637285470962524,0.877503514289856,-0.4273427128791809,-0.4018447995185852,-1.4476921558380127,0.5011799931526184,1.6059132814407349,-0.3083116412162781,-1.3851748704910278
99.814,0.03816858306527138,-0.08259662985801697,-1.00632643699646,-0.16965067386627197,0.5388327836990356,0.5734468102455139,29.479448318481445,-9.816136360168457,40.39060592651367,0.41179725527763367,-0.08482569456100464,0.25001031160354614,-1.5695421695709229,-1.1148916482925415,-0.22067953646183014,0.702508270740509,-0.6195914149284363,-0.08451171219348907,1.5201612710952759,-2.1705422401428223,1.2072454690933228,-0.4440460205078125,1.645339846611023,-0.121097631752491
110.032,-0.03515253961086273,0.004241588059812784,-1.0004606246948242,-0.6900618076324463,-0.4095993638038635,-0.5525217652320862,32.0318603515625,-11.883102416992188,40.33995056152344,-0.26646724343299866,-1.0108839273452759,0.3815996050834656,-1.05077064037323,-0.7215701341629028,0.3753381073474884,-0.6341764330863953,-0.4535800516605377,0.2369268536567688,-0.524418294429779,1.584784984588623,-0.4682377576828003,-0.8087231516838074,-0.08395397663116455,0.16150838136672974
119.775,0.022738369181752205,0.01862846501171589,-1.0357239246368408,-0.6305661201477051,0.6922594308853149,-0.5100383162498474,29.004091262817383,-10.709165573120117,38.59197998046875,-0.2599540650844574,1.1012920141220093,0.19528509676456451,0.46766775846481323,-2.5594639778137207,1.1146234273910522,0.6695836782455444,-2.3903377056121826,1.5191189050674438,-1.7965532541275024,2.2804110050201416,-0.5195537209510803,0.7998381853103638,-0.2033557891845703,-0.33389875292778015
129.879,0.06593266874551773,-0.018191110342741013,-0.9723673462867737,0.4970083236694336,0.8983449339866638,-0.009401217103004456,27.968687057495117,-10.878830909729004,38.562862396240234,-0.004962841048836708,-0.6553434133529663,0.8859144449234009,-0.2240644097328186,0.8453860878944397,0.5157458782196045,-1.0186012983322144,0.0738563984632492,0.9546334147453308,-1.101480484008789,0.08128297328948975,-0.45980602502822876,-0.35160380601882935,-0.3592642843723297,2.9539663791656494
140.019,-0.038936059921979904,0.08232302218675613,-1.012506127357483,-0.22424079477787018,0.5243924856185913,-0.344759464263916,31.08475685119629,-10.160611152648926,39.35675048828125,-0.9622389078140259,-0.11040317267179489,0.4622326195240021,-0.5962766408920288,0.933272659778595,-0.02238375134766102,-0.3368813693523407,-0.9795342087745667,-1.2524292469024658,0.8424479961395264,-0.05611415579915047,-0.37241673469543457,-0.9664679765701294,-0.09899532794952393,-0.2584933638572693
150.066,0.03255798667669296,-0.014924436807632446,-0.9948071241378784,-0.3575918674468994,-0.42807742953300476,0.704724133014679,30.589582443237305,-9.214605331420898,40.118797302246094,0.23093056678771973,0.07742748409509659,-0.6541039347648621,-1.094614863395691,2.0135085582733154,-1.4018796682357788,-0.380725622177124,1.0680290460586548,1.810408353805542,-0.5612145662307739,1.4167282581329346,0.4718461036682129,-1.7821577787399292,-0.8919427394866943,-0.2333654761314392
160.112,-0.043716952204704285,0.044418446719646454,-0.9967690706253052,-0.14545029401779175,-0.7225356698036194,0.3259473741054535,30.031753540039062,-10.173608779907227,39.17393112182617,0.4961967468261719,-0.037819940596818924,0.416324257850647,-0.37172916531562805,-0.48825886845588684,-1.4986717700958252,-0.19945737719535828,-1.1594536304473877,-1.4996098279953003,0.6171299815177917,0.12696139514446259,-0.29428553581237793,-1.4253448247909546,-1.1298434734344482,-1.8175849914550781
170.128,-0.08800575137138367,-0.05993488058447838,-0.9796029925346375,-0.26412805914878845,-0.5619128346443176,0.7852495312690735,29.735958099365234,-9.618393898010254,38.92792510986328,-1.8575668334960938,0.36437833309173584,0.04524436965584755,-0.9185550212860107,-0.03864474222064018,-2.5422444343566895,-0.7796037793159485,1.0421500205993652,-0.11324988305568695,0.05364034324884415,-0.8541992902755737,0.3731559216976166,0.2240036278963089,1.9316757917404175,0.5545560121536255
179.713,-0.04762156307697296,0.031833961606025696,-0.9898242950439453,-0.2721375524997711,0.1903776377439499,0.2757510244846344,29.837963104248047,-11.944427490234375,40.225162506103516,-0.077478788793087,-0.13553600013256073,0.9469528198242188,1.0132230520248413,-0.04952886328101158,0.31652432680130005,-0.013666992075741291,-0.890125036239624,-1.353148102760315,0.21658116579055786,-0.9780731201171875,-0.6674452424049377,-0.4370350241661072,0.023234684020280838,0.9962077140808105
190.003,0.0069997841492295265,0.030579550191760063,-1.0051666498184204,-1.1507058143615723,-0.6582398414611816,-0.6244000792503357,30.136680603027344,-8.769145965576172,39.986846923828125,0.9783487915992737,-0.8777841925621033,0.6751877069473267,2.6510908603668213,-1.7772716283798218,-0.3377635180950165,-0.1918048858642578,0.22516728937625885,0.3744228780269623,1.0785208940505981,-0.5205054879188538,-0.39691346883773804,1.3754820823669434,-0.44918692111968994,0.8314000368118286
199.700,0.027092434465885162,0.06537109613418579,-0.9919853806495667,0.24767418205738068,0.15468771755695343,0.6283769607543945,30.8095760345459,-9.093060493469238,40.29594039916992,0.6323265433311462,-1.8552534580230713,-1.0969959497451782,-1.066754937171936,2.2016093730926514,0.5145400762557983,-0.6217408180236816,0.6657428741455078,-0.08185023069381714,0.5300304889678955,-0.05708339437842369,-0.22575479745864868,0.1297062337398529,-0.1790262758731842,-0.5807554721832275
209.826,0.0446724034845829,0.02215423434972763,-0.9801986217498779,0.9775318503379822,0.31772080063819885,1.214185118675232,29.344547271728516,-10.827054023742676,40.161964416503906,-0.6719130873680115,-0.7653495669364929,-0.8298406004905701,-0.7445873618125916,-0.6241602897644043,0.4686203598976135,0.5847010016441345,-1.0356426239013672,0.631870687007904,-0.6999268531799316,-0.7336413860321045,-0.2632843255996704,0.26523932814598083,0.03518206998705864,0.3960070312023163
219.871,-0.0015902002342045307,-0.0069318064488470554,-1.0081706047058105,-0.42250460386276245,0.020958641543984413,-0.09814593195915222,29.133716583251953,-10.545106887817383,39.730777740478516,0.23043742775917053,0.4742084741592407,0.5231541395187378,-1.537827730178833,0.12754064798355103,0.04511822760105133,-1.4102404117584229,-0.49888601899147034,-1.5851749181747437,-0.04523341357707977,1.0031780004501343,-1.2408099174499512,0.7211818695068359,-0.37966686487197876,-0.783050537109375
229.987,-0.010997018776834011,-0.03925943747162819,-1.0149531364440918,-0.09847483783960342,0.40387487411499023,0.011613927781581879,29.972667694091797,-10.502033233642578,39.55544662475586,0.7834278345108032,0.09196076542139053,0.14403831958770752,0.14874815940856934,0.23925961554050446,-0.05003762245178223,-0.4970155954360962,-0.15777406096458435,-0.3916793465614319,0.6762403249740601,-1.3414225578308105,-0.7844187021255493,0.26644179224967957,-0.7621220350265503,0.33114826679229736
239.788,-0.06306043267250061,-0.04035079479217529,-1.0402865409851074,-0.24526068568229675,-0.1817527413368225,-0.3655719757080078,29.17736053466797,-9.994504928588867,40.92457580566406,-0.012285029515624046,1.213930368423462,1.3523191213607788,-1.8196734189987183,0.31348398327827454,1.080865740776062,0.6842026710510254,-0.7726941108703613,-0.758125901222229,0.501032829284668,0.3182408809661865,-1.4811465740203857,-0.003833336755633354,1.2468867301940918,1.50214684009552
249.988,-0.022959133610129356,0.007186837028712034,-1.0072680711746216,-0.32995861768722534,0.648766279220581,-0.3912930488586426,30.34982681274414,-8.744471549987793,40.06256103515625,1.4265140295028687,-2.1830952167510986,1.0937925577163696,0.047388460487127304,0.8144508600234985,0.24751241505146027,0.979354977607727,-0.9360078573226929,0.8119310736656189,-0.7623712420463562,-0.1683487445116043,-0.8258567452430725,-1.7670116424560547,0.052594348788261414,0.9624164700508118
259.903,-0.05542091652750969,0.0018421540735289454,-1.0478326082229614,-0.015871619805693626,-0.3794960379600525,0.5496444702148438,30.3592586517334,-9.12801456451416,40.9842414855957,1.7813178300857544,-0.16963306069374084,-0.7026413083076477,0.2707711160182953,-0.18518507480621338,-0.1614370048046112,-1.652137041091919,-1.0454758405685425,1.4931138753890991,2.000396966934204,-0.36237043142318726,0.44929128885269165,1.5183981657028198,0.48938292264938354,-0.3438444435596466
269.854,0.02063506841659546,-0.08956034481525421,-1.0282585620880127,-0.9375799298286438,-0.042382095009088516,0.3321344256401062,29.899381637573242,-9.831300735473633,41.291648864746094,-1.6746894121170044,0.09026965498924255,-0.7633604407310486,-0.5275885462760925,-0.32045164704322815,-1.2868584394454956,-0.713451087474823,-1.3245282173156738,-0.32606571912765503,-0.5037720203399658,1.5500333309173584,2.113079309463501,-0.4904884994029999,0.5370559692382812,-1.1358139514923096
280.137,0.029270784929394722,-0.10413049906492233,-0.9862372875213623,0.2864895761013031,-0.0071336510591208935,-0.624720573425293,29.32539176940918,-8.571441650390625,39.80964279174805,-0.1777254045009613,0.10030391812324524,-0.7438170909881592,-0.32035428285598755,0.5174063444137573,-0.16854536533355713,0.14039626717567444,0.778943657875061,1.6462886333465576,0.08863820135593414,-1.4846833944320679,-0.12735766172409058,0.6339985132217407,-0.18378005921840668,-0.5398648977279663
290.019,0.03771547973155975,0.08660001307725906,-0.9841912984848022,-0.07747934013605118,0.6154106855392456,-0.6723780632019043,28.740440368652344,-9.509032249450684,40.03746032714844,0.512931764125824,0.03684520721435547,0.37990471720695496,0.03151027858257294,-0.1735498458147049,-1.4952034950256348,-0.21392041444778442,-0.6860044002532959,0.9415954351425171,-1.5038259029388428,-0.08504966646432877,0.9399123191833496,1.8769832849502563,0.6947978138923645,-0.5432835817337036
299.975,0.0053732143715023994,-0.0687345415353775,-1.0409079790115356,0.7518379092216492,-0.27647143602371216,-0.7967424392700195,30.15289306640625,-10.512860298156738,39.95842361450195,-2.2512829303741455,-0.21964113414287567,-0.34174931049346924,-0.42593732476234436,-0.7558177709579468,0.5011250972747803,0.02389395609498024,0.18531528115272522,0.7525993585586548,1.4030866622924805,0.8212897181510925,1.038383960723877,0.08341450989246368,-0.5102559924125671,0.2416139394044876
310.063,-0.08302243798971176,0.023597775027155876,-0.9563989639282227,-0.8075172901153564,-0.2109619528055191,0.27967849373817444,29.733060836791992,-10.230719566345215,40.984100341796875,0.2846107482910156,0.15826082229614258,0.008881605230271816,-0.49046406149864197,0.5741861462593079,-0.5696107745170593,0.8281809091567993,-1.5256214141845703,-0.21983817219734192,0.41103556752204895,-1.4008249044418335,-0.25403329730033875,0.5913459062576294,-0.9972043633460999,-0.14737385511398315
319.914,0.09669443219900131,-0.03743657097220421,-1.0157272815704346,0.3200230300426483,0.13653261959552765,0.3812597990036011,32.989498138427734,-10.644506454467773,38.278533935546875,0.6823506355285645,0.8526963591575623,0.44457492232322693,0.7848877310752869,2.247692823410034,-0.6211626529693604,-1.7140581607818604,1.1124672889709473,-0.9186926484107971,-1.2800812721252441,-0.23879657685756683,1.16603422164917,1.123997449874878,-0.724435031414032,1.0429202318191528
330.247,-0.10043589770793915,0.0007867299136705697,-1.0264846086502075,-0.6941840052604675,0.30065658688545227,0.05923347547650337,29.48109245300293,-11.04056167602539,39.15620803833008,-0.7142971158027649,-0.3794306814670563,1.2075101137161255,-0.2748367488384247,0.29244914650917053,-0.1903449296951294,0.09342941641807556,0.9649620056152344,-0.12708953022956848,-1.326759696006775,2.1473050117492676,-0.170066699385643,-1.3546122312545776,1.1124273538589478,-0.17295624315738678
339.783,0.0007612352492287755,-0.023132266476750374,-0.9990525841712952,-0.4920022785663605,0.5335356593132019,-0.24141567945480347,30.420520782470703,-10.810497283935547,39.88837432861328,-2.7185542583465576,0.5893458127975464,0.5045782923698425,-0.680250883102417,-0.28567904233932495,1.2145975828170776,-0.23227231204509735,0.4545654058456421,-0.47046977281570435,0.031779635697603226,1.611039400100708,-0.8819131851196289,0.9547487497329712,-1.6406384706497192,-0.738456130027771
349.943,0.023049477487802505,0.052390776574611664,-1.000908613204956,1.0858919620513916,-0.05356327071785927,-0.04315521940588951,29.71956443786621,-10.414709091186523,40.41179656982422,-1.1563644409179688,0.14401443302631378,1.8118313550949097,1.1132549047470093,0.6853809952735901,0.19154071807861328,-0.0547788180410862,-0.10020461678504944,0.7176663279533386,-1.656053900718689,0.33250176906585693,-1.3143558502197266,1.2410902976989746,-0.3924767076969147,1.2066019773483276
359.917,-0.05797730013728142,0.03557046502828598,-1.0277001857757568,-0.8787419199943542,0.44864973425865173,-0.5921041965484619,29.349287033081055,-9.379386901855469,40.73758316040039,-0.06295010447502136,0.9994165301322937,-0.11340906471014023,-1.457689881324768,-0.05023327097296715,2.04459810256958,1.625162124633789,0.07249221205711365,-0.13170990347862244,0.44270753860473633,-0.5947310924530029,1.6278308629989624,0.01524217426776886,1.3243730068206787,-1.8132703304290771
370.194,-0.012701611034572124,0.030562395229935646,-0.9772182106971741,-0.15650272369384766,0.4031418561935425,0.4947497546672821,27.580669403076172,-12.14344596862793,38.96444320678711,0.05827055871486664,-0.4227900207042694,0.030308930203318596,2.0096397399902344,1.4760000705718994,0.22090943157672882,-0.9474156498908997,1.2827666997909546,0.8473458886146545,-0.04116139933466911,0.4722331464290619,0.706613302230835,-0.543018639087677,2.226884603500366,1.9452950954437256
380.022,-0.009951739571988583,0.04397644102573395,-0.9800978899002075,-0.7535085678100586,-0.4522705376148224,-0.7399681806564331,30.5565242767334,-9.553986549377441,39.70543670654297,0.06643254309892654,0.7049081921577454,0.19500353932380676,-0.445492148399353,0.6231273412704468,0.3389586806297302,-0.7555080652236938,-1.3004823923110962,0.24559804797172546,0.7436019778251648,-0.6840071678161621,-1.5695699453353882,-1.9345262050628662,-0.8862079977989197,1.1153829097747803
389.765,0.025665489956736565,-0.001968392636626959,-0.9986214637756348,-0.35216599702835083,0.9386386871337891,-0.2828611433506012,30.239904403686523,-10.466304779052734,41.10499572753906,-0.7404026389122009,1.2874648571014404,2.148409128189087,0.12192043662071228,0.2623303532600403,0.5071322321891785,0.7130703926086426,0.983500063419342,1.3749678134918213,-1.0814929008483887,0.15417760610580444,-0.6482857465744019,1.0103830099105835,2.2196950912475586,-0.2464967668056488
399.994,-0.053326673805713654,0.04819510877132416,-0.9611460566520691,1.3403619527816772,0.27282586693763733,-0.32974642515182495,30.25604820251465,-9.390503883361816,39.85324478149414,0.8385971188545227,0.18081700801849365,0.6658490300178528,-0.10393770784139633,-1.539951205253601,1.6583069562911987,1.2515344619750977,0.0054347217082977295,-0.7044438123703003,-0.07298023253679276,-1.6397926807403564,1.01620352268219,1.022719144821167,0.6576535701751709,-0.6868919134140015
410.024,0.020555073395371437,0.018306447193026543,-1.003136396408081,0.13773976266384125,0.10337160527706146,0.048501547425985336,29.857324600219727,-9.22285270690918,40.81098175048828,1.064954400062561,1.5555788278579712,0.42526140809059143,-1.2837544679641724,-1.01957368850708,1.4165829420089722,-1.297953486442566,-0.5155689716339111,0.7551482319831848,-0.8742120265960693,0.7430697083473206,1.1935824155807495,0.3658689260482788,0.7878705859184265,-0.1372053176164627
420.038,0.03302323818206787,-0.015261417254805565,-1.031400203704834,0.24026452004909515,-1.0908232927322388,-0.7647275924682617,30.183446884155273,-9.868416786193848,38.9726676940918,1.4830470085144043,-1.0747628211975098,1.249451994895935,-0.674942135810852,1.526257872581482,-0.5146447420120239,1.3718960285186768,-0.5206217765808105,-0.1337224543094635,-0.3179974853992462,0.6040603518486023,0.1979137808084488,-1.0509308576583862,-0.4901789128780365,-1.3991570472717285
430.127,0.005773679353296757,-0.0376410149037838,-0.9710094332695007,0.951231062412262,0.6582769155502319,0.0786774680018425,30.25750732421875,-9.520487785339355,41.4390869140625,1.6175107955932617,-1.1438333988189697,0.9962807297706604,1.5039623975753784,-0.5434870719909668,-1.2390384674072266,0.6177781224250793,-1.063783049583435,-0.7420803904533386,0.46308761835098267,0.7134663462638855,1.225874423980713,0.22402064502239227,1.127581238746643,-0.8945073485374451
439.980,0.03711174055933952,0.04248511418700218,-1.0206423997879028,-0.5508455634117126,-0.23806890845298767,-0.5707531571388245,29.5631103515625,-13.283021926879883,40.29946517944336,0.06773407757282257,-0.7048841118812561,-0.5412858724594116,0.260611355304718,-0.7336947321891785,0.0964517891407013,0.4590999484062195,-0.062208011746406555,0.3118748366832733,-0.6674094796180725,-1.3268147706985474,-1.8834189176559448,-1.2265979051589966,-0.5456618666648865,-0.43470752239227295
449.967,-0.009346830658614635,-0.038083210587501526,-0.9865148663520813,-0.29103848338127136,-0.2620776295661926,0.3707258999347687,30.399837493896484,-10.947468757629395,39.1430549621582,0.29319602251052856,0.5840660333633423,0.7133357524871826,-1.3997433185577393,-0.8065266609191895,0.7393770813941956,0.35618916153907776,-2.03037166595459,-1.0421291589736938,-0.3513767719268799,2.5256497859954834,-0.6559770703315735,1.3362281322479248,-1.4096906185150146,-0.3454573452472687
459.897,-0.02705838531255722,0.03273696452379227,-1.0232632160186768,-0.308885782957077,0.22556142508983612,-0.02400926686823368,29.884071350097656,-8.93887996673584,40.58869934082031,-0.09669752418994904,0.38934430480003357,2.4001176357269287,0.3123290538787842,-0.3745265007019043,0.8938672542572021,1.0689717531204224,0.008834186010062695,-0.25931358337402344,0.009977440349757671,0.5302664637565613,-0.3447525203227997,-0.0025500019546598196,-0.26892411708831787,-0.8510565757751465
470.399,0.04543532058596611,0.045637987554073334,-0.9792431592941284,0.5491917729377747,0.6745847463607788,-0.6248199939727783,29.497224807739258,-9.189034461975098,39.148216247558594,-2.222236156463623,-0.12617306411266327,-0.22063910961151123,-0.7846488952636719,-1.3129557371139526,0.11542796343564987,-0.12459718436002731,0.9426881074905396,-0.9272712469100952,-0.1702960580587387,0.7606682777404785,-0.6154024004936218,-1.2042897939682007,0.24798071384429932,-0.5724731087684631
480.165,-0.004973717965185642,0.0091572105884552,-1.014336347579956,0.9656242728233337,-0.3369376063346863,0.7130505442619324,30.542749404907227,-10.543938636779785,41.25245666503906,0.21220630407333374,1.845674753189087,-0.5704922676086426,0.26575323939323425,-0.22289226949214935,-0.12817513942718506,-2.2985479831695557,-0.2867546081542969,-2.119673013687134,0.3924911916255951,0.5163090825080872,1.9363360404968262,0.37981271743774414,0.29235586524009705,-2.7201101779937744
490.051,0.023421941325068474,0.024150606244802475,-1.0115113258361816,0.12896667420864105,0.04389462620019913,-0.01109484862536192,30.07604217529297,-8.53501033782959,39.7205924987793,-0.16840650141239166,1.0395257472991943,-1.411718487739563,1.262527346611023,1.0120220184326172,-0.09516184031963348,-0.6867890954017639,-1.0801321268081665,0.39231351017951965,2.9604992866516113,-0.29283982515335083,0.21294359862804413,-0.41074416041374207,1.1150466203689575,0.1033947542309761
500.270,0.06676803529262543,0.03057134710252285,-1.031541109085083,-0.38700589537620544,0.055366672575473785,-0.5307953953742981,29.56669807434082,-9.931909561157227,43.437320709228516,0.6156304478645325,1.9988782405853271,0.44867417216300964,-0.725270688533783,0.403624951839447,-1.2797702550888062,1.4948033094406128,-0.17219404876232147,-1.1655453443527222,-0.6887426972389221,0.9871081709861755,-0.5942954421043396,-1.4188933372497559,1.142128586769104,-0.18621127307415009
509.935,-0.05794644355773926,0.03679884225130081,-0.9772379994392395,-0.40364453196525574,-0.5388517379760742,0.29719215631484985,31.697999954223633,-8.723783493041992,40.73287582397461,1.7584961652755737,-0.1993720382452011,2.083173990249634,0.29006683826446533,1.3770265579223633,0.28414180874824524,-1.025842308998108,0.02906743250787258,-0.20846672356128693,1.228211522102356,0.28209787607192993,0.5381904244422913,0.15559393167495728,-0.8428636789321899,0.814639151096344
520.120,-0.05440792068839073,-0.013959112577140331,-1.0130386352539062,0.4341500401496887,1.1277198791503906,0.6074696779251099,30.92110252380371,-10.49427604675293,39.08320617675781,0.6388806700706482,0.9355562329292297,-0.29924827814102173,1.1926751136779785,-0.9756389856338501,-1.1355053186416626,0.9755356907844543,-0.6994352340698242,0.04510365426540375,1.3470412492752075,0.5581084489822388,-0.5469818711280823,1.181034803390503,0.28363037109375,2.4083402156829834
529.962,0.01597062312066555,-0.018277529627084732,-0.9873127937316895,0.10877780616283417,0.11392665654420853,-0.15414610505104065,28.860910415649414,-10.970708847045898,40.559120178222656,0.9140126705169678,0.050624698400497437,2.0905230045318604,2.6623449325561523,0.6472894549369812,0.036901820451021194,2.6399636268615723,-0.06317684799432755,1.6081916093826294,0.11929592490196228,0.6358216404914856,1.6271944046020508,-1.3279170989990234,0.06949887424707413,-0.07425660640001297
540.083,0.04534291476011276,-0.004623637534677982,-0.9897319674491882,0.2980297803878784,0.32964926958084106,0.21915757656097412,29.81216049194336,-8.580034255981445,41.71548843383789,0.5842004418373108,-0.6199570298194885,0.7855139374732971,0.9541037082672119,1.3441355228424072,-0.5784776210784912,0.7401858568191528,0.21490424871444702,0.5661685466766357,-0.6283882856369019,0.0072935475036501884,-2.764362335205078,0.2975531220436096,0.6149839162826538,-0.2848706543445587
550.046,0.0330122634768486,0.09360870718955994,-1.0327657461166382,-0.07797911763191223,-0.6820947527885437,-0.3409439027309418,31.92487335205078,-9.320202827453613,39.52833938598633,2.0307936668395996,0.44551658630371094,0.1323045939207077,-0.21337348222732544,1.3780875205993652,0.07350470870733261,-0.5698585510253906,-1.266811728477478,0.3680703043937683,-0.9115222692489624,-3.3582987785339355,0.17868919670581818,-0.8987723588943481,1.7836625576019287,1.0307183265686035
559.932,-0.008738993667066097,0.022512400522828102,-0.9990969300270081,0.13243669271469116,0.06041570380330086,0.07186730206012726,29.086265563964844,-8.768089294433594,40.857967376708984,0.05480760335922241,-1.2403135299682617,-1.2801786661148071,0.4293241500854492,0.771389901638031,1.4176045656204224,-0.17109934985637665,-0.34811800718307495,-0.9006801843643188,-0.2595672607421875,-0.4909825325012207,-0.10183456540107727,-0.36599770188331604,1.0579708814620972,0.2805018723011017
569.877,0.008545247837901115,-0.01926170475780964,-0.989063560962677,0.615994393825531,-0.2130487710237503,0.6878716349601746,30.061471939086914,-8.823596954345703,41.621402740478516,-0.8673705458641052,-0.2174968421459198,-0.2806894779205322,1.2653796672821045,-1.020063877105713,0.3058681786060333,-0.39914655685424805,0.31472980976104736,-1.5767172574996948,0.5873480439186096,1.2296510934829712,0.43382301926612854,0.27903735637664795,-1.5975284576416016,-0.2653082609176636
580.002,-0.05084669589996338,-0.024902980774641037,-0.9730409979820251,-0.08583804965019226,0.01281744334846735,0.4121895432472229,29.59347915649414,-10.708422660827637,39.775230407714844,-0.5110230445861816,0.3712140917778015,1.6927520036697388,1.4096932411193848,-1.736761450767517,1.7239683866500854,-2.210374116897583,-0.004514245316386223,-0.2603667080402374,1.4424152374267578,-0.5727705955505371,1.4198555946350098,-0.14641159772872925,0.6253690123558044,0.3915935158729553
590.037,-0.0033170776441693306,0.040174346417188644,-0.98872971534729,-0.18723763525485992,0.41870495676994324,-0.3969977796077728,29.328813552856445,-8.747944831848145,37.34463119506836,0.3105739653110504,1.608089566230774,-2.2228357791900635,0.31764960289001465,1.4803147315979004,-1.0253962278366089,-0.46169155836105347,0.6821405291557312,-0.22414372861385345,-0.6963820457458496,-1.084837555885315,-0.06408829987049103,0.6110143661499023,1.3200770616531372,1.304056167602539
600.076,0.03626739978790283,-0.02024148590862751,-1.0237337350845337,-0.32179170846939087,0.14190231263637543,0.17147287726402283,30.183162689208984,-10.218660354614258,39.54438781738281,-0.4194091558456421,-0.8520258665084839,0.5204214453697205,0.14019371569156647,-0.4648037552833557,-0.5190186500549316,1.2881828546524048,0.038314323872327805,0.8205064535140991,0.3530881106853485,-1.1964260339736938,-1.6522855758666992,0.5439853072166443,0.20822380483150482,-0.05239454284310341
610.149,0.03524492681026459,-0.037907231599092484,-0.994465172290802,-0.13831473886966705,-0.1586570143699646,0.7148358225822449,30.261070251464844,-9.204845428466797,38.71205520629883,-0.16025425493717194,0.12485993653535843,0.31826481223106384,0.08058217912912369,-0.8263038992881775,-1.0806773900985718,1.0850017070770264,-0.6145474910736084,0.08730152249336243,-2.6166350841522217,-0.04560431092977524,1.106976866722107,-1.8396574258804321,0.3597707450389862,0.15194518864154816
620.006,-0.03147076442837715,0.04911736026406288,-0.9780992269515991,0.1566265970468521,0.5077685713768005,0.1797623187303543,30.078886032104492,-11.602401733398438,39.69269561767578,0.9634816646575928,1.4088218212127686,-2.720209836959839,-2.184840679168701,0.3478284776210785,0.8313515186309814,-1.2592583894729614,0.8749122023582458,-0.27893680334091187,-2.0193989276885986,0.6023653149604797,0.01087293028831482,-0.22941426932811737,-0.24271520972251892,-1.0387382507324219
629.846,0.02889043465256691,0.002478695008903742,-0.9976131916046143,0.7780112028121948,-0.03470177203416824,0.31852588057518005,29.246301651000977,-9.960834503173828,39.63215255737305,0.7890406847000122,-1.2550021409988403,1.126041054725647,0.22308005392551422,0.5155092477798462,-1.6509279012680054,-0.37741103768348694,-1.1708707809448242,0.3851490914821625,1.7079217433929443,1.1946626901626587,0.7597489953041077,-0.02058933489024639,-0.21844564378261566,-0.9801852107048035
640.086,-0.003772968193516135,-0.06353076547384262,-1.0155302286148071,0.16757822036743164,-0.8039330840110779,-0.8351428508758545,30.021900177001953,-10.025720596313477,40.63549041748047,0.12233030050992966,0.8646945953369141,-0.12707401812076569,1.2291632890701294,-0.9426679611206055,-0.5651394128799438,0.4959712326526642,-0.3501071035861969,0.49929898977279663,-1.052794337272644,-0.80504310131073,-0.10750603675842285,-0.5990186929702759,1.3249187469482422,0.33361348509788513
649.993,-0.019770683720707893,0.0006320201209746301,-1.0094155073165894,-0.27292922139167786,0.10048408061265945,-0.7874248027801514,29.218828201293945,-12.219708442687988,40.51154708862305,-1.1806539297103882,0.9024004936218262,-0.46575188636779785,1.6921329498291016,0.13168060779571533,-1.3686310052871704,-0.6225719451904297,-0.2147393673658371,1.1123287677764893,-0.25058940052986145,-1.1404454708099365,-0.2706073820590973,-1.4055147171020508,0.8356960415840149,-0.44306495785713196
660.271,-0.0706694945693016,0.08423919975757599,-0.9946081638336182,0.03850637376308441,0.7833091616630554,0.07744099199771881,32.024017333984375,-10.81227970123291,38.42705154418945,-0.3864380419254303,0.2920514941215515,0.9051452279090881,0.28442707657814026,-1.2233707904815674,0.09005548059940338,1.620865821838379,-0.09366782009601593,-0.31673523783683777,-0.8227866291999817,0.9387986063957214,-0.015193581581115723,0.38552865386009216,0.7484029531478882,0.08779921382665634
670.072,-0.009249049238860607,-0.09899202734231949,-0.9949725866317749,0.4746069312095642,0.7297652363777161,-0.16805970668792725,31.37225914001465,-10.95308780670166,40.797847747802734,-0.653348445892334,0.64870685338974,-2.2983059883117676,0.6415469646453857,1.3977172374725342,1.2098726034164429,0.8719791173934937,-0.4997667372226715,1.3463257551193237,-0.6766798496246338,-1.3102973699569702,-1.3534103631973267,0.8243072032928467,-1.7087559700012207,0.9343193769454956
679.773,0.0019248821772634983,-0.04234471172094345,-1.0531445741653442,-0.13009561598300934,0.6593528389930725,-0.45139503479003906,28.32477569580078,-10.002074241638184,40.381568908691406,-0.4975506365299225,0.7718079686164856,0.2450031042098999,1.3259077072143555,-0.22555169463157654,0.8882579207420349,0.5882964134216309,-0.0701899528503418,0.059653643518686295,0.09901662915945053,-2.132194995880127,-1.189157247543335,2.1907153129577637,1.7380433082580566,0.46893829107284546
690.047,0.054879218339920044,0.014318566769361496,-1.0006914138793945,0.4859157204627991,-0.006230961065739393,0.3180880546569824,30.729890823364258,-9.838350296020508,39.059635162353516,-0.3596218526363373,1.1011024713516235,-0.21915476024150848,-2.138958215713501,2.2240777015686035,-0.11171504110097885,-0.5646556615829468,0.2605602443218231,-1.5025391578674316,-0.08421698957681656,1.267080307006836,-1.5196763277053833,-0.8788277506828308,2.4157354831695557,-0.3821098506450653
699.986,-0.09691032022237778,0.008482242934405804,-1.0615402460098267,1.0290333032608032,0.9710938334465027,0.15817727148532867,29.376493453979492,-9.504627227783203,38.72878646850586,-0.5236992835998535,-0.3772130310535431,0.4554978311061859,0.8308684229850769,0.1272227019071579,-2.364224672317505,-0.8377724885940552,-0.6993032097816467,-0.7388947010040283,0.8807377815246582,0.9793714880943298,0.12259551137685776,-0.042616911232471466,0.3409726321697235,-0.7220142483711243
709.770,0.021734535694122314,-0.11410855501890182,-0.9691449403762817,-0.09529297053813934,-0.20854152739048004,-0.42987409234046936,31.20783805847168,-12.097813606262207,38.887847900390625,1.049256443977356,-0.33781254291534424,-0.553531289100647,0.7837468981742859,2.0876030921936035,1.7113211154937744,0.7288689613342285,-1.5050581693649292,0.5640915036201477,-0.9298533797264099,0.032668497413396835,0.3170938789844513,-1.878830909729004,-1.1956084966659546,0.865966796875
720.043,0.0003981887421105057,0.04876678064465523,-1.0023773908615112,0.9554726481437683,0.5171368718147278,0.4462832808494568,30.861347198486328,-10.01163387298584,38.777347564697266,1.2760496139526367,-1.3938246965408325,-0.5128993391990662,-0.7054668068885803,-1.4282976388931274,-0.37794890999794006,-0.9255057573318481,-0.20869946479797363,0.613032341003418,0.09470485895872116,-0.33209651708602905,-0.4182108938694,1.1163908243179321,0.4264792203903198,0.8548024296760559
730.268,-0.04191063717007637,0.04918516054749489,-0.978924036026001,0.5393264889717102,0.2024311125278473,-0.2993924915790558,30.531461715698242,-9.477964401245117,40.05813980102539,-0.40409228205680847,-0.5017632246017456,-1.4311012029647827,-0.6053304672241211,-0.16689328849315643,0.6173859238624573,0.05886850506067276,0.17741245031356812,-0.21627715229988098,0.8016759157180786,-1.0029633045196533,0.23407895863056183,1.457768201828003,-1.3987499475479126,-0.2802962362766266
740.404,-0.02594848722219467,-0.055954501032829285,-0.9939908385276794,-0.051464326679706573,0.24107137322425842,-0.01626124046742916,30.17829132080078,-7.180690765380859,39.623321533203125,-0.0893242284655571,0.29419776797294617,0.7890015244483948,0.35422977805137634,0.33067119121551514,-0.7347359657287598,1.5765790939331055,-0.22553248703479767,1.0287669897079468,-0.28894490003585815,-0.1708400994539261,-0.19224917888641357,-0.30018723011016846,-1.533239483833313,0.5608896017074585
750.021,0.10616935044527054,-0.007528534159064293,-0.9900428056716919,0.15546154975891113,-0.38308101892471313,0.4512501358985901,29.65972900390625,-10.038575172424316,41.28887939453125,1.1233108043670654,0.5240116715431213,1.1144590377807617,1.146806240081787,0.04288414493203163,-0.32927754521369934,-0.8974925875663757,-0.7761635184288025,-0.7455401420593262,0.26361098885536194,-0.10172556340694427,0.010224133729934692,-0.10159213095903397,0.4542960524559021,-1.0711252689361572
759.637,-0.11211825162172318,0.021489514037966728,-0.9763829112052917,1.0079175233840942,-0.5581352114677429,0.39572542905807495,28.703136444091797,-8.376482009887695,41.272735595703125,1.0033972263336182,0.983599066734314,1.5238263607025146,-1.1692237854003906,-0.33672747015953064,-0.5006701946258545,-0.5420764088630676,1.4646114110946655,-0.6697759032249451,0.7936559319496155,0.07746928185224533,-0.39413514733314514,1.57149338722229,-1.5082511901855469,-0.11869294941425323
769.970,-0.020535217598080635,0.06906433403491974,-0.9733676314353943,-0.601559579372406,0.08322393894195557,0.3613266050815582,30.11578369140625,-9.257250785827637,40.75120544433594,-0.8593477606773376,0.09485942125320435,0.6901282072067261,-0.15346409380435944,-1.4678300619125366,0.766181468963623,0.4009740650653839,-0.25143516063690186,-0.029527245089411736,0.3902028799057007,0.27607110142707825,0.2781146764755249,-0.45494544506073,-1.152925968170166,-1.0487453937530518
779.867,0.0647067055106163,-0.025081932544708252,-1.0149610042572021,0.28468549251556396,0.24949157238006592,-0.20563815534114838,30.734642028808594,-9.685259819030762,39.91126251220703,-0.03719640523195267,-2.0091357231140137,0.0187445767223835,-0.9147952198982239,-1.8232754468917847,0.42641696333885193,-1.5675870180130005,0.4526505768299103,-0.5885722637176514,-1.058467984199524,0.42903825640678406,-0.7216755151748657,-0.17004618048667908,0.5948266983032227,-0.0806422308087349
790.138,-0.10062385350465775,-0.001846322906203568,-0.9942402839660645,-0.26164722442626953,0.5158765912055969,0.17270328104496002,29.541370391845703,-10.85284423828125,40.570167541503906,-0.28314268589019775,-0.46479058265686035,-0.4637983739376068,-0.08326772600412369,-1.8160817623138428,1.4432767629623413,0.34254932403564453,-0.3182676434516907,-0.5247504115104675,-1.2472119331359863,1.5922313928604126,0.4015837609767914,-1.5055800676345825,-1.0114634037017822,-0.014184958301484585
800.004,0.04439786449074745,-0.07776916772127151,-0.9993413686752319,0.053388021886348724,0.48890942335128784,-0.30106306076049805,29.489824295043945,-9.18830394744873,39.0054931640625,-0.2713729739189148,1.84221351146698,0.5530168414115906,-0.8195528984069824,1.401685357093811,1.4599205255508423,-0.022111399099230766,-2.2817554473876953,1.2686458826065063,1.4190415143966675,0.9906752705574036,-1.6909157037734985,1.717413306236267,-0.5580141544342041,1.350207805633545
809.977,-0.08889616280794144,-0.018079299479722977,-0.992161750793457,0.5266149640083313,0.34188246726989746,-0.36379557847976685,29.30971336364746,-9.648981094360352,39.11862564086914,1.548754334449768,1.1917215585708618,0.18080733716487885,0.07213051617145538,-0.26175516843795776,0.681723415851593,0.317063570022583,-0.3080114424228668,1.1347010135650635,-0.6772744059562683,0.051081299781799316,0.991319477558136,0.0714472308754921,-0.06637237966060638,-1.3327016830444336
819.989,0.01340466272085905,-0.03343074023723602,-1.0213273763656616,0.11781046539545059,-0.2849286198616028,0.05743158236145973,29.838342666625977,-10.402801513671875,41.0577392578125,-2.085880994796753,-1.4980149269104004,-1.6513229608535767,3.1729912757873535,0.544606626033783,0.11596965044736862,-2.6849594116210938,-2.0166375637054443,0.7422645688056946,-0.8705775737762451,-0.6544561982154846,-0.12254486232995987,1.300813913345337,0.8939197659492493,-0.6711840033531189
830.079,-0.07456149160861969,0.02742745541036129,-0.9944287538528442,-0.6795312166213989,0.11997374147176743,-0.2942825257778168,29.281673431396484,-9.185587882995605,41.21467971801758,-1.5158971548080444,-1.3824981451034546,1.8209203481674194,-1.090346097946167,-0.7999222278594971,1.4420841932296753,1.3870989084243774,-1.8862215280532837,-0.9517485499382019,0.14172078669071198,-0.42199409008026123,-0.15124794840812683,0.09903520345687866,-0.4364447295665741,-2.1357619762420654
840.032,-0.04115745425224304,-0.00402047298848629,-1.003844141960144,-0.9413735866546631,0.8459487557411194,0.2819083034992218,31.24770736694336,-10.502840995788574,40.63263702392578,1.4998003244400024,0.7700093984603882,0.7077922224998474,0.47754400968551636,-1.702399730682373,-0.547542929649353,-1.9152041673660278,0.7213237285614014,0.41061893105506897,-0.46709176898002625,0.3199962377548218,-0.031410280615091324,-0.37370672821998596,-1.4854707717895508,0.9335524439811707
850.303,0.0646977499127388,0.03327320143580437,-1.0119460821151733,0.36881035566329956,-0.003222718136385083,-0.13459932804107666,31.362985610961914,-10.346938133239746,39.95356369018555,-0.6595491766929626,-1.4538564682006836,-0.3611774742603302,-0.95585036277771,0.36837175488471985,-1.0090932846069336,-0.6260719299316406,2.1239190101623535,-1.2578086853027344,2.2537405490875244,-0.1924307942390442,0.140604168176651,2.6984238624572754,-0.1339910626411438,0.31942713260650635
859.971,-0.023466341197490692,0.04537724331021309,-0.9816646575927734,0.25774577260017395,0.07351360470056534,-0.3537102937698364,27.69004249572754,-8.70649528503418,40.32597732543945,-1.0931904315948486,1.0437558889389038,-0.5161694288253784,0.27968016266822815,1.2265491485595703,0.20395419001579285,0.5676271915435791,0.07089713960886002,0.31745582818984985,0.8852576613426208,0.3509632349014282,-1.6259450912475586,0.48420727252960205,0.6723278164863586,0.029658090323209763
869.814,0.04776633903384209,-0.04366004467010498,-1.0106638669967651,0.004842220339924097,0.5889673233032227,0.7220794558525085,30.556671142578125,-8.910881042480469,40.89398956298828,-0.4383630156517029,0.8547208905220032,0.24562932550907135,-0.20322205126285553,-0.6012649536132812,-1.2740888595581055,-0.28206726908683777,-0.5487951040267944,-0.2621462345123291,0.8719155192375183,1.478695273399353,1.1738018989562988,2.583488941192627,-0.1660340577363968,2.8344240188598633
879.626,-0.013419871218502522,0.06162353605031967,-1.0087367296218872,-1.1792962551116943,0.3397757411003113,0.27569380402565,29.630460739135742,-10.199037551879883,40.062599182128906,0.7539088726043701,0.4849338233470917,-1.436901330947876,0.5302339792251587,0.5353659987449646,0.5566806793212891,1.7780424356460571,-0.3805728852748871,0.40830761194229126,1.5938694477081299,1.1976975202560425,-0.4362120032310486,0.2655344307422638,-0.564714789390564,1.0122812986373901
890.093,-0.09329869598150253,0.005320162512362003,-0.9843607544898987,0.5883819460868835,-1.086186170578003,-0.9063186645507812,31.212385177612305,-10.889047622680664,42.39754104614258,-0.35714882612228394,-0.6739233136177063,-1.5965750217437744,-2.108236789703369,0.6538807153701782,0.5403655767440796,-1.1028884649276733,0.01162062305957079,1.0506529808044434,-0.31224989891052246,-2.116807222366333,-0.14877092838287354,0.42671841382980347,-1.2651751041412354,0.043735701590776443
900.072,0.03790460526943207,0.03588768467307091,-0.9770781993865967,-0.36688894033432007,-0.07851127535104752,0.10297895967960358,30.254514694213867,-10.199908256530762,42.09613037109375,-0.23179152607917786,-0.14520496129989624,-1.6996722221374512,0.07289616018533707,-2.343618869781494,0.009950201958417892,0.6698946356773376,-1.7437664270401,-0.6738459467887878,-0.41902676224708557,-0.5495043396949768,2.234337568283081,0.18564264476299286,-0.07046966999769211,1.806396722793579
910.055,-0.029142828658223152,-0.04565277695655823,-0.9953593015670776,-0.10704144835472107,-0.415241539478302,0.49243777990341187,30.025909423828125,-10.219198226928711,39.48283767700195,-0.6786559820175171,0.7419208288192749,-0.3490886986255646,0.33741626143455505,-1.7728825807571411,-0.3771912753582001,0.0961349606513977,-2.3812384605407715,1.1565240621566772,-0.3508710563182831,-0.019431833177804947,-0.01332661509513855,-1.3037362098693848,-0.5542919635772705,0.5462796092033386
919.912,0.08114389330148697,0.03411886468529701,-1.0292301177978516,0.4026198387145996,-0.7174694538116455,-0.5048010349273682,30.15610694885254,-11.770200729370117,38.81378173828125,1.757154941558838,0.7321433424949646,0.4828735589981079,0.506971538066864,-0.666188657283783,-1.098159909248352,-2.062326431274414,0.3656192719936371,-0.2170194685459137,0.6375298500061035,0.667340874671936,-1.381429672241211,1.1634496450424194,1.1159069538116455,0.6277875900268555
929.942,0.02739742584526539,-0.03212636336684227,-0.9987028241157532,-0.07593759149312973,-0.7306861877441406,0.6314200162887573,30.851137161254883,-9.500633239746094,39.109474182128906,0.7214296460151672,1.4092727899551392,1.2868492603302002,-0.19892090559005737,-1.4470592737197876,-0.5560773611068726,0.10673382133245468,0.7902418375015259,0.6100299954414368,0.13817830383777618,-0.6278992891311646,1.3572567701339722,-0.2369547188282013,-0.8471363186836243,0.4909107983112335
940.008,-0.08366678655147552,0.010944432578980923,-0.9828119277954102,0.31537261605262756,-0.47233542799949646,-0.6341755390167236,28.696016311645508,-9.262588500976562,41.47690963745117,-0.09775310754776001,-1.0360090732574463,0.9328844547271729,0.1352466642856598,-1.509022831916809,-1.3747810125350952,0.09679301828145981,-0.7621144652366638,-0.8928595781326294,0.011014064773917198,0.27955225110054016,0.4513586461544037,-0.7109093070030212,-0.5784404873847961,-0.7932758927345276
950.066,-0.04641608148813248,-0.012073484249413013,-0.9903216361999512,0.16606377065181732,0.19979283213615417,0.6599982976913452,30.518131256103516,-9.054832458496094,39.524810791015625,1.0488629341125488,-0.14852891862392426,-1.5160267353057861,-1.6121137142181396,-1.1040009260177612,-0.6022892594337463,-1.0541812181472778,0.6651884317398071,0.015465482138097286,-0.5361970663070679,0.14846399426460266,0.38645777106285095,0.8847262263298035,0.8930596113204956,0.10204244405031204
960.050,0.006828984711319208,0.0450408011674881,-1.0145797729492188,0.2407667636871338,1.167917251586914,0.4974830746650696,28.190275192260742,-10.816448211669922,41.06559753417969,-2.0578460693359375,-0.819760262966156,-0.6977160573005676,-0.3402467668056488,-1.3148170709609985,0.0955604612827301,0.39139896631240845,-0.30629000067710876,1.1023972034454346,0.03647235780954361,-0.3937302529811859,0.7978798151016235,0.11203914880752563,0.31036117672920227,0.5234887003898621
969.995,-0.051805995404720306,-0.024245845153927803,-1.0231722593307495,-0.36527448892593384,1.1612290143966675,-0.8255063891410828,31.086162567138672,-8.436497688293457,38.39099884033203,0.47421085834503174,0.1226225197315216,0.06997609883546829,0.26242488622665405,-0.5447969436645508,-3.5759520530700684,-0.9058191180229187,0.263576865196228,1.990835428237915,0.45276761054992676,0.9283652901649475,-0.1145063191652298,-0.3335220515727997,0.22292260825634003,-0.6224608421325684
980.165,0.0839722529053688,0.02843533642590046,-1.018430471420288,0.3121196925640106,-0.13755124807357788,0.00900659803301096,29.65194320678711,-9.050127983093262,39.64737319946289,1.2689151763916016,-1.9377954006195068,-0.1337437629699707,-0.09960827976465225,-0.9523431062698364,0.20061571896076202,0.3666277527809143,-0.6240822672843933,0.5858991742134094,0.6745583415031433,-0.3208081126213074,-2.3266525268554688,0.5297785997390747,0.6858438849449158,-1.2158145904541016
990.103,0.010496689938008785,0.001185328233987093,-0.9559078812599182,0.4285568296909332,-0.02801014482975006,-0.08204751461744308,29.177589416503906,-11.425066947937012,38.69160842895508,0.42604175209999084,1.034454107284546,-0.3387163281440735,0.7564065456390381,-0.03857439383864403,-0.38351091742515564,-0.3273812234401703,0.33821234107017517,1.0671800374984741,-0.16773681342601776,-1.170174479484558,-0.5850602388381958,1.0885776281356812,-0.462024062871933,-0.8106619119644165
999.913,0.012481273151934147,0.027075689285993576,-0.9801766872406006,-0.3166261315345764,1.9066567420959473,0.26260998845100403,29.052631378173828,-8.652026176452637,39.39350128173828,-1.2117263078689575,-0.5297883152961731,-1.93575918674469,-1.376199722290039,0.45460763573646545,-0.15285372734069824,-0.4136902093887329,1.777517318725586,-0.8385905027389526,-0.15679119527339935,1.654064416885376,-0.034125689417123795,-1.4530622959136963,0.011146223172545433,-1.00356125831604
1010.007,-0.0018886963371187449,0.017869358882308006,-0.9828378558158875,-0.15476471185684204,-0.33023494482040405,0.02131611481308937,29.218162536621094,-10.792709350585938,39.72775650024414,-0.840790867805481,-1.1144217252731323,-0.6831650137901306,-0.4791146218776703,-1.091589093208313,1.6119931936264038,-1.2435050010681152,0.7012283205986023,-1.5147565603256226,0.21489402651786804,-0.6430714130401611,-0.2946234345436096,0.5229331254959106,0.9949657320976257,0.26926910877227783
1019.963,0.06704038381576538,0.00398268224671483,-1.009744644165039,-0.9664705991744995,-0.2537907063961029,0.3396152853965759,29.83897590637207,-9.667372703552246,40.021366119384766,0.6602721214294434,1.3246757984161377,-0.0912441536784172,1.5359076261520386,-0.360941618680954,0.47330737113952637,-0.18632596731185913,0.2720714509487152,0.3322364091873169,-0.5061848759651184,0.4055975079536438,-0.3220631182193756,1.9442243576049805,0.474139928817749,1.1974880695343018
1029.753,-0.032940179109573364,-0.03368593007326126,-0.9982256293296814,-0.3103366494178772,0.4635005593299866,0.035108670592308044,30.682231903076172,-11.740800857543945,39.99291229248047,-0.34755265712738037,1.6815143823623657,-0.5536020398139954,0.8050841689109802,-2.011329412460327,-0.39899078011512756,0.7103265523910522,-0.7875160574913025,0.16852967441082,-0.13814255595207214,0.6283596754074097,-1.7515147924423218,0.09123839437961578,0.5833604335784912,-0.43708550930023193
1039.916,0.03873535245656967,0.022184723988175392,-0.9837326407432556,0.7010498046875,-0.019797401502728462,0.65321946144104,29.831722259521484,-12.198246955871582,41.30630874633789,-1.3549445867538452,-0.8743973970413208,0.42663270235061646,-0.8671227693557739,-0.5776230692863464,-0.014948790892958641,2.3008134365081787,0.6884127259254456,-0.10988960415124893,0.28454872965812683,1.6814404726028442,1.6802716255187988,1.273162603378296,-0.9494302868843079,2.4253926277160645
1050.097,-0.009026964195072651,0.06167732924222946,-1.008159875869751,-0.34613174200057983,-0.28714919090270996,-0.4648113250732422,30.01259994506836,-10.198176383972168,39.73933792114258,-0.49411261081695557,0.512939989566803,-0.15853305160999298,0.7557233572006226,0.386799156665802,0.809032142162323,0.33919909596443176,-0.20943275094032288,0.9246918559074402,0.9317308068275452,-0.20190386474132538,-1.228103756904602,-0.14809252321720123,0.2403489351272583,2.106137275695801
1059.941,-0.0004921949002891779,-0.013564650900661945,-1.0078768730163574,0.37811681628227234,-0.872041642665863,-0.12250372767448425,28.44393539428711,-10.369215965270996,39.902069091796875,-1.2620688676834106,-1.8218728303909302,0.0738258808851242,-0.5298046469688416,0.4913569390773773,-0.06651750952005386,0.8926847577095032,1.813194990158081,0.7530718445777893,0.09657079726457596,0.2557947635650635,0.19075818359851837,-1.0536859035491943,-0.5987560749053955,0.15157929062843323
1069.815,-0.024623123928904533,0.015597675926983356,-0.9837927222251892,0.005054851062595844,-0.6680866479873657,0.05038607865571976,30.073625564575195,-11.226896286010742,39.68729019165039,1.214033603668213,1.746108055114746,-0.2631695568561554,0.03392764553427696,0.8506460189819336,0.5533950328826904,-0.27005356550216675,-0.5036515593528748,-2.047161817550659,0.6364892721176147,0.6804813742637634,-1.014137864112854,0.7283945679664612,0.027935482561588287,0.828045129776001
1080.111,-0.0768442153930664,0.05034114047884941,-1.0252882242202759,0.9185212850570679,0.33882391452789307,0.22393986582756042,30.99390411376953,-10.842294692993164,39.595394134521484,0.2039601057767868,0.8020911812782288,-0.2820383310317993,2.412785053253174,1.4143146276474,-0.2202705442905426,-0.1027514711022377,0.39745211601257324,-0.08712343871593475,-0.1763678640127182,1.297780156135559,0.2208067923784256,-1.96989107131958,-0.8759490251541138,-1.6175695657730103
1089.909,-0.08978310227394104,0.03075561486184597,-1.007872462272644,-0.9802391529083252,-0.10941971838474274,0.2157159298658371,31.265920639038086,-10.803779602050781,40.657798767089844,0.23384350538253784,-0.6873152256011963,-1.5388551950454712,1.7830383777618408,-0.7219345569610596,0.4810304045677185,1.6052765846252441,2.2479794025421143,0.6904885172843933,-0.16001595556735992,-0.7939615845680237,-0.04352639243006706,-0.201754629611969,-0.6896449327468872,0.41216370463371277
1100.065,0.005167999304831028,0.029986955225467682,-1.003440022468567,0.31653591990470886,0.2991683781147003,-0.37433549761772156,29.51414680480957,-10.465893745422363,40.72039031982422,-1.6686381101608276,-0.9572538733482361,1.1486661434173584,-0.3045327365398407,-0.2263924777507782,1.550685167312622,-0.8371974229812622,-0.23109203577041626,0.45369604229927063,0.20161138474941254,-0.5582860112190247,0.5328976511955261,0.1797073483467102,1.6367888450622559,-0.2147340476512909
1109.875,0.001008144929073751,-0.002447645179927349,-1.0155872106552124,0.12878376245498657,-0.23086124658584595,0.9050090909004211,30.016132354736328,-9.284887313842773,39.126155853271484,-1.8128716945648193,-0.4194146692752838,-0.4048193097114563,0.7487648129463196,-0.07374300062656403,-0.20907479524612427,0.43079766631126404,-0.4423278570175171,-0.7091942429542542,-0.7428122162818909,-1.7719546556472778,0.04478815197944641,-0.22046631574630737,-0.52045738697052,0.7599637508392334
1120.004,0.014334228821098804,-0.05497979372739792,-1.0087873935699463,-0.24525019526481628,0.7891811728477478,0.508611798286438,29.190465927124023,-11.666788101196289,38.34327697753906,0.9485084414482117,0.6019632816314697,0.9791909456253052,0.10648012906312943,-0.5860896110534668,-1.3443210124969482,0.3140011131763458,-0.5670854449272156,0.12730182707309723,-0.3696317672729492,0.03316287323832512,1.219907522201538,1.6144416332244873,-0.4105304777622223,0.349149614572525
1130.057,-0.05836610123515129,0.0896894782781601,-0.9915605187416077,1.2639940977096558,-0.15762649476528168,-0.09301575273275375,28.943370819091797,-9.941308975219727,38.142433166503906,-1.7722468376159668,-0.8765318989753723,0.16008959710597992,-0.4112764894962311,0.14138825237751007,1.2666747570037842,1.9118517637252808,-0.14297747611999512,-1.184212565422058,-0.012780014425516129,-0.7745256423950195,1.3761253356933594,0.960601270198822,-0.6232763528823853,-0.7830092906951904
1140.202,0.09501940757036209,-0.004667978733778,-0.985247790813446,-0.2813718020915985,0.3073824644088745,-0.6649450063705444,30.61835289001465,-9.10389232635498,41.48368453979492,-0.5790911316871643,0.502907395362854,-1.6927083730697632,0.19453051686286926,0.7149897217750549,-0.9314979910850525,1.2603522539138794,-1.0222073793411255,-1.6299593448638916,-0.6536287665367126,-1.835720181465149,-0.235677108168602,0.05914328992366791,0.6307587027549744,0.03955508768558502
1150.286,-0.004482506774365902,0.0038795601576566696,-0.9778634309768677,0.8110979795455933,0.5975754857063293,-0.36236077547073364,31.574678421020508,-10.449390411376953,39.88996124267578,-1.0034972429275513,1.0105353593826294,-0.9739176630973816,-0.5438718795776367,-0.5423055291175842,0.7042664289474487,-1.5126738548278809,0.9145740866661072,2.5338101387023926,0.3276064395904541,0.13552890717983246,0.16048769652843475,0.8971960544586182,-0.25473904609680176,-0.5871217250823975
1159.921,0.008075384423136711,0.0035980974789708853,-0.9666993618011475,-0.11468677967786789,0.38163164258003235,-0.9995384216308594,28.44268226623535,-11.426179885864258,38.700538635253906,-0.46430090069770813,-2.5929620265960693,-1.7299165725708008,1.1989091634750366,0.12345404177904129,-0.8340452909469604,0.9284975528717041,0.9565110802650452,-0.5081518888473511,-0.830008327960968,-1.9662407636642456,-1.533066987991333,0.5108535289764404,0.5694718956947327,0.1348441243171692
1169.824,0.04644069820642471,-0.040132615715265274,-0.9948312640190125,0.5256555080413818,0.7434088587760925,0.19792915880680084,29.354433059692383,-8.958083152770996,40.00196838378906,0.9410311579704285,0.7108489871025085,-1.4769268035888672,0.8169717788696289,-0.2970505654811859,-0.19498145580291748,0.4346376955509186,-0.5881572961807251,0.40837422013282776,-0.0708022341132164,0.8739924430847168,-0.4004986584186554,0.5097000002861023,-0.9142933487892151,-0.19045011699199677
1180.192,-0.038483135402202606,-0.031411897391080856,-1.0191593170166016,-0.2666732966899872,0.12207634001970291,-0.09316054731607437,29.02982521057129,-9.936904907226562,39.24224853515625,-0.32314732670783997,0.13780991733074188,0.32303282618522644,-0.25326743721961975,-0.8331298828125,1.8865947723388672,0.930709719657898,-0.28048044443130493,-0.5455427169799805,2.53653621673584,-0.31637874245643616,-0.5586128830909729,-1.6080219745635986,0.43912363052368164,0.29262852668762207
1190.229,0.06608430296182632,0.053021326661109924,-1.0118778944015503,-0.8352973461151123,0.053191982209682465,-0.23607344925403595,29.18390464782715,-9.147497177124023,39.64247131347656,0.3238617479801178,1.152793049812317,-1.1153209209442139,-1.1990175247192383,-1.2269634008407593,0.7386935353279114,-0.9780802130699158,0.46993133425712585,-0.5321524143218994,-1.2139822244644165,-0.5142600536346436,0.02409437485039234,-0.029086973518133163,0.3278544545173645,-1.734811782836914
1200.003,-0.05463550612330437,-0.007578733377158642,-0.9964501857757568,0.34664931893348694,0.6955737471580505,0.006458149291574955,28.575401306152344,-8.819269180297852,41.247467041015625,-0.5496724843978882,-0.4204498529434204,-0.5712531805038452,0.46216315031051636,1.502224087715149,-0.6114893555641174,-0.9506845474243164,1.4757616519927979,2.261828660964966,1.120414137840271,-0.3239225149154663,-0.12819530069828033,0.23379072546958923,-0.0418943352997303,-1.105259895324707
1210.021,-0.03544125333428383,-0.04850321263074875,-1.0003811120986938,0.21434062719345093,0.49025702476501465,0.3368682563304901,31.467628479003906,-10.2351713180542,38.490882873535156,-0.8162803649902344,-1.4410862922668457,1.24699866771698,-0.8081490397453308,-1.8203665018081665,-0.24682696163654327,0.49352872371673584,1.0501831769943237,0.007789494004100561,-1.092729091644287,-0.1424659937620163,0.7818136215209961,2.3101048469543457,0.06702078133821487,0.3163352608680725
1220.046,-0.03427225723862648,0.015174859203398228,-1.0581176280975342,0.5606691241264343,0.1811155378818512,1.0664271116256714,30.782180786132812,-9.292920112609863,38.172080993652344,-0.8292703032493591,-1.4265857934951782,0.49415773153305054,-1.136783480644226,1.3736482858657837,-0.10783135145902634,-0.04195926710963249,0.0640932098031044,2.2286736965179443,0.4897628128528595,-1.0552301406860352,-0.3453582525253296,-0.06944380700588226,-0.23781611025333405,2.494590997695923
1229.810,-0.0102692237123847,0.07651247829198837,-0.9677571654319763,-0.18342290818691254,-0.2042721062898636,-0.3472495675086975,31.1133975982666,-10.246624946594238,41.24812698364258,-1.1493335962295532,0.4351261258125305,-1.458209753036499,1.2874877452850342,-0.4989430904388428,1.6935207843780518,-1.1850192546844482,-0.023032240569591522,-0.09175722301006317,0.22798897325992584,0.5180443525314331,0.22252032160758972,-0.7024621367454529,-0.2954072058200836,-0.656798243522644
1240.358,-0.04119332134723663,0.05897187069058418,-0.9651244878768921,0.5146881341934204,-0.12054747343063354,-0.05378495901823044,30.038116455078125,-8.89205551147461,39.02732849121094,-0.7991334795951843,0.17172160744667053,0.4066578149795532,-1.221681833267212,0.4190796911716461,0.985197126865387,-2.253913164138794,-0.6255698800086975,-0.0009048350621014833,-0.5170029997825623,-0.2381546050310135,0.667693018913269,0.6213570833206177,0.11604055017232895,0.04994135722517967
1250.034,-0.005920897237956524,0.0489620603621006,-1.0056037902832031,0.5359678864479065,0.14448139071464539,0.1630258709192276,30.81560707092285,-9.127546310424805,39.52531051635742,1.5000933408737183,0.3015173673629761,-0.13559776544570923,-0.4814363121986389,0.8112269043922424,-0.42912548780441284,0.11845849454402924,0.4143963158130646,0.13390305638313293,-1.2112479209899902,-1.338036060333252,-1.5221551656723022,-0.6886203289031982,1.1738486289978027,-1.448203206062317
1260.170,-0.020987393334507942,-0.1348581165075302,-1.0252761840820312,-0.3710969090461731,0.27691972255706787,0.09715869277715683,27.88838768005371,-9.387057304382324,40.498111724853516,0.3168564736843109,-1.2780026197433472,0.11872228235006332,0.5881235599517822,1.2916942834854126,0.18022972345352173,-1.423601746559143,0.44944629073143005,1.6872847080230713,-0.40217775106430054,-0.11596184223890305,-0.8736534118652344,1.3424832820892334,-0.4236733317375183,-1.0658255815505981
1270.001,-0.01622564159333706,-0.0319192111492157,-1.0423784255981445,-0.5171400904655457,0.7668548822402954,0.1486918032169342,29.664234161376953,-9.339139938354492,39.90900802612305,-0.7142402529716492,0.32684510946273804,-0.6545750498771667,-1.2501519918441772,-1.4939395189285278,0.862061083316803,-1.0204607248306274,-0.43740329146385193,-0.6884289979934692,-0.726974368095398,-0.6046780943870544,-0.16387979686260223,-0.2510640025138855,-1.066893458366394,0.4492761492729187
1279.580,-0.002497442066669464,0.08182483911514282,-1.0229512453079224,-0.05937008187174797,0.47521650791168213,-0.21170830726623535,28.627107620239258,-10.951268196105957,38.206268310546875,-0.4611516296863556,-0.7167127132415771,0.8947880864143372,-1.0348023176193237,-2.6683084964752197,-1.9222946166992188,0.014083490706980228,-0.2572326958179474,0.17536872625350952,-0.7412558794021606,-1.7147685289382935,-0.06603718549013138,1.46255362033844,-0.2628420889377594,-0.16513414680957794
1290.037,-0.02838953211903572,-0.037770505994558334,-1.0054386854171753,0.2979283928871155,-0.05250364542007446,0.26023349165916443,29.582931518554688,-11.117735862731934,38.106876373291016,0.15172989666461945,1.29605233669281,0.7819364070892334,-0.22808292508125305,0.4956642985343933,-0.09748928248882294,-0.2225843071937561,-1.3137707710266113,0.18099938333034515,-1.664884090423584,-2.5222442150115967,1.5117350816726685,-1.4947011470794678,-0.4813448488712311,-1.4830118417739868
1300.120,-0.02917996421456337,-0.07880301773548126,-0.9787365198135376,-0.17343808710575104,-0.644241213798523,-0.48543331027030945,30.280895233154297,-11.044669151306152,40.020477294921875,0.7615573406219482,-0.4165681004524231,0.46361255645751953,-0.09257040917873383,-0.2061455100774765,0.01620841771364212,0.5071771740913391,1.2052421569824219,-1.8772143125534058,0.855379581451416,-1.061729907989502,-0.8349062204360962,-0.8908186554908752,-0.19824495911598206,0.0007508014095947146
1310.086,0.11649199575185776,0.04347638785839081,-1.0298482179641724,0.014240114949643612,-0.4157256484031677,0.2640399932861328,29.792795181274414,-10.500580787658691,39.20446014404297,-0.1863599419593811,-0.5858510732650757,-0.9133924245834351,-2.44442081451416,-1.8891260623931885,0.8388071060180664,-1.2439357042312622,-0.33278000354766846,-0.43325918912887573,1.3746064901351929,0.8893976211547852,-0.21906821429729462,-0.5880523920059204,-0.3421892523765564,0.9474033117294312
1320.153,0.026442676782608032,-0.06530363112688065,-1.010084629058838,-1.2797038555145264,-0.2828090488910675,-0.020899489521980286,30.63447380065918,-9.561766624450684,41.42377471923828,-0.6623023748397827,1.1709489822387695,-0.48346808552742004,-0.0900861918926239,1.5958622694015503,0.8635870218276978,-0.03474146127700806,-0.3346793055534363,-0.33656126260757446,0.9927783608436584,-1.2608492374420166,-1.1412642002105713,-0.5485197305679321,1.9195019006729126,-2.908926486968994
1329.992,-0.004867469426244497,0.09408516436815262,-1.0275565385818481,-0.1377427577972412,0.4635603129863739,-0.49628812074661255,30.28394317626953,-8.947480201721191,39.9315185546875,0.13906943798065186,-0.6366787552833557,1.7830451726913452,2.513831377029419,-0.3792693018913269,1.4023767709732056,-2.7422657012939453,0.0821317657828331,0.05189666524529457,-0.4699998199939728,1.818131446838379,0.2718948721885681,0.4851040542125702,0.9251877069473267,-1.7883331775665283
1340.095,-0.05027372017502785,0.10041289776563644,-0.9479713439941406,0.08187238872051239,0.519271194934845,-0.3802075684070587,30.40912437438965,-10.449870109558105,41.077293395996094,-1.0412617921829224,-0.29816076159477234,1.150789737701416,0.9618266820907593,0.3050101697444916,1.077246904373169,-0.4297063648700714,1.3117376565933228,0.8996857404708862,0.25499507784843445,0.03609684109687805,0.28263235092163086,-0.4874553680419922,-0.18808260560035706,0.36866629123687744
1349.985,-0.03425595164299011,-0.05702005326747894,-0.9909335374832153,-0.11485815048217773,-0.35160282254219055,0.3125872015953064,28.317949295043945,-10.918197631835938,41.306556701660156,0.896639347076416,-1.1971913576126099,-0.8489512801170349,0.4037189483642578,-0.7679303884506226,-0.4979754090309143,0.5162642598152161,-1.825034737586975,0.1797981858253479,-0.451717346906662,1.938636064529419,-0.333789199590683,-0.7432004809379578,-0.10809414088726044,-0.5975307822227478
1360.051,-0.021097974851727486,-0.018816711381077766,-1.0157417058944702,0.38724347949028015,-0.4888061285018921,-0.2536731958389282,30.667587280273438,-9.938085556030273,40.17620849609375,0.48832738399505615,-0.6497572064399719,-0.6120625138282776,0.34914129972457886,0.7901270985603333,0.3659367859363556,-1.012410283088684,1.2512871026992798,1.2713042497634888,-1.482397437095642,0.39431923627853394,-0.593847393989563,-0.6087853312492371,-0.11711615324020386,0.9373213052749634
1370.062,-0.0016313903033733368,-0.03606778383255005,-0.9811635613441467,0.5386191606521606,-0.038931820541620255,-0.3014260232448578,29.631793975830078,-10.873297691345215,40.044944763183594,-0.03830011188983917,0.5345894694328308,-0.660151481628418,-0.766925036907196,-0.722046971321106,-1.7509267330169678,1.5516273975372314,-0.301807165145874,-1.363863229751587,-1.7265310287475586,-0.2079177051782608,-0.23358254134655,0.7779709696769714,-2.030941963195801,1.0906801223754883
1379.916,-0.07586868107318878,0.012308505363762379,-1.0171570777893066,0.4935471713542938,-0.156169131398201,0.08498076349496841,29.222169876098633,-8.629134178161621,38.70009994506836,-0.2320522964000702,1.0936989784240723,0.04385584220290184,1.1035101413726807,-0.746609091758728,1.1325324773788452,-1.7750524282455444,-1.5401564836502075,-0.1932431161403656,-0.6138147115707397,-0.5852010846138,0.9015340805053711,1.5868957042694092,0.8026328086853027,-1.3104031085968018
1390.095,0.04226032271981239,0.03998231515288353,-0.9589676856994629,-0.7276243567466736,-0.0448232926428318,-0.5151939392089844,31.034549713134766,-7.0791826248168945,40.46780776977539,-0.0918831080198288,0.9578368067741394,-0.37541043758392334,0.6996404528617859,1.513827919960022,0.9926827549934387,-0.14411135017871857,-1.464674711227417,1.4522554874420166,1.5706239938735962,-0.5101795196533203,0.6616110801696777,0.025451043620705605,-2.470144510269165,0.3950384855270386
1399.848,0.03292591869831085,-0.026424730196595192,-0.9854627847671509,0.47588565945625305,-0.34335219860076904,-0.8401967287063599,30.25230598449707,-9.463048934936523,40.18141555786133,-0.5554969906806946,-0.00895598903298378,-0.31572234630584717,0.06276635825634003,-0.18336012959480286,-0.8963008522987366,3.0124270915985107,0.08932790905237198,-0.7529240250587463,0.5548938512802124,1.9257456064224243,1.2829688787460327,-0.46417754888534546,-0.3651145398616791,-1.0157185792922974
1410.003,-0.02752225287258625,0.035652223974466324,-0.9686847925186157,0.287769615650177,0.6368297338485718,0.6169017553329468,30.098939895629883,-9.68061637878418,39.362361907958984,0.4109489619731903,-2.9386677742004395,1.2490309476852417,0.04118261858820915,0.5426017642021179,-0.160497784614563,0.4854852557182312,1.3117527961730957,0.11038792878389359,1.36178457736969,0.5305023193359375,-0.4553326368331909,-0.24743016064167023,0.5412720441818237,1.0002763271331787
1420.036,0.010909948498010635,0.05661725252866745,-0.9845853447914124,0.11848604679107666,-0.2002095878124237,-0.26920077204704285,29.915828704833984,-11.873828887939453,38.98207473754883,-0.33746975660324097,0.04525629058480263,-0.16488607227802277,-0.9463141560554504,0.6498308181762695,-0.16503429412841797,0.7186041474342346,-0.35220134258270264,0.4651753902435303,0.5069261789321899,-1.4575042724609375,2.034404754638672,-0.4301898777484894,-0.3815033435821533,0.2973836660385132
1430.045,0.017933722585439682,-0.01091004628688097,-0.9862179756164551,-1.4041322469711304,-0.045850809663534164,0.33954697847366333,30.42827033996582,-9.162698745727539,40.95877456665039,-0.6630902290344238,0.30341199040412903,1.8116624355316162,-1.564579963684082,-0.5750171542167664,0.5239796042442322,-0.1492585986852646,0.3123277425765991,-1.1203033924102783,-0.49303072690963745,-0.8036161065101624,0.37464937567710876,0.7468641400337219,-0.9971732497215271,-1.19617760181427
1440.084,0.0041979337111115456,0.015842752531170845,-0.9573739767074585,-0.48487699031829834,0.2766062021255493,0.3611263632774353,29.110734939575195,-8.750178337097168,40.42008590698242,0.5088120698928833,-0.4867483973503113,-0.9168345928192139,2.8102610111236572,0.34731581807136536,1.1935583353042603,-1.268871784210205,-1.2645677328109741,2.0087332725524902,-1.4885632991790771,-1.3177746534347534,-0.4543950855731964,-0.7114776968955994,-0.49979880452156067,-0.8607051968574524
1450.135,-0.04524780437350273,0.05457085371017456,-1.0185232162475586,0.23133139312267303,-0.2756655216217041,-0.40904197096824646,29.732879638671875,-9.643271446228027,38.73407745361328,0.1613915115594864,-1.036609172821045,-1.4418103694915771,0.8554055690765381,-1.0314345359802246,-0.6421003341674805,-0.19292320311069489,2.3248159885406494,0.21867503225803375,0.8880618214607239,0.10109175741672516,-0.9111372828483582,0.12499253451824188,-1.0955547094345093,0.43413493037223816
1459.739,0.019041944295167923,-0.05800860375165939,-1.0076960325241089,-0.22021161019802094,-0.7394647598266602,0.2901703417301178,29.869583129882812,-10.445809364318848,38.41351318359375,-0.035647857934236526,0.20388726890087128,-0.5762317776679993,0.7462708950042725,-0.4080195724964142,1.3651353120803833,-0.691074550151825,0.7691477537155151,-0.7703742980957031,1.3862991333007812,1.1373651027679443,0.5164108872413635,-0.19794318079948425,0.7986480593681335,-0.1732066571712494
1469.670,0.04467008262872696,-0.017207909375429153,-0.9625598788261414,-0.23585861921310425,-0.8497477769851685,0.11871185898780823,30.200157165527344,-8.467806816101074,41.74297332763672,0.5964294672012329,-1.8550282716751099,-0.3600503206253052,0.9489295482635498,0.07582590728998184,-0.40590983629226685,0.5419003963470459,0.4335324168205261,-0.3889119625091553,-0.7856181263923645,0.2896454930305481,-0.7484498023986816,0.017420291900634766,-0.3711610734462738,1.1901297569274902
1480.381,0.020419331267476082,0.0095027144998312,-1.017005443572998,0.14208866655826569,-0.047433674335479736,0.018105270341038704,29.978002548217773,-11.315589904785156,38.34977722167969,-1.3252825736999512,0.9927957057952881,0.41045624017715454,-1.176871418952942,-0.0942474752664566,1.2428616285324097,1.411211371421814,-1.4200934171676636,-1.6817121505737305,0.3491044044494629,-0.32934147119522095,-0.23137958347797394,0.9611806273460388,0.6269031167030334,-1.375264286994934
1490.027,0.07379523664712906,-0.01140196155756712,-0.9762038588523865,0.20631304383277893,-0.5033045411109924,-0.8036366105079651,30.16881561279297,-9.14002513885498,40.52724075317383,1.7345554828643799,0.052016425877809525,2.1883702278137207,-0.10508675873279572,0.5804622173309326,0.759286642074585,-0.20444254577159882,1.2081698179244995,1.5437911748886108,-2.1338374614715576,-0.25902870297431946,-0.5041698813438416,-0.11222900450229645,0.38051295280456543,2.0132296085357666
1500.013,0.02188299037516117,-0.0208912156522274,-1.01963210105896,0.00965327862650156,-0.1189890205860138,0.4132221043109894,29.325462341308594,-9.041722297668457,38.58734130859375,-1.1072461605072021,-0.9265015721321106,-1.3269984722137451,-0.1554146260023117,0.17599782347679138,0.1307789832353592,-1.101637601852417,-0.5417463779449463,0.10633628815412521,0.039434466511011124,-0.265718936920166,1.0698286294937134,0.055029258131980896,-0.43517932295799255,-0.47129905223846436
1510.207,-0.0030624314676970243,0.07008597254753113,-1.0137797594070435,-0.2941683828830719,0.23193351924419403,-0.36296263337135315,31.12398338317871,-9.597240447998047,39.53129959106445,0.9837782382965088,0.18453624844551086,0.28652432560920715,0.7365621328353882,-1.2921698093414307,-0.7419154644012451,1.7207801342010498,0.537514328956604,-0.05819408968091011,0.4971662163734436,0.40794986486434937,-0.5727459788322449,-1.8727073669433594,-1.022367000579834,-0.3756389617919922
1520.169,-0.020329058170318604,0.09747043251991272,-0.9721150994300842,-0.11605624109506607,0.40986746549606323,0.21628808975219727,29.325714111328125,-9.747172355651855,39.51405334472656,-0.8085095882415771,-0.2426517903804779,-0.6467905640602112,-0.3436127007007599,1.3072350025177002,2.269320249557495,0.13878962397575378,1.9660236835479736,1.3896088600158691,0.8228051662445068,1.4172587394714355,0.7995724678039551,2.1595752239227295,-0.15608932077884674,-0.5657259225845337
1530.032,-0.021978182718157768,-0.019705649465322495,-1.0298190116882324,-0.09224527329206467,-0.3091431260108948,0.5239951014518738,30.144794464111328,-9.967458724975586,40.310245513916016,-0.13073374330997467,0.25780588388442993,-0.10020457953214645,1.2276103496551514,-0.8649490475654602,-0.18204621970653534,1.5288220643997192,-0.1400376856327057,0.589466392993927,0.3897199332714081,-0.9830061197280884,0.49296697974205017,-1.3589026927947998,0.9620659947395325,2.5933752059936523
1540.115,-0.03121982328593731,0.03238416090607643,-1.040451169013977,0.3407706618309021,0.1847226619720459,-0.3228161036968231,28.48455238342285,-9.346301078796387,39.53434753417969,-0.5056478977203369,-0.3978181779384613,0.2317478507757187,-1.1589211225509644,-0.9564309120178223,0.7047379612922668,-1.1652626991271973,0.373879075050354,-1.9837143421173096,1.026177167892456,-1.6558804512023926,-0.22812478244304657,-0.071689672768116,1.4926584959030151,-1.4560909271240234
1549.787,0.03753858059644699,0.044643040746450424,-1.0208146572113037,0.19900287687778473,0.0009142612689174712,-0.6894623637199402,30.31673812866211,-10.776069641113281,42.71510314941406,1.5581893920898438,0.6983028054237366,-0.4476775527000427,-2.3342456817626953,0.986736536026001,0.34613659977912903,0.9061679244041443,0.7730886936187744,-1.1353012323379517,-0.2719729244709015,1.1707855463027954,-0.46590307354927063,-1.5635416507720947,-0.6951971054077148,0.27537235617637634
1560.186,-0.023626187816262245,-0.011862840503454208,-0.9913281202316284,0.2099185436964035,0.04527192935347557,0.8547507524490356,29.97199249267578,-9.77851676940918,40.120452880859375,-0.916471540927887,-0.01860668882727623,-1.7544375658035278,0.018671607598662376,1.403714895248413,-1.4731568098068237,-0.764663577079773,0.5810032486915588,0.9927251935005188,-0.23203563690185547,-1.3141909837722778,-0.9813926219940186,0.4133693277835846,-0.7622113823890686,0.2980041801929474
1569.860,-0.046487849205732346,0.033452607691287994,-1.002256155014038,0.4186992943286896,0.7369677424430847,-0.7646124362945557,30.055803298950195,-10.834177017211914,41.24495315551758,0.804406464099884,-0.46681198477745056,-1.3576667308807373,2.0039970874786377,0.25217223167419434,-0.4993317723274231,-2.2847707271575928,-0.14129987359046936,-0.2599519193172455,0.7759870290756226,0.5999888181686401,0.6787315607070923,-0.7967371940612793,0.7862622141838074,-0.4345358610153198
1579.965,0.04131891578435898,-0.015282729640603065,-0.9799225330352783,0.249611958861351,0.2911933958530426,0.8845263719558716,29.168737411499023,-10.327521324157715,40.26754379272461,0.016145525500178337,1.2459932565689087,0.18501335382461548,-0.7020198106765747,-0.972317099571228,-0.2176746129989624,-0.15438762307167053,0.23627543449401855,-0.20115527510643005,1.162068486213684,0.34384697675704956,-0.6611515879631042,-0.31956180930137634,-0.24077154695987701,-2.3765244483947754
1589.985,0.03901255130767822,-0.008956419304013252,-1.0115272998809814,0.3336564898490906,0.031496789306402206,0.24133779108524323,31.362834930419922,-8.195433616638184,40.297115325927734,-1.4459577798843384,-0.09780816733837128,-0.39061811566352844,0.22050277888774872,-1.0815712213516235,-1.1994274854660034,0.7144097685813904,-0.28732746839523315,0.24823513627052307,1.119921088218689,1.6573020219802856,-0.08843261748552322,-0.5022144913673401,-0.22599203884601593,0.08010707050561905
1599.999,0.07605499029159546,0.012986253015697002,-1.0331988334655762,-0.061922624707221985,-0.5793917775154114,-0.5797338485717773,29.437562942504883,-9.373655319213867,39.6016960144043,-0.42303788661956787,0.9515804052352905,1.3691859245300293,0.03228652477264404,-1.3335442543029785,0.29726994037628174,1.2591276168823242,0.07159063965082169,-0.5146484375,-1.3621807098388672,0.9041788578033447,0.4956568777561188,1.5043588876724243,-0.08126990497112274,0.351488322019577
1609.732,-0.00596447940915823,0.02913794480264187,-1.004231333732605,-0.4377506673336029,0.2230912744998932,0.08123623579740524,30.407434463500977,-8.965105056762695,39.813472747802734,0.05632394552230835,0.03836967796087265,-0.7839750051498413,-1.5846823453903198,-0.29747697710990906,1.0302340984344482,-0.7040965557098389,-0.2740122377872467,0.7216597199440002,0.924677848815918,-0.7909258008003235,2.0367276668548584,-2.2778751850128174,0.6247692704200745,0.23615586757659912
1619.813,-0.013001441024243832,0.03794696182012558,-1.0132300853729248,-0.11622662097215652,0.5067703723907471,-0.58681321144104,31.512290954589844,-10.32902717590332,40.627376556396484,0.01819528453052044,0.4847470223903656,1.6010969877243042,-0.38636016845703125,-0.20543327927589417,-1.5262444019317627,1.8372039794921875,-0.5934903621673584,1.5268512964248657,0.6752156615257263,-1.1313321590423584,-0.07995278388261795,-0.43789437413215637,-1.5870503187179565,-0.04079722240567207
1630.070,0.01852567493915558,0.0736457034945488,-1.0005005598068237,-0.20692837238311768,0.23659710586071014,0.14903812110424042,30.658720016479492,-11.17519474029541,39.163875579833984,1.1913682222366333,-0.7669105529785156,3.4711828231811523,1.1727404594421387,-1.0279045104980469,-2.9818472862243652,0.9862679839134216,-0.8399127125740051,0.9927789568901062,-1.7186397314071655,1.1575101613998413,0.9919308423995972,-0.8660773634910583,0.20202074944972992,0.5478568077087402
1639.897,0.035118456929922104,-0.01418128702789545,-0.9953750967979431,-0.11361051350831985,-0.003722195513546467,0.2328471690416336,29.066017150878906,-9.987342834472656,39.31682586669922,-1.3485902547836304,0.4191843867301941,-0.017928576096892357,-0.08733510971069336,-0.7383335828781128,-0.20397910475730896,-0.13988320529460907,-1.0156255960464478,3.0390396118164062,-0.568703293800354,-0.5735397338867188,-1.274393916130066,0.9444462656974792,-0.8579667210578918,-0.08892859518527985
1650.224,0.008094958029687405,0.018148718401789665,-1.009366512298584,0.2453753650188446,-1.0011240243911743,0.34257635474205017,28.020418167114258,-11.026275634765625,38.536033630371094,-0.9854745864868164,0.2971697449684143,-1.1118618249893188,-0.5326058268547058,-0.49222904443740845,1.7335582971572876,1.5729994773864746,-0.5431290864944458,-0.34427228569984436,-0.85971999168396,-0.5031935572624207,-0.05761674419045448,-0.19856005907058716,-0.7255698442459106,-0.09664295613765717
1660.184,0.1359352171421051,-0.11223717778921127,-0.9703138470649719,-1.0834392309188843,-0.13207879662513733,0.299430787563324,30.695716857910156,-11.100994110107422,39.06959533691406,0.5312179327011108,-0.08214737474918365,-1.5142487287521362,-1.5149071216583252,0.3006022274494171,-0.6938052773475647,0.836146891117096,0.9844744801521301,0.5852020978927612,-2.1197516918182373,-0.22581204771995544,0.05469055473804474,-0.7310028672218323,0.18120825290679932,0.9239196181297302
1669.908,0.08858262747526169,0.15512441098690033,-1.006111979484558,-0.5917336940765381,0.10708990693092346,0.041209377348423004,30.229225158691406,-8.582267761230469,41.76105499267578,1.2234934568405151,0.685583770275116,-0.15953810513019562,0.9496878981590271,-0.7151798009872437,2.2707736492156982,0.3796319365501404,0.05262158066034317,0.2505093812942505,0.7187343835830688,0.3917856514453888,-0.124779611825943,-1.4049642086029053,0.13755805790424347,0.9197195172309875
1679.902,-0.06542851030826569,0.01879664696753025,-0.9815835356712341,-0.2708601951599121,-1.0019240379333496,-0.3228893578052521,28.643648147583008,-10.4769926071167,40.62654113769531,0.27634871006011963,0.08129336684942245,-0.6022523045539856,0.32165876030921936,1.5021247863769531,0.036241624504327774,-0.3588695824146271,-0.34614428877830505,1.1117362976074219,-3.5335962772369385,0.03376837447285652,-0.5148789882659912,-0.9662684798240662,0.5708225965499878,-1.6384804248809814
1689.705,0.01599733717739582,0.06362242251634598,-1.0297878980636597,0.4233081340789795,-0.13550685346126556,-0.14803285896778107,28.965177536010742,-11.291753768920898,40.419776916503906,0.5951612591743469,-1.6208842992782593,-0.20680004358291626,1.1061712503433228,-0.8798292279243469,-0.0691269189119339,0.5906950235366821,-0.2528496980667114,0.31921109557151794,-1.5932769775390625,0.037709370255470276,-0.6914345622062683,-0.37944528460502625,1.0139496326446533,-0.06209629401564598
1700.066,0.013590946793556213,-0.0038504814729094505,-1.0127034187316895,0.182766392827034,-0.12687864899635315,0.8127760887145996,29.580896377563477,-10.715907096862793,39.511653900146484,-0.4992896318435669,0.5670508146286011,-0.39777112007141113,-0.4147869944572449,0.15966878831386566,-0.09996723383665085,-0.020879264920949936,-0.17868266999721527,0.6578929424285889,-0.2513286769390106,0.029645835980772972,-0.33297964930534363,-0.7871394157409668,-1.036177396774292,0.6904031038284302
1710.063,0.05472644045948982,0.040311578661203384,-1.0220928192138672,0.5156152844429016,-0.42457908391952515,1.067124366760254,29.643770217895508,-10.305364608764648,39.45120620727539,-0.188540518283844,1.1530578136444092,1.3162286281585693,1.658854603767395,0.40776118636131287,-0.16876664757728577,2.8697195053100586,-0.039275240153074265,1.017400860786438,-1.0478224754333496,0.7203442454338074,0.4558311402797699,0.051507867872714996,0.10294606536626816,0.16076859831809998
1720.218,-0.039615631103515625,0.05021001398563385,-0.996056079864502,-0.4745748043060303,0.11726436764001846,0.06442461907863617,30.390697479248047,-9.838132858276367,39.41227340698242,-0.7538994550704956,0.4190053343772888,0.7863931655883789,0.35985392332077026,2.3430919647216797,0.9180548191070557,-0.11980316787958145,0.9432145953178406,-0.7866573333740234,1.4831775426864624,-0.31382083892822266,-0.9835569858551025,-2.2457051277160645,1.3339053392410278,0.9638149738311768
1729.949,-0.039187099784612656,0.03623564541339874,-1.0029553174972534,0.5328783392906189,-0.8464365601539612,0.5387672185897827,30.00233268737793,-9.796273231506348,41.03465270996094,-0.0005264775245450437,-0.4223266541957855,2.8912341594696045,-0.4582512676715851,0.7176641225814819,-0.35793831944465637,1.1072156429290771,-0.6198797225952148,0.9932464361190796,0.2629096508026123,-0.786316454410553,-1.2282289266586304,-0.867438554763794,1.8416295051574707,-1.276690125465393
1740.260,-0.06335676461458206,0.049541033804416656,-1.0143928527832031,0.26176491379737854,0.4692643880844116,-0.18577708303928375,30.608591079711914,-10.258455276489258,41.8811149597168,0.9031001329421997,0.7847103476524353,0.10199327766895294,-0.25095853209495544,1.2216804027557373,-1.1964737176895142,2.1529510021209717,0.4824056923389435,-0.44560837745666504,-3.2246525287628174,1.531135082244873,0.6752904057502747,0.25545573234558105,0.666670024394989,-0.8885021805763245
1749.899,0.0071855876594781876,0.04272356629371643,-1.023893117904663,0.4788249135017395,0.7725632786750793,-0.3714410364627838,30.829652786254883,-8.527274131774902,39.987667083740234,0.359165757894516,1.5587589740753174,-0.35272350907325745,1.4047170877456665,0.5830183625221252,1.1539870500564575,-0.5383020639419556,0.6368676424026489,0.23723791539669037,0.17466826736927032,0.4167773723602295,-0.9035835266113281,0.2437472939491272,-0.3934600055217743,-0.4065423309803009
1760.056,-0.03534405678510666,-0.07799065113067627,-0.9830851554870605,-0.7602087259292603,-0.4632638096809387,-0.5705031156539917,30.071962356567383,-10.129408836364746,40.85905075073242,-0.6035310626029968,0.1961740106344223,-0.9790939688682556,0.1758532077074051,0.4645371735095978,-1.5440584421157837,-0.8392205834388733,0.8265985250473022,-0.6971074938774109,0.2917778491973877,0.0987086296081543,0.6386574506759644,0.446755588054657,-0.9146102666854858,-0.8063294887542725
1769.915,0.005035456735640764,-0.018186595290899277,-1.0152509212493896,-0.3409404754638672,0.4290640652179718,-0.4485172927379608,31.961116790771484,-11.458343505859375,41.0531005859375,0.639106273651123,0.7942795157432556,-0.4284794330596924,-1.6180137395858765,0.11618281900882721,-0.8227987289428711,-0.9534451365470886,1.5300397872924805,-0.7977102398872375,-0.18100601434707642,-0.23233802616596222,0.16600839793682098,0.9292569160461426,0.40310266613960266,0.12574146687984467
1779.895,-0.02586689032614231,0.0031792460940778255,-1.0235227346420288,-0.8200311660766602,0.13548600673675537,-0.49651309847831726,30.094097137451172,-8.073890686035156,39.72042465209961,0.6939626336097717,-0.19542059302330017,-0.3642368018627167,-0.6234839558601379,1.4876302480697632,0.4190749526023865,0.0947423055768013,-1.0550758838653564,-0.7962769865989685,-0.16380999982357025,-0.611497163772583,1.3409132957458496,-0.03322749212384224,0.276401549577713,-0.04939720034599304
1790.186,-0.02631586790084839,-0.05386263132095337,-0.9748474955558777,0.8137080073356628,0.13732127845287323,0.4393545091152191,29.002450942993164,-11.183218955993652,39.49483871459961,1.064934253692627,0.2861890196800232,-0.15871962904930115,0.954735517501831,-0.3513053059577942,-0.17883317172527313,0.9325754642486572,0.2998228371143341,-0.9957442879676819,2.756178617477417,-1.5240166187286377,-0.8669658899307251,1.5326752662658691,-1.270076870918274,-0.7290598154067993
1800.022,-0.0847046747803688,0.06203910708427429,-1.0263475179672241,0.4460964798927307,-0.7454696893692017,0.09790318459272385,28.980377197265625,-9.010997772216797,39.572818756103516,-0.6559539437294006,-0.49941810965538025,0.5367310047149658,0.6661679744720459,1.516159176826477,0.7560220956802368,0.2931133508682251,-0.6803948879241943,-0.20822134613990784,0.06539659947156906,-0.22959306836128235,1.0836782455444336,-2.193601369857788,-1.6024256944656372,-2.6267330646514893
1809.860,-0.025733698159456253,-0.010489845648407936,-1.0127376317977905,-0.30556026101112366,0.6913614869117737,-0.9765797257423401,28.376834869384766,-9.658555030822754,41.215938568115234,0.22434037923812866,0.4757833480834961,0.26515987515449524,0.41967126727104187,-0.468657523393631,-1.7734743356704712,1.2959778308868408,0.5299480557441711,-1.712941288948059,-0.5678187012672424,-1.0342353582382202,-1.5158461332321167,-1.3270725011825562,-2.0775816440582275,-0.24416159093379974
1819.886,0.007407256402075291,-0.05582496151328087,-0.9971359968185425,0.27806171774864197,-0.24974378943443298,-0.7108093500137329,28.93745994567871,-11.291786193847656,38.51543045043945,1.0163986682891846,0.6597927808761597,-1.070094347000122,-0.5604673027992249,-0.2295648455619812,0.45598942041397095,-0.5954678058624268,-0.47043919563293457,0.23420189321041107,-0.7019249200820923,1.4229449033737183,0.07635805010795593,-0.10635173320770264,1.3152765035629272,-2.0955662727355957
1829.870,-0.01319767627865076,-0.042102135717868805,-1.0013457536697388,0.3761606216430664,-0.44716328382492065,-0.27647560834884644,30.324649810791016,-10.471059799194336,40.10192108154297,1.0541770458221436,1.082842230796814,0.04617682471871376,-1.4294049739837646,-0.705083429813385,0.5273978114128113,-0.6313027143478394,0.27886784076690674,-1.957453727722168,1.219817042350769,-1.453498363494873,-0.5725715756416321,0.8301696181297302,0.2667090892791748,0.26415932178497314
1839.880,-0.034170787781476974,-0.024379899725317955,-0.9664588570594788,-0.6188620328903198,0.7218121886253357,-0.2981255352497101,29.68723487854004,-10.077951431274414,39.47730255126953,0.7050085663795471,0.42402154207229614,1.3059669733047485,-1.522570252418518,1.4383012056350708,-0.929775595664978,1.5337573289871216,0.6020756363868713,-0.796339750289917,0.41048526763916016,0.6241034865379333,1.3486051559448242,0.5679546594619751,1.8136488199234009,-0.3726098835468292
1850.202,0.06140325218439102,-0.012141331098973751,-0.9850212335586548,0.12166748195886612,0.28550171852111816,-0.3660757541656494,27.41887092590332,-9.5154447555542,40.986663818359375,0.5423845648765564,0.861835777759552,-1.4320545196533203,-0.30319944024086,-0.8741983771324158,1.7982181310653687,-0.034576524049043655,-1.1566946506500244,0.7712399363517761,0.18735969066619873,-0.8900126218795776,-0.18673667311668396,0.8908185362815857,0.5128951668739319,0.9977235198020935
1859.954,-0.12113143503665924,0.02641276828944683,-1.0094925165176392,-0.06989976018667221,-0.3967018723487854,0.12050118297338486,30.926197052001953,-9.836250305175781,38.066802978515625,-0.5954500436782837,0.5505227446556091,-1.2176746129989624,-0.07527264207601547,-0.056925226002931595,0.8754453063011169,2.5616071224212646,0.8350545167922974,2.0775394439697266,0.6793779730796814,-0.5808926820755005,0.01608988828957081,-0.43714678287506104,-0.4248391389846802,-0.4836605489253998
1869.883,0.057164404541254044,0.004782566335052252,-1.0188727378845215,0.23948010802268982,0.6711140871047974,0.20006003975868225,31.424001693725586,-10.639728546142578,39.188438415527344,0.3563205301761627,0.7765302658081055,-0.6111072897911072,-1.9975686073303223,0.24953612685203552,0.1796855479478836,0.17518571019172668,0.4418503940105438,0.11512161046266556,0.7631481289863586,1.39364755153656,0.9224107265472412,-0.6193511486053467,-0.573552668094635,-0.16733615100383759
1880.124,-0.0943479910492897,-0.016865158453583717,-0.9896035194396973,0.06972625106573105,0.9294064044952393,0.6221006512641907,30.287443161010742,-10.327880859375,40.13714599609375,-1.634049892425537,-0.12143193930387497,0.7709200978279114,0.040383271872997284,-1.0331969261169434,0.6706151962280273,-2.5516557693481445,-0.5556092262268066,0.5390419960021973,-1.0935722589492798,0.30244550108909607,-0.607426106929779,-0.583146333694458,-0.8786067962646484,-2.054556131362915
1890.123,0.00798708014190197,0.04021073877811432,-0.9902190566062927,-0.6757420897483826,-0.025003982707858086,-0.006625544745475054,30.912548065185547,-10.508976936340332,40.5046501159668,0.8008970022201538,0.7243840098381042,2.5171682834625244,0.581806480884552,-1.9289040565490723,0.36359545588493347,-0.32221803069114685,1.1512194871902466,-0.38126084208488464,-1.5729081630706787,-0.4238579273223877,0.46408483386039734,-0.41978517174720764,0.8451576828956604,-0.10626116394996643
1900.298,0.02546933852136135,-0.008992395363748074,-0.9829099178314209,-0.42392781376838684,0.007362331263720989,0.03139419108629227,30.396005630493164,-8.451424598693848,40.60088348388672,-1.0197997093200684,-1.622426986694336,-1.0966153144836426,0.42641401290893555,-0.8235171437263489,-1.1508190631866455,0.07591072469949722,-2.137688159942627,-0.9119495749473572,-0.07649069279432297,0.3635018765926361,-0.5777243375778198,-1.1530113220214844,0.8055234551429749,0.30859145522117615
1910.162,-0.09757044911384583,-0.013861795887351036,-1.0405858755111694,-0.15171876549720764,-0.5088398456573486,-0.309187114238739,32.098636627197266,-8.087813377380371,38.47663116455078,1.107100009918213,0.44705432653427124,0.16360853612422943,0.0713513046503067,0.8724526166915894,0.6344279646873474,0.6198927760124207,1.5938286781311035,0.5348021388053894,-1.2595561742782593,-0.9212804436683655,-0.5752125382423401,0.9723040461540222,-0.5610499978065491,1.1427830457687378
1920.322,0.002653795061632991,-0.025216206908226013,-1.0374455451965332,-0.2224685400724411,0.39190736413002014,0.02160581573843956,30.147737503051758,-8.827777862548828,42.0720329284668,1.6360926628112793,0.23137278854846954,-0.8878896236419678,-0.4666890501976013,0.8909989595413208,0.45556366443634033,-1.3861095905303955,1.0797560214996338,0.20002028346061707,-0.1277153491973877,3.2241151332855225,-0.30554670095443726,-0.3903575539588928,0.15787586569786072,-0.8085407018661499
1929.690,0.10753636062145233,0.029860351234674454,-1.0146883726119995,-0.2902836501598358,-0.22226867079734802,-0.3579353988170624,31.038326263427734,-9.351340293884277,38.939857482910156,-0.6409424543380737,1.4202288389205933,-0.5358518958091736,1.4301893711090088,1.7172372341156006,0.08508271723985672,1.177786111831665,2.217323064804077,-1.2661603689193726,1.5370763540267944,-0.6162518858909607,-2.3062961101531982,0.3544222414493561,-1.0478885173797607,1.0452033281326294
1940.173,-0.027988789603114128,0.06591105461120605,-1.0035359859466553,-1.0602384805679321,-0.5503703951835632,-0.28267648816108704,30.68549346923828,-8.682446479797363,40.80123519897461,-0.5436922907829285,0.6389181017875671,-0.09230335801839828,-0.7451949715614319,-0.3509066104888916,0.7740375995635986,0.6105254292488098,0.05959174409508705,0.43081000447273254,-1.274348258972168,-0.13066324591636658,-0.9371171593666077,-0.5362606048583984,-0.6545982956886292,0.2366648018360138
1949.907,0.03669450804591179,0.03520654886960983,-1.0140897035598755,-0.1428506225347519,-0.4570619761943817,0.3870127499103546,30.225048065185547,-10.6868896484375,41.20264434814453,2.0330820083618164,-0.2910812795162201,1.244147539138794,1.756312608718872,0.6421413421630859,-1.3813341856002808,0.5753819346427917,-1.6838088035583496,0.31273189187049866,-0.3704341650009155,-1.4491084814071655,0.13112595677375793,2.288395643234253,-0.014075877144932747,0.23918166756629944
1959.994,-0.019527452066540718,-0.07156878709793091,-1.0354288816452026,-0.3919905424118042,0.4742041528224945,-0.18414406478405,30.153423309326172,-10.930597305297852,40.677024841308594,-1.4979501962661743,1.4591084718704224,1.1774259805679321,1.4373366832733154,0.16677869856357574,1.9014681577682495,-0.350067138671875,0.3409232199192047,-0.3342869281768799,-0.7780724167823792,2.2078661918640137,-0.24599723517894745,-0.7696245908737183,-0.999009907245636,1.5867149829864502
1970.152,-0.06902597099542618,0.004615231417119503,-0.9623129367828369,0.6288801431655884,-0.16947095096111298,0.44080591201782227,29.544275283813477,-10.458730697631836,40.67979049682617,0.3881153166294098,-0.9085018634796143,0.4625585675239563,1.7565215826034546,-0.596034586429596,0.04807678237557411,0.7458217740058899,0.4045619070529938,-0.06392683833837509,2.3106207847595215,-0.4824196994304657,-0.6501497626304626,-0.3628380596637726,0.7441032528877258,-0.33238255977630615
1980.022,0.0024504445027559996,-0.023656059056520462,-1.0142581462860107,-0.9975192546844482,-0.174419105052948,0.6128668785095215,31.461889266967773,-10.60293197631836,40.2879524230957,0.46920421719551086,-0.6471871733665466,0.23184959590435028,0.269172340631485,-0.4456852674484253,0.04296813905239105,0.5869393348693848,0.07757837325334549,-0.25131314992904663,0.03817958012223244,-1.3537189960479736,0.19508123397827148,-1.7954505681991577,-1.670911431312561,-0.16054271161556244
1990.096,0.0032784505747258663,0.013009646907448769,-0.9890746474266052,-0.31246238946914673,0.8306939005851746,1.0774719715118408,31.6133975982666,-9.261713027954102,39.97904586791992,-1.6590408086776733,-1.478310227394104,-0.6628541350364685,-1.603873372077942,0.5602735280990601,0.007707559037953615,-0.015546699985861778,0.181746244430542,1.4600157737731934,-1.624364972114563,-0.4526022672653198,0.1775328367948532,0.31460797786712646,-0.4770968556404114,0.1054341197013855
2000.099,-0.017228685319423676,0.06418085843324661,-0.9367744326591492,-0.8276438117027283,-0.5686570405960083,-0.2568173408508301,29.30602264404297,-8.835548400878906,39.69082260131836,-0.27897027134895325,-0.4689221680164337,-1.722107172012329,0.5689837336540222,0.12268520891666412,-1.1217082738876343,-1.8476930856704712,-0.2167402058839798,0.7219780683517456,0.520639181137085,-1.660591959953308,1.2268811464309692,0.08068910986185074,-0.7937360405921936,-0.4549642503261566
2009.990,-0.042718756943941116,-0.08514377474784851,-0.9901714324951172,-0.6082619428634644,-0.12287724763154984,0.3226850628852844,27.334871292114258,-10.85492992401123,38.743534088134766,-1.4527243375778198,1.326611876487732,-0.2524857521057129,1.5962424278259277,0.4349491000175476,-2.1020290851593018,1.4359368085861206,-0.46961724758148193,-0.39203062653541565,0.5062005519866943,0.07944299280643463,-0.958893358707428,0.43014851212501526,-0.1458519846200943,-1.201816201210022
2019.745,-0.05200016871094704,0.007087264209985733,-1.0180493593215942,0.177093043923378,0.45445379614830017,-0.3230823278427124,29.87175941467285,-10.195302963256836,39.7694091796875,-0.8399197459220886,-0.5554798245429993,-0.39916491508483887,0.9359567761421204,-0.4868990182876587,-0.05401962250471115,0.9723208546638489,0.9376661777496338,0.9498820304870605,0.10898678749799728,0.0928986594080925,1.1083765029907227,-1.4751709699630737,-0.7365931272506714,0.9154514670372009
2029.964,0.002888223621994257,-0.09815002977848053,-0.9954165816307068,-0.4984288513660431,0.3034061789512634,0.01561851054430008,30.39483070373535,-9.139860153198242,41.217342376708984,-0.03853511065244675,0.4305586516857147,-0.24729925394058228,0.4633634686470032,0.48961544036865234,-1.4383323192596436,-1.4281166791915894,-0.7300605177879333,-0.24800753593444824,1.934680700302124,-1.462215542793274,0.5156612992286682,-0.6074917912483215,-0.13126081228256226,0.9525734186172485
2039.876,0.012613344006240368,0.05578475818037987,-0.9912130832672119,-0.15326423943042755,-0.2549317479133606,-1.1830620765686035,30.346681594848633,-8.739713668823242,41.797027587890625,-0.6884673237800598,1.303601861000061,-0.7844664454460144,1.5126293897628784,-2.085280418395996,1.2611844539642334,1.4367307424545288,0.440317302942276,-0.15547607839107513,-0.44859129190444946,1.046054482460022,-1.0884675979614258,1.1392818689346313,-1.0462979078292847,-1.101148009300232
2049.802,-0.022548798471689224,-0.046344440430402756,-1.0012685060501099,0.17901837825775146,-0.6235989332199097,0.42538216710090637,30.52011489868164,-10.70812702178955,40.05601119995117,0.7705678939819336,1.1105810403823853,0.5913782715797424,-1.2157062292099,1.2273950576782227,-1.5291630029678345,0.06659196317195892,-0.04263687506318092,0.05882760137319565,2.6397430896759033,-0.6401697397232056,0.9873083233833313,0.42401760816574097,0.1683184802532196,-0.9183787703514099
2060.073,0.0016750763170421124,0.06091316416859627,-1.0007694959640503,-0.045980844646692276,0.5045262575149536,0.6824603080749512,30.79397964477539,-10.94694709777832,40.039180755615234,-1.947009563446045,1.299699068069458,-0.0021141746547073126,0.9473922848701477,-0.4264759123325348,-0.013072703033685684,-1.113673448562622,0.39772534370422363,0.09518398344516754,0.4041355550289154,0.9477844834327698,0.7326352000236511,0.17325450479984283,1.2358440160751343,1.2862411737442017
2070.011,-0.01657245308160782,0.05700182169675827,-1.0026990175247192,0.3716842234134674,-0.09543061256408691,-0.5929863452911377,27.643341064453125,-9.818392753601074,39.58754348754883,-0.10980606079101562,0.32130715250968933,1.8560901880264282,0.30107593536376953,-1.6623220443725586,0.43474921584129333,0.16177020967006683,-2.5165963172912598,0.3505952060222626,1.3701303005218506,-2.118300437927246,-0.34793126583099365,0.04571590572595596,0.8954277038574219,-0.496581107378006
2080.042,0.07175056636333466,0.0787067860364914,-1.0185468196868896,-0.047455232590436935,-0.36589759588241577,0.9072391986846924,28.9964542388916,-12.395195960998535,39.45622634887695,-1.033354640007019,-2.454031229019165,0.4168757200241089,-0.691842257976532,-0.8867864012718201,2.750462770462036,-0.905971109867096,0.44998547434806824,0.5158373713493347,1.1719883680343628,-0.16459061205387115,-1.229857087135315,0.53451007604599,0.7422875761985779,0.5169336795806885
2090.211,-0.029026146978139877,-0.004922700114548206,-0.9717634320259094,0.0637279525399208,0.8594315052032471,0.040931083261966705,30.022275924682617,-10.64002513885498,39.40464782714844,0.4369383454322815,0.5577741265296936,0.3573424518108368,1.3517388105392456,0.7903825044631958,-0.8130511045455933,-1.0156996250152588,-1.3067606687545776,-0.37233155965805054,0.08826063573360443,1.3186050653457642,0.07076936960220337,0.5147038698196411,-0.1672099381685257,-1.1804040670394897
2099.666,0.02930145338177681,-0.08271908015012741,-1.0216741561889648,0.9015065431594849,-0.7959086894989014,-0.16406546533107758,30.37582015991211,-9.328417778015137,39.20746612548828,-0.48729202151298523,0.02783229388296604,3.6218643188476562,-0.1792919933795929,-0.247129425406456,0.3930271565914154,-1.0177621841430664,0.11032959073781967,-0.7561919689178467,1.0109926462173462,-0.04194634407758713,1.2633578777313232,-2.3046162128448486,-1.7580333948135376,-0.4872246980667114
2110.198,-0.06694692373275757,-0.05308547243475914,-0.9944005012512207,0.581264317035675,0.10106275230646133,0.6725876927375793,28.274099349975586,-8.628023147583008,39.96202850341797,0.32126742601394653,0.04989320784807205,0.17981120944023132,0.27259331941604614,0.8880294561386108,-1.957961916923523,-0.6060875654220581,0.04985854774713516,0.6814658045768738,-0.5407341718673706,0.5890107154846191,-1.173043966293335,-1.2821271419525146,0.5346080660820007,0.3629768490791321
2119.907,0.0063728224486112595,0.006709744688123465,-1.0033520460128784,0.3212904930114746,-0.6678604483604431,-0.4025266170501709,30.259336471557617,-8.900161743164062,40.04911422729492,0.08498284220695496,0.9097720384597778,0.2544063329696655,-0.17831425368785858,1.06618332862854,-1.0383867025375366,-1.0366078615188599,0.003797770943492651,-0.4722425043582916,0.6031328439712524,0.28253018856048584,0.4509991407394409,0.28325825929641724,-1.6905829906463623,0.40714097023010254
2130.057,0.0033845482394099236,0.023184558376669884,-1.051703929901123,0.28297290205955505,-0.16212715208530426,-0.9674942493438721,31.982194900512695,-10.078102111816406,42.3864860534668,-0.5126573443412781,-0.1342809498310089,-0.1826486438512802,0.743044376373291,-2.2176218032836914,-1.0537410974502563,1.3573687076568604,0.7045494914054871,-1.4699466228485107,-0.8903241753578186,-0.15676850080490112,-0.9772217869758606,-0.5383617281913757,-1.493178129196167,1.3382033109664917
2140.147,0.0536772757768631,0.026324721053242683,-1.0337929725646973,-0.38844868540763855,0.5943318009376526,0.20660275220870972,30.269983291625977,-9.883529663085938,38.73891830444336,-1.9089957475662231,0.44568806886672974,-1.301634669303894,1.5319114923477173,0.9691768288612366,-0.06358495354652405,0.5873440504074097,0.21978051960468292,2.2875542640686035,-0.39384856820106506,-0.9517748355865479,0.8023213744163513,-0.11777035146951675,0.15128038823604584,-0.728836715221405
2150.022,-0.08547007292509079,0.010302063077688217,-1.0021042823791504,-0.2736862003803253,-0.9201975464820862,0.8356500864028931,30.086814880371094,-11.254033088684082,40.41122817993164,0.6754768490791321,1.6887520551681519,-2.043360948562622,-0.745758593082428,1.116058349609375,-0.4034937918186188,0.8990082144737244,0.9659309387207031,1.055728793144226,-1.131717562675476,0.8848443627357483,-0.4571205675601959,-1.7710974216461182,1.384812593460083,0.04445583373308182
2159.804,-0.04328683763742447,0.033434320241212845,-1.0189393758773804,0.10995025932788849,-0.870680034160614,0.3478897511959076,29.271501541137695,-10.14255142211914,41.232810974121094,-1.8808256387710571,0.7604477405548096,-0.8969192504882812,-2.537653923034668,0.25459274649620056,1.1102914810180664,1.0851905345916748,0.7325851917266846,2.3432648181915283,-1.1159828901290894,-0.2996796667575836,1.3193473815917969,0.9132486581802368,0.7767781019210815,-0.8864848017692566
2169.901,0.022917842492461205,0.16348591446876526,-1.001717209815979,-0.09146224707365036,-0.6176120042800903,0.4222520589828491,30.980165481567383,-8.171468734741211,39.27960205078125,-2.5633673667907715,0.3812096118927002,2.2609856128692627,-1.1968013048171997,0.7566280364990234,-0.5427609086036682,-0.14061681926250458,-0.42236724495887756,-0.04445324093103409,-0.8803988099098206,-0.4634016156196594,-1.286690592765808,-2.387962579727173,1.6498547792434692,-1.8522464036941528
2179.815,-0.04215768352150917,-0.04254788160324097,-1.0211738348007202,0.06634426862001419,-0.44513532519340515,-0.29055121541023254,27.438596725463867,-10.540850639343262,40.36356735229492,1.723865032196045,2.7295010089874268,-1.6648226976394653,-0.31330832839012146,-0.07287471741437912,0.7380887269973755,-0.35998496413230896,0.5284357070922852,-1.4295547008514404,1.7727411985397339,-1.0621416568756104,0.1917371153831482,1.2212226390838623,0.31271272897720337,0.17724502086639404
2189.924,-0.048199623823165894,0.018668552860617638,-0.9837523102760315,-0.6102498173713684,-0.08670171350240707,0.35973086953163147,29.507347106933594,-9.72362232208252,41.71343231201172,0.14769043028354645,-0.530184805393219,-0.20005369186401367,0.14550738036632538,-0.05149276554584503,-1.832204818725586,-0.14812983572483063,-1.0539748668670654,2.399193525314331,-0.3985459506511688,-1.098119854927063,1.0898600816726685,-0.5368767976760864,0.8304992318153381,1.0614022016525269
2199.857,-0.06065446883440018,-0.02180994302034378,-0.9855976104736328,0.48192301392555237,-0.6584643721580505,-0.0679173395037651,29.53729248046875,-9.439864158630371,39.00681686401367,0.06855660676956177,-1.370880365371704,-2.152017831802368,0.5353521704673767,-1.1080981492996216,1.9055399894714355,0.3429953455924988,-0.7059741020202637,0.0039802659302949905,-0.36702704429626465,-0.3250404894351959,0.38094794750213623,0.3695564866065979,0.12804098427295685,-0.4970162808895111
2209.889,-0.02231096476316452,0.0919487401843071,-1.0063313245773315,-0.4344928562641144,-0.3551490604877472,0.21096712350845337,29.775100708007812,-11.368751525878906,40.05869674682617,-0.5149945020675659,-1.3597698211669922,0.893962025642395,-1.1743793487548828,1.2613136768341064,0.2381332963705063,-1.374638319015503,0.49342137575149536,-0.7979671955108643,-1.231957197189331,1.2969602346420288,-0.1558549553155899,-1.5571025609970093,-0.6954850554466248,0.9161725044250488
2219.898,-0.03253638744354248,0.022631334140896797,-0.9884446263313293,0.34588876366615295,0.3344104290008545,-0.07518924027681351,29.823196411132812,-7.951155185699463,41.38935089111328,-0.5223938226699829,0.23256251215934753,0.15062709152698517,-0.7448480129241943,-1.53734290599823,1.2429050207138062,0.18281066417694092,0.31659671664237976,0.21559785306453705,-0.8129985332489014,1.0895363092422485,0.9839415550231934,-0.18825410306453705,-0.03670955076813698,0.31207871437072754
2230.201,0.004506045952439308,0.10466893762350082,-0.961737871170044,-0.23503784835338593,0.04003947228193283,0.89487624168396,31.07281494140625,-9.154497146606445,42.06877899169922,0.23718982934951782,-2.6093032360076904,0.017722072079777718,-1.1906992197036743,1.5314875841140747,0.149201437830925,-0.05325910449028015,0.40236127376556396,-0.4128945469856262,-1.6803861856460571,-0.19892002642154694,-1.2608789205551147,-0.24963639676570892,1.1681631803512573,0.2454598993062973
2239.926,0.006439081393182278,-0.09724093228578568,-0.9754981994628906,0.12471699714660645,-0.4475915729999542,-0.2057098150253296,31.905935287475586,-9.777351379394531,41.67021560668945,-0.08117427676916122,-2.105576276779175,-0.5808694958686829,-0.20078542828559875,1.0238046646118164,0.2855340242385864,0.715810239315033,0.02643916942179203,0.8511767387390137,0.458065390586853,-1.1439214944839478,-0.7005815505981445,2.762268543243408,-1.2366451025009155,-0.9969222545623779
2249.875,0.03141840174794197,0.012943223118782043,-1.03858482837677,0.07264203578233719,-0.029356060549616814,-0.8134387731552124,29.915908813476562,-8.363394737243652,42.11848068237305,1.3634051084518433,1.2045806646347046,0.13778162002563477,-2.8027665615081787,0.09491334855556488,-0.2215326428413391,0.8604897260665894,-0.17140306532382965,-0.14490026235580444,0.8295711278915405,-0.5726763606071472,0.04301825910806656,0.8649469614028931,0.34474116563796997,-0.4004549980163574
2259.853,-0.06049152836203575,0.028915787115693092,-0.9976991415023804,-0.7014430165290833,0.5606454610824585,0.17515717446804047,29.42313575744629,-9.48086166381836,39.973514556884766,0.7202855944633484,-0.22674188017845154,-0.11223036050796509,0.7621122002601624,0.6023856401443481,1.7070180177688599,-1.767435908317566,-1.7258268594741821,0.47445985674858093,2.1126859188079834,1.9353872537612915,-0.16815344989299774,-0.24457485973834991,-1.6848905086517334,1.2655236721038818
2269.907,0.07381055504083633,0.06734864413738251,-0.9856199622154236,-0.5600461363792419,-0.5200505256652832,0.45517241954803467,28.442731857299805,-9.626177787780762,39.582244873046875,-1.3634922504425049,-1.0641499757766724,0.01037970557808876,-0.0865313783288002,0.10546369850635529,-0.17309029400348663,-0.7125250101089478,0.657235860824585,-1.7967215776443481,0.3328835070133209,-0.5023719668388367,0.8124052286148071,-0.9522525072097778,-1.6959292888641357,0.5576422214508057
2280.042,-0.020382966846227646,0.06367706507444382,-1.009679913520813,0.12009751796722412,-0.8467077016830444,0.6153685450553894,29.63152503967285,-10.247518539428711,39.067909240722656,-0.9753947257995605,0.5330498814582825,-0.5189910531044006,-0.4797537624835968,-0.3728065490722656,1.7752069234848022,-0.7763385772705078,0.6005013585090637,-0.32251012325286865,1.5552738904953003,-0.5759454369544983,-0.9228327870368958,-1.0899245738983154,1.6110084056854248,0.9996329545974731
2290.117,0.047945477068424225,0.0023274377454072237,-1.0066914558410645,0.15203224122524261,-0.7877704501152039,-0.6450743675231934,30.557374954223633,-11.12140941619873,41.15081024169922,-0.6934487223625183,0.05510009825229645,0.47715863585472107,-0.09854350984096527,-2.031277656555176,-0.7164722084999084,-1.3256858587265015,0.037327639758586884,0.6050439476966858,-1.7424471378326416,0.35066094994544983,-0.971716046333313,0.21621207892894745,0.256389856338501,-2.6192846298217773
2300.244,0.0603494830429554,0.03243634104728699,-1.0009593963623047,0.8345068097114563,0.5770800113677979,-0.29161182045936584,29.682905197143555,-11.330628395080566,40.20539474487305,-1.774836540222168,1.1374701261520386,-0.7775974273681641,1.5184125900268555,-0.5439015626907349,-1.583736777305603,-0.24062146246433258,-0.2641585171222687,0.90671306848526,-1.5621417760849,-0.5763837099075317,0.030765723437070847,2.4866769313812256,-1.3079438209533691,-0.09717486798763275
2309.983,-0.034561194479465485,-0.06478462368249893,-0.9690945744514465,-0.08413568139076233,-0.2807442247867584,-0.31492212414741516,31.88179588317871,-9.294940948486328,41.071197509765625,1.7761934995651245,-0.4992205500602722,0.41726502776145935,1.4670805931091309,-0.6660102605819702,0.2816842794418335,0.2673282325267792,-0.6393551826477051,-0.7099130749702454,0.4838905334472656,-0.3050502836704254,0.40606778860092163,2.690326452255249,0.7872378826141357,-0.9927696585655212
2319.977,-0.01884796842932701,-0.053318534046411514,-0.9955417513847351,0.5592866539955139,-0.031880609691143036,0.7776389122009277,30.397037506103516,-11.273002624511719,40.4622688293457,-0.2339552640914917,1.7387526035308838,1.3010467290878296,0.3730156719684601,0.5569689273834229,1.5717664957046509,-0.02302158623933792,-0.6970011591911316,-0.19066758453845978,1.371078610420227,0.41543495655059814,0.3162749111652374,-0.6042754650115967,-0.2823162376880646,-0.5998480319976807
2330.097,-0.0714283213019371,-0.03648776561021805,-0.9967371821403503,-0.030753156170248985,0.8721837997436523,0.07369127869606018,31.28230857849121,-7.72667932510376,40.25032043457031,0.25301384925842285,-1.6041098833084106,-0.3935054540634155,-1.1623632907867432,0.5958103537559509,-0.4380987882614136,0.7044395208358765,-1.7556169033050537,0.38821321725845337,-0.1858905702829361,0.32614532113075256,0.804041862487793,-1.4742578268051147,-0.4919012486934662,0.888675332069397
2339.962,-0.03254168480634689,0.05665002390742302,-1.0160294771194458,-0.27377596497535706,-0.4664219617843628,0.23845191299915314,28.464380264282227,-9.129597663879395,39.058040618896484,-1.171932578086853,-0.8393265008926392,0.061651717871427536,0.1857234090566635,-0.46684712171554565,0.8618203997612,-0.47228047251701355,1.8665416240692139,1.4748045206069946,-0.09905214607715607,-1.2389568090438843,-0.8014287948608398,0.2539559006690979,-0.42126503586769104,0.17812928557395935
2349.969,-0.0661676675081253,0.00980202853679657,-0.997559130191803,0.04277844727039337,-0.2000725269317627,-0.17142419517040253,29.075313568115234,-8.747862815856934,39.63172149658203,0.6980381608009338,0.42094191908836365,0.4243410527706146,1.5101927518844604,0.3354536294937134,0.422899067401886,-0.8400141596794128,0.5762044191360474,-0.3121463358402252,1.000036597251892,-0.013234046287834644,-0.9389442205429077,0.3381543755531311,-0.4386254549026489,0.5749620795249939
2359.943,0.12375982105731964,0.04940038174390793,-0.9847605228424072,0.08829859644174576,0.08997076004743576,-0.7750320434570312,31.469507217407227,-10.703788757324219,39.18618392944336,-0.07924053817987442,-0.11922521889209747,0.8597274422645569,-2.339327096939087,-0.07896681129932404,0.6543053388595581,-0.03217644244432449,-1.0252467393875122,0.10095483809709549,1.626015067100525,-0.789056658744812,-0.3054976165294647,-0.17515279352664948,-0.3663579523563385,-1.1796162128448486
2369.889,0.007048674393445253,-0.022326739504933357,-0.994898796081543,0.04238803684711456,0.4340992569923401,-0.5219668745994568,28.883604049682617,-9.45311450958252,39.084190368652344,-0.8769846558570862,-0.7870808243751526,0.07359124720096588,-1.2188172340393066,0.042240824550390244,0.1638679802417755,1.006874680519104,-0.333432137966156,-0.5834095478057861,0.728934645652771,1.7599756717681885,0.4061608612537384,-0.5399783849716187,-0.14321684837341309,-0.5512507557868958
2380.134,-0.046295858919620514,-0.04992128536105156,-0.9909814596176147,-0.6444993615150452,-0.6153891682624817,-0.06016865372657776,30.136280059814453,-10.00877571105957,39.33202362060547,1.4204518795013428,-1.3863855600357056,-1.9933589696884155,-0.9479918479919434,-1.238121747970581,1.2886621952056885,2.0830538272857666,0.9571000337600708,0.8759734630584717,-1.5005465745925903,0.6698240637779236,0.4540840983390808,0.37741079926490784,0.7706131339073181,-1.026972770690918
2390.076,0.053826406598091125,-0.01422584243118763,-1.026066541671753,-0.5649963021278381,0.0016676340019330382,0.6770694255828857,29.32794761657715,-9.280372619628906,40.816898345947266,-0.26692163944244385,-0.5220761299133301,0.8589112162590027,-1.6168713569641113,-0.3867596685886383,1.4264920949935913,-0.5452592372894287,0.04001195728778839,-1.8566645383834839,-0.05380565673112869,0.9191832542419434,2.388636589050293,-0.107917420566082,0.5866318941116333,-0.2969495356082916
2399.959,0.044054385274648666,0.05656548589468002,-1.011587381362915,-0.0864664614200592,0.052227895706892014,0.44890865683555603,29.843244552612305,-9.758966445922852,39.74217987060547,-0.27853524684906006,-0.5974277257919312,0.10837787389755249,0.6907904744148254,-0.2686322331428528,-0.036793190985918045,-0.5504112243652344,1.3521631956100464,0.21731680631637573,-0.3235008716583252,-0.3669954240322113,1.0549441576004028,1.6656914949417114,-0.18076755106449127,1.2385587692260742
2410.007,0.060477495193481445,0.0035926979035139084,-0.9832234978675842,-0.11118871718645096,-0.5717820525169373,-0.18100430071353912,30.507888793945312,-11.400226593017578,39.93900680541992,0.8649863600730896,0.6663944721221924,-1.9007807970046997,-1.0083069801330566,0.706824541091919,1.3917210102081299,-2.285334348678589,-1.235703468322754,-0.23750299215316772,0.06146237999200821,-0.16084492206573486,0.8818655014038086,-0.2805124819278717,0.13033702969551086,-1.3998706340789795
2420.032,-0.04390737786889076,-0.03899960592389107,-0.9947813749313354,0.4499804675579071,-0.2480839490890503,-0.4079851508140564,30.066322326660156,-8.571549415588379,38.917152404785156,-2.449720621109009,0.4630509912967682,-1.4665342569351196,-0.28009912371635437,-0.2575780749320984,0.37559494376182556,1.4476814270019531,0.681814968585968,0.43355098366737366,0.6935782432556152,1.3409098386764526,1.8596161603927612,0.6005117893218994,1.5103092193603516,-0.3803701102733612
2429.880,0.002941107377409935,0.014206658117473125,-1.0481513738632202,0.1627093404531479,-0.1773131787776947,-1.2416112422943115,30.091094970703125,-11.298416137695312,41.11566925048828,0.012013428844511509,0.31947681307792664,-0.06307025998830795,1.516119360923767,0.9312519431114197,-0.0175189021974802,-0.499216228723526,0.6880075335502625,-0.039673324674367905,0.5914267897605896,0.588545024394989,1.2665499448776245,-0.8809129595756531,-1.5330640077590942,-1.0282644033432007
2440.045,0.024138454347848892,0.027216998860239983,-0.9471133947372437,-0.7861164808273315,-0.0592288076877594,-0.18256738781929016,29.8470516204834,-9.344989776611328,38.712013244628906,-0.06292203813791275,-1.6341997385025024,-0.4353494942188263,0.2369302660226822,2.1673014163970947,-1.0292900800704956,0.9256454110145569,0.19614960253238678,0.4019412100315094,2.981127977371216,-0.9630023241043091,0.5281318426132202,0.1211981326341629,-0.6764276027679443,-0.19055700302124023
2450.140,-0.015355218201875687,0.058095771819353104,-0.9948581457138062,0.16134770214557648,-0.39025548100471497,-0.871222198009491,29.741113662719727,-9.051546096801758,39.18342208862305,0.009100894443690777,-1.6030652523040771,-1.2252323627471924,-0.9365947246551514,2.1789610385894775,1.411778211593628,0.1492256075143814,0.5298037528991699,-0.6830721497535706,0.3030049800872803,-1.057976245880127,-2.86069917678833,1.3749064207077026,0.27781012654304504,0.46105051040649414
2460.032,0.02092822454869747,0.027645789086818695,-0.9991358518600464,-0.1978004425764084,-0.28318697214126587,-1.3326570987701416,28.677913665771484,-10.915553092956543,40.154109954833984,-0.9042067527770996,0.7778081893920898,-0.2907773554325104,0.17862266302108765,0.14357419312000275,-0.9187950491905212,1.1695019006729126,1.4617717266082764,-1.2058813571929932,1.1563905477523804,0.6229203939437866,0.4522770941257477,-0.38836729526519775,1.704077959060669,-0.07938401401042938
2469.862,-0.11934061348438263,-0.018157770857214928,-0.9831907153129578,-0.3617280423641205,0.38989439606666565,0.30959370732307434,29.250171661376953,-9.882506370544434,40.125858306884766,0.6406629681587219,0.6087703108787537,1.5728449821472168,-1.9962149858474731,-0.3562205135822296,-0.15402241051197052,0.09624987095594406,-1.2621170282363892,1.449613094329834,-0.7071943283081055,0.41647034883499146,1.3747704029083252,-0.6455143690109253,1.029172658920288,1.9720468521118164
2480.212,-0.03156818449497223,0.047346796840429306,-1.0171899795532227,-0.07471202313899994,-0.6171897649765015,-0.01102358940988779,29.6472110748291,-9.437651634216309,41.25578689575195,2.533487319946289,-0.38764551281929016,-0.0748114213347435,-0.3974699378013611,2.691736936569214,-0.7893964052200317,-1.7741316556930542,0.3527647852897644,0.5838070511817932,0.04627380147576332,1.3838982582092285,0.048931561410427094,-0.6738000512123108,-0.6210354566574097,-0.5224773287773132
