seq,time_us,ax,ay,az,gx,gy,gz,mx,my,mz,roll_gyro,pitch_gyro,yaw_gyro,roll_cf,pitch_cf,yaw_cf,roll_ekf,pitch_ekf,yaw_ekf,roll_madgwick,pitch_madgwick,yaw_madgwick,roll_mahony,pitch_mahony,yaw_mahony,drop_flag
0,0,0.008688858710229397,-0.04811956733465195,-0.9733713269233704,-0.1933896839618683,-0.2245950698852539,-0.2866380214691162,29.706199645996094,-9.801642417907715,40.019832611083984,0.16416215896606445,-2.0548038482666016,0.6558558344841003,-0.9772447943687439,0.28387191891670227,0.19990046322345734,-0.028744040057063103,0.5940669178962708,-1.479331374168396,-0.1606319397687912,-0.5196650624275208,0.7048288583755493,-0.3186621069908142,-0.9245569109916687,1.1978504657745361,0
1,10188,0.019659075886011124,0.004645135719329119,-1.026085615158081,-1.454094409942627,0.09081710129976273,-0.1989595741033554,31.102420806884766,-8.647194862365723,41.39603805541992,-1.217008113861084,2.2424187660217285,0.939113438129425,0.07722118496894836,-0.6963704824447632,0.8989706635475159,0.9510071277618408,0.6049941182136536,1.7300313711166382,1.390526294708252,-0.1287442445755005,-0.23739799857139587,0.07167220115661621,-0.5775390863418579,-1.3230739831924438,0
2,20083,0.007183407433331013,0.0033528220374137163,-0.9532977342605591,0.12892426550388336,-0.4311174154281616,0.5561795234680176,31.9879093170166,-9.278643608093262,40.75361633300781,0.12079483270645142,-1.6571564674377441,1.0299837589263916,-0.5634797811508179,0.18131503462791443,-1.0182068347930908,0.3289024531841278,1.3460907936096191,-0.2740707993507385,-1.0017783641815186,0.7529425024986267,-1.8567866086959839,-0.4328700602054596,-0.23245327174663544,0.8457534909248352,0
3,30372,-0.023485349491238594,0.0973561629652977,-1.0048882961273193,-0.5746024250984192,0.860095739364624,-0.6223844885826111,29.836641311645508,-9.876439094543457,39.224021911621094,-0.18941417336463928,-1.04436194896698,-0.3300725221633911,0.6312525272369385,0.8272228837013245,0.3439316749572754,0.3665182590484619,0.1763615608215332,2.3032639026641846,-0.13548187911510468,0.5111440420150757,0.39899635314941406,-1.042103886604309,-1.4340286254882812,1.2821382284164429,0
4,39868,0.0633428767323494,-0.001687697134912014,-1.0067733526229858,-1.02817702293396,-0.7449942827224731,0.018674012273550034,29.31599998474121,-11.821053504943848,40.52851486206055,-1.9932215213775635,1.435579776763916,-1.5536885261535645,-0.5160509943962097,-0.6492632627487183,0.8846371173858643,-0.5448579788208008,1.5396549701690674,-0.24330167472362518,0.8671895861625671,0.2568243443965912,0.9442771077156067,0.06331754475831985,0.8780044913291931,0.48075756430625916,0
5,49691,0.036782871931791306,0.01882484368979931,-1.0386348962783813,-0.41120219230651855,-0.20995748043060303,1.2102057933807373,29.119539260864258,-10.52277946472168,40.782615661621094,0.4672081470489502,-1.4876922369003296,3.0468735694885254,1.1577165126800537,0.12556123733520508,-0.16945311427116394,2.574861764907837,-0.6804479360580444,-1.9029805660247803,1.0420994758605957,0.091886967420578,-1.7673312425613403,1.6104069948196411,1.3794515132904053,-0.37768658995628357,0
6,59983,-0.007793612778186798,0.05063505843281746,-1.0025770664215088,0.06795108318328857,-0.6458399295806885,-0.8794102072715759,29.027978897094727,-10.001402854919434,40.27886199951172,1.129137396812439,-1.3538906574249268,-2.1994380950927734,1.3813921213150024,0.1428017020225525,0.5855449438095093,0.6559376120567322,1.0246758460998535,-1.2692315578460693,-0.7142217755317688,-2.79634952545166,0.6071881055831909,0.03226076811552048,0.9051986932754517,-0.2011440098285675,0
7,69970,0.06066363304853439,0.03419218584895134,-1.0107402801513672,0.483471542596817,0.5379068851470947,0.06930191069841385,30.3480224609375,-11.04226016998291,38.63872528076172,-1.2123870849609375,0.8813217878341675,0.6827749013900757,0.2508189082145691,-0.818213939666748,1.164969563484192,-0.028157368302345276,0.6360528469085693,0.4365730881690979,-0.8517685532569885,0.9855191111564636,-0.6105465292930603,1.6604970693588257,-0.2602096498012543,0.5295483469963074,0
8,80186,0.07056917250156403,-0.0608501210808754,-0.9792670607566833,0.728624701499939,-0.0490451380610466,0.6396385431289673,28.282119750976562,-10.792391777038574,40.35734176635742,-0.6664328575134277,-0.22569654881954193,1.0509599447250366,1.1312546730041504,-3.3866970539093018,-2.0259592533111572,1.6868377923965454,0.007976141758263111,-1.0714999437332153,0.39452576637268066,-1.5448930263519287,0.2089451104402542,-0.4877426326274872,-0.3550511598587036,-0.4271080493927002,0
9,89940,-0.1141505241394043,0.05821891501545906,-1.0047187805175781,0.1456747204065323,0.38963252305984497,-0.06973083317279816,29.798322677612305,-11.595623970031738,40.4000244140625,2.130560874938965,-0.17117048799991608,0.5822452902793884,-0.7002537846565247,1.3838831186294556,1.4099864959716797,1.2756754159927368,-0.8436616063117981,-0.6665701270103455,-0.08249831944704056,-1.2941964864730835,-0.5861912965774536,-1.75258469581604,-0.14224828779697418,-0.3407445549964905,0
10,99901,-0.03381917625665665,0.05731847509741783,-1.016484260559082,-0.1031598448753357,-0.1667349636554718,-0.40197744965553284,29.684677124023438,-10.184056282043457,40.485755920410156,-0.0740085169672966,-0.7611694931983948,0.3299199938774109,0.38980308175086975,-0.3379276394844055,-0.36584481596946716,0.8166859745979309,1.3052715063095093,0.19339165091514587,0.22528423368930817,-0.1324324607849121,-0.006824157200753689,-0.9778391718864441,-0.6701208353042603,-0.17973488569259644,0
11,109790,0.03753549978137016,0.05790039524435997,-0.9582377076148987,-0.5920988321304321,-0.12778353691101074,0.5540614128112793,27.178424835205078,-11.411613464355469,40.69293212890625,0.15435783565044403,1.805684208869934,0.7579212188720703,0.5528224110603333,0.08385922759771347,0.7355178594589233,1.105156660079956,1.847022533416748,-1.9878385066986084,-1.4904972314834595,-1.2668752670288086,-0.6698682308197021,0.6928171515464783,1.0896871089935303,0.31211569905281067,0
12,119750,-0.03859180584549904,-0.041642770171165466,-1.0020188093185425,0.6764926314353943,-0.6708306074142456,-0.6272753477096558,31.322978973388672,-9.29854679107666,39.03057861328125,-0.4246598184108734,0.59345543384552,-0.26987117528915405,-1.5042414665222168,-1.694221019744873,-1.061560869216919,-0.49042630195617676,1.1665431261062622,0.8022533655166626,0.42220339179039,0.8863503336906433,-4.057191848754883,-2.1332380771636963,0.8907182216644287,0.12370691448450089,0
13,129956,0.09286140650510788,0.07320300489664078,-0.996833086013794,-0.5999159812927246,-1.0471432209014893,-0.1886247992515564,30.82756805419922,-9.85085391998291,40.03932571411133,0.5875608921051025,0.48074251413345337,-0.988263726234436,-0.3491966426372528,-1.9167883396148682,0.725375771522522,-0.7058026790618896,1.5893250703811646,1.03252375125885,0.02489948645234108,0.6756477952003479,-1.652795672416687,-0.11434590071439743,-0.36853745579719543,-0.18339864909648895,0
14,139956,-0.04300729185342789,-0.013316561467945576,-1.0096107721328735,0.26812997460365295,0.5840028524398804,0.9865927696228027,29.37792205810547,-9.317573547363281,38.466529846191406,-0.6528388857841492,0.440158873796463,0.3804611265659332,0.1811896115541458,-0.166041299700737,-2.2114078998565674,0.8144471645355225,-0.7342840433120728,-0.8217476606369019,0.9407368898391724,-0.4936586618423462,0.15268482267856598,1.9341154098510742,0.44694164395332336,1.263526439666748,0
15,150184,0.017518440261483192,0.06960684806108475,-1.0322253704071045,-0.011135358363389969,-0.4054270386695862,-0.2382764220237732,30.300012588500977,-9.910913467407227,39.196598052978516,0.6690820455551147,-0.18291182816028595,0.7079184651374817,0.87784743309021,-1.2998509407043457,-0.3152112364768982,0.2076198160648346,-0.06593160331249237,-0.8719622492790222,-0.369226336479187,-0.5500809550285339,-0.0703597217798233,0.24973785877227783,0.48129528760910034,0.20916783809661865,0
16,160065,0.007890087552368641,0.02305094711482525,-1.0321362018585205,-0.20398497581481934,-0.9736601710319519,0.30783891677856445,30.561800003051758,-10.090813636779785,40.33953857421875,-0.5106452703475952,0.8198531866073608,1.1314328908920288,0.05976620316505432,0.13361939787864685,0.697165310382843,0.12641221284866333,0.025815080851316452,-0.3578088581562042,0.16247324645519257,0.13056421279907227,0.8086972832679749,0.3366992175579071,0.7338650822639465,0.40576398372650146,0
17,169828,-0.036301229149103165,-0.0037586179096251726,-1.016786813735962,-0.3233181834220886,-0.627177894115448,-0.055982790887355804,28.52155113220215,-8.884529113769531,40.16828155517578,-0.23643672466278076,0.19826781749725342,-1.9790058135986328,1.3844397068023682,-0.9405646324157715,0.2600412368774414,-1.491136908531189,0.43866658210754395,1.5869596004486084,0.31920358538627625,-0.8434335589408875,-1.4538929462432861,-1.5181424617767334,-1.1205265522003174,0.4947335422039032,0
18,179901,-0.07278357446193695,-0.053824033588171005,-0.9658995866775513,0.4353812634944916,0.029293164610862732,-0.5445525646209717,30.745656967163086,-10.199113845825195,39.74779510498047,0.20323309302330017,-0.34100234508514404,-0.04039905592799187,0.14503702521324158,0.8698009848594666,-0.18449127674102783,-2.359349250793457,0.7754291296005249,-1.1349002122879028,-0.11661402881145477,-0.329628050327301,0.44920483231544495,0.3362705111503601,0.2864930331707001,0.029919670894742012,0
19,190112,-0.0183247160166502,-0.023128924891352654,-0.9779518842697144,-0.32124996185302734,0.095444455742836,0.4926518499851227,29.168498992919922,-10.012381553649902,39.97932815551758,-1.199710488319397,0.29381778836250305,-0.09811172634363174,1.7189857959747314,0.8509069085121155,0.322790265083313,-0.33747512102127075,-0.07224013656377792,0.6832280158996582,-0.703416645526886,1.802945852279663,0.16950978338718414,1.2227171659469604,2.6209826469421387,0.5683304667472839,0
20,199839,-0.0211306381970644,-0.02243628539144993,-1.051324725151062,0.22187596559524536,0.3508593738079071,-0.5262691974639893,29.180761337280273,-11.779358863830566,39.2978515625,2.0887560844421387,1.2269346714019775,-0.9913660883903503,0.4592473804950714,-0.4181042015552521,-0.279545396566391,-0.4054345488548279,-0.6604970097541809,1.0143505334854126,-0.035151995718479156,-0.17741522192955017,-2.223243236541748,-0.1000889465212822,1.122307300567627,-1.8149665594100952,0
21,210164,0.004195945803076029,-0.01583353988826275,-1.0122615098953247,0.14415791630744934,-0.24233505129814148,-0.41410914063453674,28.08589744567871,-9.908748626708984,41.511478424072266,1.2635921239852905,0.5084388256072998,0.8326545357704163,-0.9196942448616028,-0.3041318356990814,-2.0837783813476562,0.03255793824791908,0.21881602704524994,0.9847936630249023,0.6775691509246826,0.11449872702360153,-2.309595823287964,-1.024074912071228,2.054394245147705,1.2512177228927612,0
22,219931,0.016763849183917046,0.09480811655521393,-1.0086982250213623,-0.5177934765815735,-0.022852450609207153,-1.2864619493484497,30.886730194091797,-9.833544731140137,40.20464324951172,1.0041474103927612,1.512462854385376,0.9080038070678711,-0.011133587919175625,-1.616787314414978,-1.6721595525741577,-0.32041019201278687,-0.7555530071258545,-0.9790388941764832,0.17770181596279144,0.0947345420718193,-1.0320713520050049,-0.6878863573074341,-0.5284793376922607,1.7207328081130981,0
23,230177,0.012992916628718376,-0.0006349918548949063,-1.007346272468567,0.3053525686264038,0.34410423040390015,-0.2790050804615021,29.416046142578125,-10.01552677154541,40.3532829284668,0.44171497225761414,-0.6992813944816589,-1.1672254800796509,0.10600031912326813,-0.3144177496433258,-0.35649436712265015,-0.7628170847892761,-1.8958383798599243,-1.148219108581543,0.3562023341655731,0.37685269117355347,-3.18302059173584,0.22592850029468536,0.8431265950202942,-1.8960509300231934,0
24,240005,-0.0019229577155783772,-0.07043615728616714,-0.9918463230133057,-0.5133500099182129,0.29192352294921875,-0.06752043962478638,30.631391525268555,-10.00762939453125,39.230262756347656,-1.9911167621612549,1.3629459142684937,1.4414535760879517,0.2949502170085907,-1.7110850811004639,0.17700903117656708,-1.1273009777069092,0.40533211827278137,-0.9371919631958008,-0.5696212649345398,-0.1802087426185608,-1.8326932191848755,-0.325925350189209,-0.8661922216415405,-3.051830291748047,0
25,250061,-0.051586948335170746,0.01810368523001671,-1.0116448402404785,-0.014880894683301449,0.0333770215511322,-0.70180344581604,29.739330291748047,-8.845023155212402,40.338043212890625,0.6782411336898804,-1.2021085023880005,-0.20783135294914246,0.23089787364006042,0.3144852817058563,-1.298543095588684,0.23090709745883942,0.7740949988365173,-0.17053644359111786,0.2253144085407257,0.35680365562438965,1.0735670328140259,2.0264978408813477,-0.5379001498222351,-0.018745463341474533,0
26,260003,-0.02342056669294834,0.05569731816649437,-0.9865114092826843,0.7141456604003906,0.25453242659568787,-0.10198966413736343,29.26171875,-9.256050109863281,40.78545379638672,-0.3247911334037781,0.7177281379699707,-2.658691883087158,-0.10174448788166046,-0.5226272940635681,-1.0517045259475708,-0.7488561272621155,-0.5201482176780701,-1.1708756685256958,-0.0012606278760358691,0.47952184081077576,-0.23844920098781586,-1.2877423763275146,-1.3080891370773315,0.8977811932563782,0
27,269722,-0.020147215574979782,0.0045155412517488,-0.9980921745300293,-0.24602580070495605,0.8439386487007141,0.0903555303812027,30.80175018310547,-11.148887634277344,39.97285842895508,0.14041858911514282,-1.2515504360198975,1.113186240196228,-1.0876058340072632,-0.24137333035469055,-0.8015120625495911,0.3195226490497589,-0.7251949906349182,-0.6086450219154358,0.994871199131012,0.18305931985378265,0.17428985238075256,0.534569501876831,-0.20311567187309265,0.14806759357452393,0
28,280108,-0.02575402520596981,-0.05408112332224846,-1.006832242012024,0.1627686619758606,-0.12601439654827118,-0.7211549282073975,29.61996841430664,-8.443307876586914,40.13479995727539,2.5455729961395264,0.09785410016775131,-0.05634227395057678,-0.2921541631221771,0.1802261471748352,-0.7598536014556885,1.326218843460083,0.8187485337257385,-0.31357866525650024,-0.3677986264228821,0.28001168370246887,0.17509157955646515,-2.707437515258789,-0.27269160747528076,-0.8879956007003784,0
29,289664,0.005768291652202606,0.08824831992387772,-0.9963524341583252,0.14223790168762207,0.08121005445718765,-0.10003572702407837,30.00913429260254,-9.850674629211426,40.726531982421875,1.0383775234222412,-0.286786824464798,0.21141725778579712,-1.8967170715332031,1.264747142791748,0.14030945301055908,-1.5933200120925903,1.827803611755371,0.3170550465583801,0.07204411178827286,0.7325947284698486,0.6658790707588196,-0.35429438948631287,-0.10046898573637009,2.208658456802368,0
30,299713,0.007334259804338217,0.05749272182583809,-1.016413688659668,-0.7990890145301819,-0.20962809026241302,0.20942865312099457,26.867467880249023,-9.760982513427734,39.68715286254883,-0.6740010976791382,0.9551927447319031,1.1184158325195312,-1.351661205291748,0.7098488211631775,-0.027145709842443466,0.9887022376060486,-0.8106985688209534,0.48157984018325806,-1.0479044914245605,0.25259509682655334,0.448087602853775,-1.2545957565307617,2.0762712955474854,-0.5613352656364441,0
31,309632,-0.06738270819187164,0.0056575811468064785,-0.9874660968780518,-0.35661229491233826,0.33684077858924866,-0.2410024106502533,30.422883987426758,-8.872933387756348,40.845767974853516,-1.5665384531021118,-0.5572655200958252,-0.0688653513789177,0.6743052005767822,0.11425623297691345,0.7333186864852905,-1.0753809213638306,-0.569482147693634,-0.0420302152633667,-0.6793050169944763,-1.037455439567566,0.8161959648132324,1.1130808591842651,0.3144986629486084,-1.0967152118682861,0
32,319830,-0.07631764560937881,-0.022440332919359207,-0.93780916929245,0.008216272108256817,-1.2004377841949463,0.8213116526603699,30.208345413208008,-10.207755088806152,38.93697738647461,-0.39858925342559814,0.1423323154449463,-0.2887062430381775,-2.140826940536499,-0.16353701055049896,-1.561682939529419,0.003162840148434043,0.742135226726532,0.47140583395957947,-0.09902898967266083,1.1154626607894897,-0.05103091523051262,1.088599681854248,-0.2611664831638336,0.41521570086479187,0
33,330155,-0.02735321596264839,0.04483407363295555,-0.9783271551132202,-1.359492540359497,0.052357353270053864,-0.44654667377471924,29.92184829711914,-9.831015586853027,39.4801139831543,-0.5876505374908447,0.29985958337783813,1.7692567110061646,-2.0389511585235596,-0.8065706491470337,0.3981345295906067,-0.16412165760993958,1.918257713317871,-0.41143298149108887,0.08923877775669098,-0.9896896481513977,1.4586820602416992,-0.3492882549762726,-0.13755865395069122,-1.2123839855194092,0
34,339789,-0.059110336005687714,-0.002102224389091134,-0.944584310054779,0.17955908179283142,-0.004144215025007725,0.44955235719680786,29.631803512573242,-9.772305488586426,37.91133499145508,-0.9493635296821594,-1.087839126586914,-0.5712307095527649,1.3279201984405518,0.19116684794425964,-0.7690017223358154,-0.4126831889152527,-0.9823251962661743,0.0681237131357193,0.9408391118049622,0.11095992475748062,0.10825511068105698,-1.1491682529449463,0.7925136089324951,0.536797285079956,0
35,349895,0.07564189285039902,0.1494385153055191,-0.9687892198562622,-0.23983901739120483,-0.11175540834665298,-0.535956621170044,29.7028751373291,-12.341437339782715,41.9734001159668,-0.27764803171157837,1.3999292850494385,0.4478027820587158,-1.0155978202819824,-0.12312208861112595,-0.20556585490703583,0.29126185178756714,-0.4180869162082672,-0.7558605074882507,-0.671671450138092,1.0607270002365112,-0.5909177660942078,-0.1276002675294876,0.6800324320793152,-0.9725567102432251,0
36,360124,0.0026856036856770515,-0.044266268610954285,-1.0206022262573242,0.45425722002983093,-0.1820654273033142,0.19497157633304596,30.423763275146484,-12.326118469238281,40.23530197143555,0.5246720314025879,-0.556138277053833,2.381070613861084,-1.2854677438735962,-0.06786810606718063,-0.12956279516220093,-0.582493245601654,0.782588005065918,-0.9884821176528931,-1.008065938949585,0.954617440700531,-0.44895437359809875,-0.33747398853302,0.33151718974113464,-1.2188366651535034,0
37,369991,0.033701881766319275,-0.032707907259464264,-1.001832365989685,-0.590835690498352,-0.22665444016456604,-0.08340097963809967,30.60287094116211,-9.725890159606934,39.236297607421875,-0.11724413931369781,-0.5258462429046631,0.8131049275398254,2.3932740688323975,-2.0844452381134033,-0.9514436721801758,0.16813814640045166,0.08132485300302505,2.640636444091797,0.5990318059921265,-0.2946237623691559,0.9575817584991455,-1.1512117385864258,0.4771607220172882,0.004658742342144251,0
38,380056,0.017689846456050873,0.06363328546285629,-0.9710898399353027,-0.1603086292743683,0.22807052731513977,-0.10739100724458694,31.352825164794922,-8.05434799194336,40.55415725708008,-1.3128046989440918,-1.1674296855926514,-1.488903284072876,1.448453426361084,-1.2300634384155273,0.18513746559619904,0.5417020320892334,-0.10942021012306213,-0.9130890369415283,0.5917309522628784,-0.9605748653411865,-0.9621722102165222,1.1846851110458374,-0.7538157105445862,0.5649560689926147,0
39,389979,-0.11616615206003189,0.0762980505824089,-1.0260109901428223,-0.22493556141853333,-0.7719476819038391,1.36191987991333,30.53668785095215,-9.752140045166016,39.812923431396484,-1.3249945640563965,-0.14050418138504028,0.4661776125431061,-1.0101423263549805,1.5151201486587524,-0.3039228022098541,1.6037708520889282,-0.9639279842376709,-1.9560356140136719,0.15460088849067688,-0.9606854915618896,-0.3231760561466217,-1.3862828016281128,0.12722139060497284,0.005859860684722662,0
40,399867,0.05340154841542244,-0.008951094932854176,-0.9778878092765808,-0.25556597113609314,-0.3205488920211792,0.530078649520874,28.76580238342285,-10.880533218383789,38.58599090576172,-0.4074506461620331,0.9234917163848877,0.5500826239585876,1.8644931316375732,-1.4187722206115723,-0.5135024189949036,1.4721596240997314,0.20114915072917938,-0.7625535726547241,0.5707091093063354,0.20757995545864105,-0.6929604411125183,0.15631045401096344,0.05347668379545212,0.755186140537262,0
41,410098,-0.03769184648990631,0.012446538545191288,-0.9967641830444336,-0.382721871137619,0.6064619421958923,0.5851864814758301,29.402584075927734,-9.47862434387207,38.791744232177734,-0.04374536871910095,-0.8371798396110535,1.57415771484375,0.6030073165893555,0.7720255851745605,0.44956567883491516,0.3079755902290344,1.110612392425537,3.1146438121795654,-0.5767991542816162,1.237516164779663,1.2197015285491943,0.855914294719696,-1.4793956279754639,0.8205587267875671,0
42,420044,0.057257186621427536,0.02822696976363659,-1.0106817483901978,-0.004754073452204466,0.17379893362522125,-0.6172481775283813,30.566701889038086,-10.68203353881836,40.01062774658203,0.7660846710205078,-0.023555118590593338,1.0250171422958374,-1.0803229808807373,-1.7191143035888672,-1.9754940271377563,0.2440764605998993,-1.4441131353378296,0.30568426847457886,-0.1698930263519287,0.31061744689941406,0.7408658862113953,-0.0011284961365163326,-2.3770840167999268,-0.6466847658157349,0
43,430234,-0.01309637725353241,0.09149608016014099,-0.9814016222953796,-0.01870758645236492,0.5127123594284058,-0.4996876120567322,27.800601959228516,-9.369510650634766,38.554344177246094,0.4385760724544525,0.22288654744625092,-0.20373839139938354,-0.5288200378417969,-1.698359727859497,-0.5943028926849365,2.0804507732391357,0.9026846289634705,0.2677864730358124,2.004911184310913,-0.987331748008728,0.15926703810691833,-0.09855472296476364,1.8472959995269775,0.3547019362449646,0
44,440281,-0.04750319570302963,0.036198679357767105,-1.0121227502822876,-0.5010309219360352,0.2776382267475128,-0.17722651362419128,32.27891540527344,-10.841726303100586,39.09792709350586,1.8150092363357544,-0.7267430424690247,-1.7651649713516235,0.6123020052909851,-0.5410811305046082,-0.054075103253126144,0.6213181614875793,1.5964648723602295,-0.4447953999042511,-1.2882925271987915,-1.0292372703552246,0.3323291838169098,-0.6525017619132996,0.2503129243850708,-0.7193277478218079,0
45,449952,-0.030947867780923843,-0.046410687267780304,-0.9864069223403931,0.570323646068573,-0.28728312253952026,-1.0441502332687378,30.440773010253906,-9.751376152038574,38.46853256225586,0.8560167551040649,1.5417251586914062,0.4901438355445862,0.548246443271637,0.08348331600427628,-0.731164276599884,0.6845479607582092,0.7698855996131897,-3.2968037128448486,0.36717551946640015,-0.3214418590068817,0.3244980573654175,-0.08553822338581085,-0.3646754026412964,-0.4611288607120514,0
46,459620,-0.02404545061290264,-0.034196991473436356,-0.9877757430076599,-0.03297336772084236,0.01078686024993658,-1.172583818435669,31.81637954711914,-10.502452850341797,40.17268371582031,-0.48421016335487366,0.5637000799179077,2.232534885406494,0.17647360265254974,-0.1528760939836502,-0.9256299138069153,-0.4830683469772339,0.6181191205978394,0.16584143042564392,1.3143423795700073,0.39465078711509705,0.3478361964225769,0.9355432391166687,-0.48731717467308044,-0.7076184153556824,0
47,470004,-0.04486464709043503,-0.022191021591424942,-0.9781689047813416,0.14961305260658264,-0.2601832449436188,0.7526272535324097,29.27312660217285,-8.327924728393555,38.79191970825195,0.34112125635147095,2.0187184810638428,-1.4444411993026733,-0.4351517856121063,1.0149927139282227,0.30915457010269165,-0.8743636012077332,0.7142041325569153,-0.5662850141525269,0.20654906332492828,-0.3525840938091278,0.21186010539531708,-0.3163706660270691,0.04373064637184143,-1.1731854677200317,0
48,480399,0.02466736175119877,0.12995631992816925,-0.9907119870185852,-0.5933512449264526,0.07707937806844711,-0.2576158344745636,28.42510986328125,-10.12899112701416,40.671329498291016,-0.6908122301101685,-0.4282815456390381,-1.1387546062469482,0.22060811519622803,-0.4278644025325775,-0.9886780977249146,-0.6110644936561584,-0.8025301694869995,1.3925960063934326,-0.631197452545166,0.2137114256620407,-2.882721424102783,-0.31348147988319397,0.7445703148841858,-0.6521164774894714,0
49,489818,-0.013217589817941189,0.03318857401609421,-0.9908640384674072,-0.4214668273925781,0.12204248458147049,-0.2547844648361206,30.68791961669922,-10.1940336227417,40.40387725830078,0.9667599201202393,1.0797501802444458,0.7262172698974609,-0.3300652503967285,2.079815626144409,-1.621376395225525,0.6828154921531677,0.27032169699668884,0.35223492980003357,1.0843980312347412,-1.1770853996276855,0.7999751567840576,-0.9637818932533264,0.5034817457199097,0.394238144159317,0
50,500078,-0.0051316795870661736,-0.057153236120939255,-1.0006605386734009,0.7045390605926514,-0.024641044437885284,-0.8725442886352539,31.49976921081543,-8.099879264831543,39.31920623779297,-0.015525367110967636,-0.23586831986904144,-0.003563202917575836,0.66748046875,1.241084098815918,-0.899718165397644,-0.7645097970962524,0.5324841141700745,-0.3833475112915039,0.8176272511482239,1.0728704929351807,0.8266939520835876,1.4496403932571411,0.514794647693634,0.7002317309379578,0
51,510021,-0.024135436862707138,-0.01709992252290249,-0.9875281453132629,-0.42068514227867126,-0.15142114460468292,-0.6013122200965881,29.569395065307617,-10.484793663024902,42.102745056152344,-0.11641289293766022,1.2894378900527954,-0.6873874068260193,0.4943718910217285,0.5644521713256836,1.5417460203170776,1.7725250720977783,-1.050918459892273,0.05574280768632889,-0.38969525694847107,0.7500855326652527,0.9644277095794678,-0.5813383460044861,-1.3691627979278564,-0.11808343231678009,0
52,520193,-0.05389755964279175,0.023206977173686028,-0.9856064915657043,1.0014058351516724,0.5688028931617737,0.2642090320587158,31.11927032470703,-9.131294250488281,38.65837478637695,-0.9549490213394165,0.4451400339603424,-0.06328512728214264,0.31777718663215637,0.9978154301643372,0.22174878418445587,-0.25620853900909424,-1.0601708889007568,0.7166073322296143,0.37591448426246643,0.8550666570663452,-0.8024803996086121,-0.22399631142616272,-1.1327929496765137,1.2869731187820435,0
53,529796,-0.07492736726999283,-0.06104373186826706,-1.002206563949585,0.5070845484733582,-0.36223116517066956,-0.19776487350463867,31.46892738342285,-8.819189071655273,40.02246856689453,1.227316975593567,-1.8858232498168945,1.331855297088623,1.5268869400024414,0.372662216424942,0.7420741319656372,-1.1282196044921875,1.9731897115707397,0.9710701107978821,0.05928453058004379,-0.3943987190723419,-0.9671974778175354,-0.35030248761177063,-0.8826107382774353,0.3360576331615448,0
54,540061,-0.047672420740127563,0.05175255984067917,-1.0122241973876953,0.20599302649497986,-0.33006051182746887,-0.2677451968193054,30.36276626586914,-11.38537883758545,39.18695831298828,-1.6994942426681519,-0.4278682768344879,0.32226452231407166,1.372594952583313,0.061996541917324066,0.1586284637451172,-0.26662299036979675,1.2787338495254517,0.6477001905441284,-1.4722416400909424,0.43246185779571533,0.566419243812561,1.1325031518936157,0.3976815938949585,-0.5759204626083374,0
55,550059,0.05898714065551758,0.024458296597003937,-0.9857133626937866,1.0824940204620361,-0.617916464805603,0.01664469577372074,28.820878982543945,-9.676074028015137,39.86107635498047,-0.6761016845703125,0.420030415058136,-0.0176213551312685,-0.2780609428882599,-0.5515103340148926,-0.6982663869857788,-1.3922374248504639,-0.35372835397720337,0.03752366825938225,0.33047014474868774,-1.6415859460830688,-1.4051189422607422,-0.18927636742591858,-1.052263617515564,0.4555198550224304,0
56,560024,-0.055770017206668854,-0.002858571009710431,-1.0040227174758911,0.36559221148490906,-0.3523460328578949,0.4800107181072235,27.887470245361328,-9.233592987060547,38.37917709350586,0.13146884739398956,-0.781989336013794,2.5598812103271484,0.5002079606056213,0.9865046739578247,-1.7171121835708618,-0.817550539970398,0.46041104197502136,-0.7983590364456177,0.20917461812496185,0.3831257224082947,0.7597565650939941,0.22833497822284698,-1.5782474279403687,-2.372117519378662,0
57,569956,0.030231045559048653,-0.004160398617386818,-0.9891164898872375,0.016249725595116615,-0.5785222053527832,0.6836714148521423,29.24698257446289,-10.316619873046875,39.124996185302734,-0.7425329685211182,0.4092347025871277,0.3046911358833313,-0.9704632759094238,0.13623760640621185,-1.1639964580535889,1.3136168718338013,2.2766292095184326,-2.089646577835083,-1.5087671279907227,-0.3576580584049225,-0.5977280735969543,1.124144196510315,-0.7343153357505798,-0.5488899350166321,0
58,580130,0.05214717984199524,-0.011417963542044163,-1.0159766674041748,0.14111515879631042,-0.16122907400131226,-0.6857690811157227,28.1971378326416,-8.65876293182373,40.45195388793945,-0.7143688797950745,0.9461522102355957,-1.1135482788085938,1.3838108777999878,0.686128556728363,1.2391730546951294,0.5352595448493958,1.4611486196517944,0.3763488233089447,-0.8465766906738281,-0.7502322793006897,-1.1890347003936768,-1.202738881111145,0.008238794282078743,-0.5298411846160889,0
59,589958,-0.01149320974946022,0.01004804577678442,-1.041607141494751,-0.24630357325077057,-0.0036412817426025867,-0.7593005895614624,30.211824417114258,-10.567756652832031,41.44065475463867,0.5507336258888245,1.422532558441162,-0.6240952610969543,1.2087466716766357,-0.8385707139968872,0.2063618004322052,0.10005352646112442,-0.23178617656230927,0.4364820420742035,-0.13459305465221405,-0.22840836644172668,0.5287091135978699,0.6087560057640076,0.21679866313934326,-0.1319790482521057,0
60,599995,-0.04629727452993393,0.005978631321340799,-1.015218734741211,0.2111191600561142,0.1414778232574463,-0.6139910817146301,29.938615798950195,-10.964442253112793,41.008968353271484,-0.16560091078281403,-0.5200728178024292,-0.31616753339767456,-0.5029057860374451,-0.28163665533065796,-0.8582295179367065,-0.31602251529693604,3.360675811767578,-0.9199684858322144,-0.6403652429580688,1.4046801328659058,-0.6254988312721252,-1.728667140007019,0.28335660696029663,0.871600329875946,0
61,609845,-0.016035741195082664,-0.012386268004775047,-1.0210802555084229,-0.30223560333251953,0.6518247127532959,0.31260618567466736,30.920873641967773,-9.892847061157227,40.86667251586914,-0.062353089451789856,-1.5589845180511475,-1.2286083698272705,0.9946985840797424,-0.4369904398918152,-1.5956710577011108,-1.0578540563583374,0.574837863445282,-1.5783381462097168,-0.5804310441017151,-0.45984145998954773,1.6540372371673584,-0.7926455140113831,0.5861384868621826,-0.024692248553037643,0
62,620123,-0.014065352268517017,0.0019584971014410257,-1.0214325189590454,0.002731340005993843,-0.06686607748270035,0.046266455203294754,30.4334659576416,-8.338913917541504,38.2872428894043,-0.16594982147216797,-0.4660187065601349,-1.0812259912490845,0.565914511680603,-0.6172019839286804,-1.689731240272522,1.084994912147522,0.35230401158332825,1.1247283220291138,0.25838613510131836,-0.24371983110904694,-1.050289511680603,-1.0954501628875732,1.8176276683807373,1.1922669410705566,0
63,630085,-0.02400836907327175,0.06922022998332977,-0.997209370136261,-0.36024802923202515,0.09539616852998734,0.17208029329776764,30.822601318359375,-10.149480819702148,40.51955032348633,-0.34786346554756165,-0.032722603529691696,1.9393702745437622,-1.0648061037063599,-0.9079612493515015,-0.7506600618362427,0.20215928554534912,2.217503786087036,0.7175867557525635,-1.1722915172576904,0.2079058140516281,-0.13100774586200714,0.3594711124897003,2.735812187194824,-1.875892162322998,0
64,639990,-0.03275579586625099,0.03613278642296791,-0.9844991564750671,-0.5628694295883179,-0.2234332114458084,-0.6358985304832458,30.735279083251953,-10.39512825012207,40.03106689453125,-0.5857900977134705,-1.3404377698898315,1.5349173545837402,1.187394142150879,-0.8428202271461487,-0.4391406178474426,0.9877728223800659,-0.5619896650314331,-0.19155316054821014,-0.11161970347166061,-0.2159663438796997,1.5598692893981934,-0.3634764552116394,0.07958009839057922,-0.970039963722229,0
65,650011,-0.05941259488463402,-0.05073194578289986,-1.0439552068710327,0.0295114628970623,-1.3505209684371948,-0.25498512387275696,29.730491638183594,-9.767911911010742,40.221214294433594,0.5320068597793579,-0.23524416983127594,-0.022164739668369293,-0.3909623920917511,-1.4933438301086426,-0.3890673518180847,0.6671521067619324,0.22757016122341156,0.041145600378513336,0.7489287257194519,0.5867413878440857,-0.2190619707107544,0.18330305814743042,-0.43444904685020447,0.6995002031326294,0
66,660102,0.06792792677879333,0.0195922888815403,-1.0265543460845947,-0.019954664632678032,-0.022524960339069366,0.5524395704269409,30.274845123291016,-9.614212036132812,39.88905334472656,-0.6321663856506348,0.5415046215057373,0.5166182518005371,-0.6519138216972351,-2.0245821475982666,0.14745984971523285,0.353230744600296,-1.2797410488128662,-0.4231402277946472,0.7232683897018433,-0.04241753742098808,0.6574866771697998,1.6519769430160522,1.0492703914642334,0.019310863688588142,0
67,669904,-0.127256840467453,0.05727031081914902,-1.0002795457839966,-0.6981402635574341,-0.522750198841095,0.039188895374536514,29.76203727722168,-11.206910133361816,40.271392822265625,1.6477469205856323,-0.8342199921607971,-1.4170578718185425,-1.2282336950302124,-0.17155924439430237,0.9524065852165222,-0.5133136510848999,1.5414685010910034,-0.9801431894302368,-0.9164136052131653,1.1217423677444458,-1.2787388563156128,-0.5120996832847595,0.47434160113334656,-0.9518372416496277,0
68,680054,0.05151822045445442,-0.03507522866129875,-1.0177857875823975,0.3774157762527466,0.2142006754875183,-0.3263266980648041,31.282970428466797,-10.92308235168457,42.17851638793945,-1.1696194410324097,0.8503918051719666,0.6785439252853394,1.392323613166809,-0.9125937223434448,1.1232280731201172,-0.6666274070739746,-0.7634191513061523,0.17107412219047546,0.6874386072158813,-1.280563473701477,0.4850004315376282,-0.12479819357395172,-0.6325032711029053,0.051768362522125244,0
69,689898,0.005122652743011713,0.06859961897134781,-0.9674157500267029,0.8982700705528259,-0.00027469583437778056,0.03632165864109993,29.78957748413086,-9.808034896850586,39.859039306640625,0.927746057510376,-0.28145211935043335,-0.20710250735282898,-0.3675423264503479,-0.7043320536613464,-1.155691385269165,0.3758343756198883,1.3504225015640259,-0.609929084777832,-0.8024685978889465,0.054728712886571884,0.40924373269081116,-0.09229179471731186,0.05147763714194298,2.0625367164611816,0
70,700130,-0.0023022026289254427,-0.02789594605565071,-1.0359795093536377,0.03625912591814995,0.42347562313079834,-0.47635573148727417,29.167940139770508,-8.962389945983887,41.156803131103516,-0.9276059865951538,-2.3029510974884033,1.2560449838638306,-0.7424246668815613,0.43542101979255676,-0.7556169629096985,-0.4291706085205078,-0.906212329864502,-0.7255470752716064,-0.56492680311203,-0.6665470600128174,1.8478333950042725,-0.8778369426727295,-1.1927860975265503,0.23001845180988312,0
71,709845,-0.0676741823554039,-0.0211839210242033,-0.9989731311798096,0.011510884389281273,-0.2348901778459549,-0.01727025769650936,30.990522384643555,-10.072279930114746,41.43609619140625,0.1879817098379135,2.0256195068359375,-0.2930050790309906,-0.9239464402198792,1.525652289390564,0.25532394647598267,-0.07138434052467346,3.0303614139556885,0.07728589326143265,-0.8645859956741333,0.0340353325009346,-0.6503399610519409,0.057737503200769424,-1.164223551750183,-0.3866007626056671,0
72,719982,-0.022991802543401718,0.0950658768415451,-0.9932409524917603,0.020075544714927673,0.045908257365226746,-0.054051581770181656,30.52435874938965,-9.04747486114502,42.11700439453125,-0.4294089078903198,0.6152782440185547,-1.499245047569275,0.18392013013362885,1.3359187841415405,-1.060882568359375,0.6964513659477234,-0.5781685709953308,-0.7673248648643494,1.2276945114135742,-1.6583969593048096,0.49129030108451843,-0.30206364393234253,-0.3682251274585724,0.638453483581543,0
73,730123,0.006906504277139902,-0.03288981318473816,-0.9768912196159363,0.557237982749939,0.702679455280304,-0.1834036260843277,31.774789810180664,-8.81147575378418,39.479366302490234,-0.9660720825195312,-0.6994870901107788,-0.9040157198905945,2.7345945835113525,0.5518961548805237,-2.042052984237671,0.24700278043746948,0.29772329330444336,0.27921295166015625,-0.6006014943122864,-0.2209756076335907,0.3636719584465027,-0.07968849688768387,-0.4974958300590515,-0.20983538031578064,0
74,740180,0.01528291217982769,0.014073722064495087,-0.9495943784713745,-0.18108657002449036,-0.49752333760261536,-0.16067750751972198,30.517671585083008,-8.864779472351074,40.34296417236328,0.9404034614562988,-1.0909379720687866,-0.627790093421936,0.13977977633476257,-0.20967207849025726,-0.10271972417831421,-1.1290239095687866,-1.0300641059875488,0.6828881502151489,-0.19583335518836975,-0.47005897760391235,-0.5591373443603516,-1.7207249402999878,0.3426585793495178,-1.8573318719863892,0
75,749970,0.006947854068130255,-0.014504324644804,-0.9956125617027283,0.5419896841049194,1.1969538927078247,-0.35371699929237366,30.895294189453125,-9.201875686645508,40.50838088989258,-1.1278468370437622,-0.8231526017189026,-0.6459140181541443,-0.30931058526039124,0.25096818804740906,1.4767489433288574,-1.066558837890625,1.147180438041687,-1.0210093259811401,0.5581465363502502,0.022107500582933426,0.45583441853523254,-0.5557684898376465,1.258072853088379,-0.31363290548324585,0
76,759843,-0.06599172949790955,-0.05951327458024025,-0.980036735534668,-0.5860211849212646,0.46961089968681335,-0.1911921501159668,28.95736312866211,-9.095941543579102,40.751834869384766,-2.7819390296936035,-1.5587702989578247,0.7290723323822021,0.8432359099388123,-0.06740248203277588,0.5049386024475098,-0.22818835079669952,0.5161157250404358,-0.07208772003650665,1.4280483722686768,0.8991846442222595,0.5201712250709534,-0.47705620527267456,0.8808912634849548,-1.6262623071670532,0
77,770091,0.07515363395214081,-0.028866959735751152,-1.0422637462615967,0.7697286605834961,-0.5992206931114197,0.818656861782074,30.338844299316406,-9.687379837036133,39.811649322509766,-0.884190022945404,-0.48020175099372864,0.13086384534835815,-0.38792574405670166,1.379135251045227,1.828624963760376,0.8512893319129944,0.06395018845796585,-0.7666269540786743,-1.376634955406189,0.40669816732406616,0.46676385402679443,-0.6380462646484375,-1.413854956626892,-0.38829293847084045,0
78,779993,0.05663584917783737,0.03350291773676872,-0.9831323027610779,0.17753922939300537,-0.48575112223625183,-0.29007530212402344,31.86408805847168,-10.37702751159668,38.78160095214844,0.77120441198349,0.017674053087830544,0.7080225944519043,-0.9886466860771179,-0.12499134987592697,-0.13677291572093964,-2.9093189239501953,0.016591986641287804,-1.3401111364364624,-0.9856409430503845,0.2978955805301666,-0.4336555600166321,0.9146336317062378,-1.2670286893844604,1.6521235704421997,0
79,790224,-0.0665363073348999,-0.055143631994724274,-1.0051360130310059,-0.40894389152526855,0.29765674471855164,0.17188210785388947,31.27872085571289,-9.921121597290039,40.0537223815918,1.0257444381713867,-0.4358665347099304,-1.614298939704895,0.2301214635372162,0.4902997612953186,-0.4903027415275574,1.4967008829116821,2.3071367740631104,0.6824750900268555,0.20151028037071228,-1.3121320009231567,0.013257253915071487,2.175065517425537,-0.2801881730556488,1.4177147150039673,0
80,799908,-0.08507297933101654,0.020397622138261795,-1.0520577430725098,0.6441934108734131,0.4570588767528534,0.019491925835609436,30.550355911254883,-9.507331848144531,41.14656448364258,0.5633019804954529,-0.41225042939186096,-0.35107457637786865,-0.33196836709976196,-0.5360816717147827,-0.7993693947792053,-1.3495348691940308,-0.7133479118347168,0.10257934778928757,1.1069703102111816,0.27182385325431824,0.14125023782253265,1.9074184894561768,-1.0531615018844604,1.630052924156189,0
81,809974,-0.01633935607969761,-0.009977327659726143,-0.9985337257385254,-0.0729575902223587,-0.8916255831718445,0.18410122394561768,29.745656967163086,-11.952595710754395,39.19636154174805,-0.14786089956760406,0.5061445832252502,-0.5123351216316223,0.6669211387634277,1.5893149375915527,0.9720813632011414,0.6244808435440063,0.36180832982063293,-0.43616417050361633,0.6991919875144958,-0.5512524247169495,-0.040582288056612015,-1.1683719158172607,-1.2205277681350708,-0.20244541764259338,0
82,819868,0.015824155882000923,-0.008512599393725395,-0.9951713681221008,0.19693733751773834,-0.5200304388999939,0.2962568402290344,29.042724609375,-10.15086841583252,39.96379089355469,0.4214811325073242,-0.1737944632768631,-0.9910972714424133,-0.2225877195596695,1.8922653198242188,1.434754729270935,0.709830105304718,-0.23612214624881744,-1.059958815574646,-0.15692470967769623,-0.19038820266723633,1.045569658279419,1.6015264987945557,-1.5293171405792236,1.06699800491333,0
83,829982,-0.0011337604373693466,-0.011316660791635513,-0.9921513795852661,0.003102358663454652,-0.8173561096191406,-0.6904035210609436,29.928089141845703,-9.367609024047852,40.374637603759766,-0.6335476636886597,-0.49851107597351074,1.229801058769226,-0.6431381702423096,0.9012327790260315,1.51459801197052,-1.7731871604919434,1.2604758739471436,-0.48165541887283325,-1.5150096416473389,-0.4403962790966034,1.1246670484542847,-1.3556817770004272,0.7409230470657349,1.347475290298462,0
84,840132,0.003134540282189846,0.05339952930808067,-1.016377329826355,-0.39864668250083923,0.41178175806999207,0.5574226379394531,29.35370635986328,-10.249542236328125,40.716060638427734,-2.0762758255004883,-1.989343285560608,0.9136866927146912,1.584725260734558,-0.65989089012146,1.5844478607177734,-0.5654353499412537,0.8724782466888428,-1.3609472513198853,0.9094496369361877,-2.0933971405029297,-0.8439741134643555,-0.23792947828769684,0.11572349071502686,0.9466097354888916,0
85,849874,-0.02642119862139225,0.09818558394908905,-1.0095421075820923,0.8927974700927734,0.5151377320289612,-1.1769918203353882,29.599157333374023,-11.02712345123291,41.4841423034668,-0.06966976076364517,2.058438777923584,-1.2531107664108276,0.2643927335739136,0.3599449098110199,-1.2737445831298828,2.0516433715820312,-0.6079187393188477,-0.04927550628781319,1.4163089990615845,1.319288730621338,-0.8760193586349487,0.00846401508897543,0.3653116822242737,-0.6242902874946594,0
86,860300,0.0068251327611505985,0.05186430364847183,-0.994330883026123,-0.0057004597038030624,-0.6729088425636292,-0.5139768719673157,29.73757553100586,-8.719578742980957,42.129127502441406,-0.933479905128479,1.5062302350997925,-1.075976848602295,-1.8062665462493896,-0.5060552358627319,0.03326515480875969,0.2542325556278229,1.4012978076934814,0.5274998545646667,1.1565886735916138,0.15491053462028503,0.268545001745224,-0.7547749876976013,-0.1891927719116211,-0.1722099483013153,0
87,869978,0.035800088196992874,0.010051383636891842,-0.9985563158988953,-0.24949932098388672,0.12161073088645935,0.24103951454162598,30.896814346313477,-10.086706161499023,39.70466232299805,-0.7795460224151611,-1.1247166395187378,-1.6443034410476685,0.043961163610219955,-0.5092046856880188,-0.2593992352485657,-1.5257625579833984,0.1602734625339508,-0.12646165490150452,1.7611794471740723,-0.15320433676242828,-0.7032229900360107,-0.33480092883110046,0.9909268021583557,0.393421471118927,0
88,880072,0.05222894251346588,0.013819202780723572,-0.9762760400772095,0.5382398366928101,-0.227744922041893,0.522007405757904,30.46407127380371,-10.202531814575195,39.874046325683594,0.045106105506420135,0.5428211688995361,-1.3650201559066772,0.3100491464138031,0.859426736831665,-2.0113158226013184,1.782569169998169,1.5879181623458862,-0.947413980960846,-0.5269514322280884,-1.4644882678985596,-0.44570350646972656,-0.2748194634914398,-2.923342227935791,0.03331059217453003,0
89,889928,0.03581199049949646,0.009248371236026287,-1.0012234449386597,0.5460810661315918,0.33422619104385376,0.5227441191673279,29.79528045654297,-9.326654434204102,41.479774475097656,-0.25017064809799194,-0.6887484788894653,-1.9679443836212158,-1.2110121250152588,-0.7821544408798218,0.22591829299926758,0.9342406392097473,-0.6532542109489441,0.3538162112236023,-0.4457051455974579,0.3062080144882202,0.6553182601928711,0.770170271396637,1.339287519454956,1.7580692768096924,0
90,900144,0.005084919277578592,-0.09010347723960876,-1.024511456489563,0.34534376859664917,0.4299439787864685,0.3930210769176483,31.5481014251709,-9.080488204956055,38.953983306884766,-1.2994047403335571,-0.7023748159408569,1.2781825065612793,-0.10669762641191483,-0.3704385459423065,-0.4496128261089325,0.18091414868831635,-0.378420352935791,-0.44447195529937744,-1.2529610395431519,1.316483736038208,0.7138340473175049,-0.06566876918077469,-0.0098267225548625,-0.9063450694084167,0
91,909896,-0.040002886205911636,-0.07540909200906754,-1.007887363433838,-0.26277998089790344,-0.934611439704895,-0.45647040009498596,31.008113861083984,-10.354633331298828,40.59695053100586,1.6182347536087036,-1.530911922454834,-0.5429812073707581,0.4565732181072235,1.7307021617889404,-1.641028642654419,0.9190815091133118,-0.1755024641752243,0.0020264775957912207,0.6451612114906311,-0.15534768998622894,-0.955615758895874,0.4099867641925812,-0.13394513726234436,0.6486801505088806,0
92,920211,-0.028225025162100792,-0.06635913997888565,-1.0423171520233154,0.32814884185791016,0.8060441017150879,-0.9753952622413635,29.886890411376953,-9.529056549072266,40.43689727783203,-0.6094719767570496,-3.0479133129119873,2.3707497119903564,0.25022652745246887,1.9465140104293823,0.10783816128969193,-1.2682113647460938,-0.7613387703895569,-1.2219512462615967,-0.5493135452270508,-1.099483847618103,-0.0518985390663147,-0.33543458580970764,-0.10181110352277756,-1.1395130157470703,0
93,930101,-0.06628270447254181,-0.05410554260015488,-0.9862658381462097,0.5328805446624756,-0.5444974899291992,1.1091678142547607,29.28684425354004,-10.491868019104004,41.57685852050781,0.00856528989970684,-1.0812568664550781,1.0512183904647827,0.4233688414096832,-1.926326036453247,0.2465347945690155,1.1104204654693604,-0.1679232269525528,-1.2332087755203247,0.042701832950115204,0.11032695323228836,-0.41355159878730774,-0.6734601259231567,0.06009771302342415,-1.245476245880127,0
94,940068,0.046120595186948776,-0.024459397420287132,-1.003404974937439,-0.9960088133811951,-0.40498507022857666,-0.5242940783500671,27.67278480529785,-8.912511825561523,42.37613296508789,0.9563561677932739,0.6014460325241089,1.1891989707946777,0.09619659185409546,-1.553026795387268,-1.0546958446502686,0.6266530156135559,0.2588155269622803,1.1472482681274414,-0.636147141456604,-1.3926756381988525,0.26570525765419006,-0.1440233737230301,-0.8874782919883728,2.242628812789917,0
95,950029,-0.006005531642585993,-0.10509154200553894,-0.9896252155303955,-0.24925346672534943,-0.5541214942932129,0.5109955668449402,31.08039093017578,-9.90692138671875,40.6190299987793,-1.1156339645385742,-0.38212236762046814,0.5242246985435486,0.18991170823574066,0.7683447003364563,0.27247604727745056,-1.042952060699463,-0.9896990656852722,-0.6125045418739319,0.570522665977478,0.7703844904899597,-0.3090534210205078,-0.24417680501937866,-0.0036922814324498177,0.09841052442789078,0
96,960006,-0.008270496502518654,0.06502503901720047,-1.0156699419021606,-0.3922676742076874,0.3130131959915161,-0.34323376417160034,29.29144287109375,-9.722975730895996,40.43131637573242,0.19223091006278992,-0.6598581671714783,-1.489244818687439,-0.9974362254142761,0.325267493724823,-0.35608190298080444,-2.7333106994628906,-0.2519185543060303,0.9024156928062439,0.4772705137729645,0.5739644169807434,-0.31302928924560547,-0.3570367097854614,0.09524709731340408,1.4085803031921387,0
97,969967,-0.10338614881038666,-0.01969383843243122,-0.9785796999931335,0.3282172977924347,-0.026620537042617798,-0.3872968852519989,31.01361656188965,-9.405892372131348,40.04326248168945,-0.4018296003341675,-2.2305667400360107,-0.7481012940406799,-0.9200620651245117,1.2498122453689575,-0.28256139159202576,-2.874711275100708,0.3568209111690521,0.45641016960144043,0.29883208870887756,-1.1655118465423584,1.0628719329833984,1.418987512588501,0.2532820403575897,0.03745606914162636,0
98,980002,-0.04908020794391632,-0.08307593315839767,-1.0103317499160767,-0.7734676003456116,-0.8087578415870667,0.3821253478527069,29.516084671020508,-9.930131912231445,38.34598922729492,0.2548641264438629,0.37659579515457153,0.21323581039905548,-1.408828616142273,0.25016891956329346,0.429918497800827,0.5603520274162292,-1.0430318117141724,-0.23172946274280548,0.7438579201698303,1.2151358127593994,0.5521488785743713,0.18132147192955017,-0.11414846777915955,0.6990856528282166,0
99,990003,0.056379787623882294,-0.001714919926598668,-1.0088094472885132,0.5190234780311584,0.17397494614124298,-0.9767490029335022,29.780590057373047,-10.76712417602539,39.43400955200195,-0.4926852881908417,0.3171790540218353,-0.4741364121437073,1.181739091873169,0.4240436255931854,0.6600014567375183,1.2520527839660645,0.7968997359275818,0.46872490644454956,0.8449261784553528,-0.9410941004753113,1.171151876449585,-0.7996236681938171,0.6486079692840576,1.6879085302352905,0
100,1000163,-0.038699474185705185,-0.03525886312127113,-0.9910557270050049,-0.4333457350730896,0.050649553537368774,0.05354401841759682,31.861757278442383,-8.760966300964355,39.131568908691406,0.926698625087738,-0.19069141149520874,-0.3350802958011627,-0.9400715231895447,1.2535436153411865,-0.18235953152179718,0.47183480858802795,-0.8692379593849182,-0.2940886318683624,-0.29815274477005005,0.8280910849571228,-0.42262136936187744,0.6218701004981995,1.0396698713302612,-0.20504456758499146,0
101,1010279,-0.08532088249921799,0.05714700371026993,-0.9981098771095276,-0.6070168614387512,-0.006226072553545237,0.8091197609901428,28.944570541381836,-9.812000274658203,38.42573165893555,-0.16501182317733765,-0.9220518469810486,-0.6641232967376709,-0.05620603635907173,-0.39146754145622253,1.2922087907791138,-1.5376291275024414,1.1928329467773438,-1.759937047958374,-2.188141107559204,1.3709505796432495,0.3019539713859558,-0.7397837042808533,-1.1066526174545288,-0.4662759602069855,0
102,1019990,0.0023894202895462513,0.02855166792869568,-1.0268959999084473,0.27080321311950684,0.2885917127132416,-0.10883026570081711,31.09132957458496,-10.208314895629883,39.75035858154297,-1.073975682258606,0.2772369086742401,-0.2405698597431183,0.46432623267173767,1.5452086925506592,-0.3444044291973114,-0.5576536655426025,-0.785875678062439,-1.020730972290039,-1.7953407764434814,-1.1434866189956665,-0.1582263559103012,-0.44561538100242615,-0.5482987761497498,-0.2725813388824463,0
103,1030186,0.014817656949162483,0.0006183485384099185,-1.0041790008544922,-0.7397738695144653,-0.382225900888443,-0.788765013217926,30.809106826782227,-9.784907341003418,39.30183792114258,0.6197093725204468,-0.8976048231124878,0.9117449522018433,-0.1741044521331787,0.6434385776519775,1.1265909671783447,0.4651166498661041,-2.847059488296509,-0.9146140813827515,0.2517920434474945,-0.17470242083072662,-0.904122531414032,-0.5093523263931274,0.11695194989442825,-1.4296977519989014,0
104,1039955,-0.08032122254371643,0.010834895074367523,-1.0167478322982788,-0.1953176110982895,-0.7919586896896362,0.3685409724712372,29.432872772216797,-11.884615898132324,40.195125579833984,-0.9777312874794006,0.5439928770065308,0.3463517725467682,-0.9347447156906128,0.18540722131729126,-0.6976059079170227,0.3646024167537689,-1.2492398023605347,-0.3948848247528076,0.815385103225708,-0.11842607706785202,-0.10816137492656708,0.2285369634628296,0.35818174481391907,-0.4658578336238861,0
105,1049841,-0.029464073479175568,-0.024288125336170197,-1.0264508724212646,-0.4253658950328827,0.01739044301211834,-0.0838465765118599,30.164592742919922,-11.204207420349121,40.562679290771484,0.4561630189418793,0.32219088077545166,0.5091445446014404,1.1439121961593628,-0.4381791055202484,2.387432813644409,-1.655095100402832,-1.7630983591079712,-0.2370465248823166,0.3826831579208374,0.8489447236061096,-1.16059410572052,-1.2226718664169312,-0.13446669280529022,2.2393460273742676,0
106,1059871,0.051633261144161224,0.05806618928909302,-0.9657137989997864,0.07696428149938583,0.3057137131690979,0.5379024744033813,30.687986373901367,-10.504833221435547,40.36819076538086,0.8371906876564026,0.19119411706924438,-1.307866096496582,0.18951691687107086,-0.829683780670166,0.487115740776062,0.8321427702903748,0.028679167851805687,1.6713318824768066,0.37763679027557373,-2.2963967323303223,1.1824636459350586,0.7934131622314453,-0.7237952351570129,-0.5955647826194763,0
107,1070041,-0.0923302173614502,-0.0575503371655941,-0.971940815448761,0.5980092883110046,0.030292905867099762,0.8387535810470581,29.9471492767334,-11.000574111938477,40.15878677368164,-1.8530412912368774,0.2856803238391876,0.345724493265152,0.48764652013778687,3.425588846206665,0.4276559054851532,-1.511712908744812,0.9195143580436707,0.07954908162355423,-1.3519891500473022,0.280592679977417,-0.7921712398529053,-0.5522783398628235,0.6494218111038208,-0.948509931564331,0
108,1080195,0.0661136582493782,-0.01178914774209261,-0.9883818626403809,0.22311221063137054,0.16619066894054413,-1.1067137718200684,31.914138793945312,-9.520873069763184,39.08218002319336,-1.9387515783309937,0.43330293893814087,0.3232958912849426,0.3082294464111328,0.31696730852127075,0.8791072964668274,-0.6939747333526611,-0.7532401084899902,0.7255897521972656,-0.4728644788265228,-1.0878008604049683,1.94992995262146,0.3186614215373993,-0.2383023500442505,1.2996984720230103,0
109,1090186,0.11530406028032303,-0.13559593260288239,-1.0165624618530273,0.4093093276023865,-1.2055015563964844,-0.19170837104320526,30.48464584350586,-10.523564338684082,40.56283950805664,0.4123045802116394,-1.2801287174224854,0.4188818633556366,-0.37649285793304443,-3.4461517333984375,-0.3064384162425995,-0.3292953372001648,-0.34138885140419006,-0.5146098732948303,0.3331427574157715,-0.4987186789512634,-0.09656259417533875,-1.330100655555725,-1.6329034566879272,0.20257051289081573,0
110,1099899,0.02967202477157116,-0.0775861144065857,-0.9703307747840881,0.1135106310248375,-0.39423879981040955,0.32234540581703186,29.477371215820312,-10.35651969909668,40.2708740234375,1.2177815437316895,1.1939433813095093,-1.3272616863250732,1.1464029550552368,-0.9047022461891174,-1.294067621231079,-1.8016079664230347,-0.3097916841506958,-0.4967787563800812,0.41947105526924133,-0.6476911306381226,-0.13429206609725952,0.27738890051841736,2.1732804775238037,-0.7889552116394043,0
111,1109744,0.06956708431243896,0.03633565828204155,-0.9732075333595276,-1.1785379648208618,0.10777022689580917,-0.2469330132007599,27.86082649230957,-9.742265701293945,40.35350036621094,0.34663042426109314,-0.4313291907310486,1.2072696685791016,-0.3289758861064911,-0.04467157647013664,0.984343945980072,-1.3651448488235474,1.3148550987243652,-0.4833492636680603,1.063830852508545,-1.1197243928909302,0.9305284023284912,-1.574070692062378,-0.24369612336158752,1.248542308807373,0
112,1119883,-0.017576122656464577,-0.0669771134853363,-1.0021517276763916,-0.11104220896959305,-0.5200912952423096,0.6717714667320251,31.244033813476562,-10.166913032531738,40.4354362487793,0.3724810779094696,0.5355156660079956,0.8471911549568176,0.41561275720596313,1.8683631420135498,-0.791462242603302,0.02503536082804203,-1.418938398361206,-1.206227421760559,-0.4491978883743286,1.0637102127075195,-0.528516411781311,0.24268758296966553,-0.07711421698331833,-0.5235185623168945,0
113,1129846,-0.04601218178868294,-0.028045453131198883,-1.0034563541412354,-0.3359542191028595,0.27832940220832825,0.029521604999899864,29.40427017211914,-9.996318817138672,39.97887420654297,2.802919626235962,-0.6943470239639282,2.9454751014709473,-0.497661292552948,0.48770982027053833,-0.7144501805305481,0.6748818755149841,-0.3619590103626251,-1.6978843212127686,1.7720781564712524,-0.19795316457748413,-0.4969949424266815,0.867609977722168,1.700243592262268,-1.3600283861160278,0
114,1139889,0.05438774451613426,0.011545950546860695,-1.0214256048202515,0.07432433217763901,0.38377630710601807,0.19050444662570953,32.23736572265625,-9.395608901977539,39.826908111572266,1.030238151550293,0.40803006291389465,1.0719493627548218,-0.9376547932624817,-1.0641878843307495,-1.3733515739440918,0.5602453947067261,-0.2828137278556824,-1.4853520393371582,-0.2525433897972107,-0.06686194241046906,-0.4384689927101135,2.194955348968506,-0.6666593551635742,-0.7087664008140564,0
115,1149761,-0.0008895546779967844,0.09914068877696991,-0.9807748198509216,-0.96857088804245,0.4687570035457611,-0.4972849190235138,29.910884857177734,-9.550724029541016,41.86710739135742,0.716572105884552,-0.37782660126686096,1.0635944604873657,-0.6499555110931396,1.520693063735962,0.512072741985321,0.11082916706800461,0.5501002669334412,1.9882551431655884,-0.47681868076324463,-0.3658967912197113,1.683367133140564,-1.0682061910629272,-1.649271845817566,1.2161799669265747,0
116,1159989,0.017235860228538513,0.002142482902854681,-0.9941563606262207,-0.39112138748168945,0.6943148970603943,0.6819719076156616,30.741907119750977,-10.747283935546875,40.72333526611328,-0.3464292287826538,0.26358020305633545,0.4008147716522217,-0.1818925440311432,-1.0540153980255127,-1.722065806388855,-1.3573943376541138,-0.5272548198699951,0.2029239684343338,0.08330541104078293,0.6792333722114563,-0.7024833559989929,0.31710436940193176,1.6233571767807007,-2.241685152053833,0
117,1169909,-0.02767159417271614,0.04509648308157921,-0.995016872882843,0.528497040271759,-0.14721615612506866,0.4742090106010437,30.317703247070312,-10.832777976989746,39.01213455200195,0.26183104515075684,-0.8221313953399658,-0.027605734765529633,0.9615412950515747,2.0883123874664307,1.8470790386199951,-1.4937502145767212,0.5523068308830261,1.462327480316162,0.4923057556152344,0.9091851711273193,0.589031994342804,0.4556727409362793,0.6819071769714355,-1.2172729969024658,0
118,1179898,0.026440907269716263,-0.01607198268175125,-0.9941200613975525,0.004560669418424368,-0.3668707311153412,0.17928379774093628,28.129484176635742,-10.094054222106934,40.74131774902344,-1.0831820964813232,-0.5552259683609009,1.122191309928894,-0.16066181659698486,1.8959689140319824,-0.776483952999115,1.1447573900222778,0.05335276946425438,-0.8743562698364258,-1.6403840780258179,-1.6178478002548218,-1.5365087985992432,0.4030260145664215,1.1589127779006958,-0.24413782358169556,0
119,1189924,-0.010129929520189762,0.00012837965914513916,-1.0168192386627197,0.14843280613422394,-0.36785128712654114,0.38247835636138916,29.74172019958496,-11.881961822509766,39.706233978271484,0.5314135551452637,-0.3226749300956726,0.18007338047027588,0.7809907793998718,-2.041870594024658,-2.136559009552002,-0.30531540513038635,-0.6877317428588867,1.3125189542770386,-0.3726390302181244,1.6273590326309204,0.5633757710456848,-0.6833214163780212,0.4337611794471741,0.794962465763092,0
120,1199881,-0.11362677812576294,0.017328867688775063,-0.9714704155921936,-0.3358525335788727,0.3601691722869873,-0.09237060695886612,31.316068649291992,-9.620719909667969,40.642822265625,0.2143252044916153,1.2530298233032227,-1.2156530618667603,-1.2669036388397217,-1.592475414276123,0.12663710117340088,-0.7408875823020935,-0.5783804655075073,-0.19896529614925385,-1.4593287706375122,-0.10908923298120499,0.9796050190925598,-0.6732000708580017,0.16461986303329468,-0.405043363571167,0
121,1209951,0.04415610060095787,0.03224426880478859,-0.9786099791526794,-0.17227646708488464,0.7146192193031311,-0.17239107191562653,29.773971557617188,-9.71914005279541,40.05683898925781,-1.6622607707977295,-0.10617177933454514,0.7877463698387146,0.9749867916107178,1.4232932329177856,0.1628478765487671,-0.5068157911300659,-0.295442134141922,-0.5455973148345947,0.056157007813453674,0.2958652973175049,-1.4871196746826172,-0.47262251377105713,-0.20315629243850708,0.09523177146911621,0
122,1219985,0.027196308597922325,-0.02706332877278328,-0.9876459240913391,0.6819642782211304,0.5047543048858643,0.6776552200317383,29.302743911743164,-10.924644470214844,40.40675354003906,-0.8520478010177612,-0.8965026140213013,-0.9421981573104858,-1.7024903297424316,0.3211018741130829,-1.7029274702072144,0.7855876684188843,0.10146383196115494,-1.5950889587402344,-1.2122498750686646,-0.5062968730926514,0.3209221661090851,-2.169609785079956,2.068943738937378,0.9763115048408508,0
123,1229869,0.003405935363844037,0.0675298422574997,-1.0047287940979004,0.4851106107234955,0.24095413088798523,0.024407904595136642,28.958078384399414,-9.836341857910156,41.162269592285156,-0.04280335456132889,0.789269745349884,0.1455923169851303,1.7096046209335327,-2.288621664047241,-0.25361499190330505,-0.06313946843147278,-0.5327072739601135,-0.5997190475463867,1.56831955909729,1.7165907621383667,0.4363861083984375,0.7261278629302979,-0.2924394905567169,-1.6515682935714722,0
124,1240065,-0.02812879905104637,-0.005173115525394678,-0.9854751825332642,-0.3014063537120819,-0.16947686672210693,0.1879500150680542,29.201316833496094,-9.678706169128418,39.779685974121094,-0.7924845814704895,-1.0086675882339478,0.8918403387069702,-1.103190302848816,-1.1021015644073486,0.9826107025146484,-1.6159104108810425,0.024048732593655586,0.3859517574310303,-0.8736833930015564,-0.9602686166763306,-0.6635115146636963,-1.4053094387054443,1.3397101163864136,0.4065169095993042,0
125,1250525,-0.076179638504982,-0.06897983700037003,-0.9917237758636475,-0.4874025583267212,-0.68161940574646,0.05601693317294121,32.05948257446289,-10.591526985168457,39.8980827331543,0.4901901185512543,0.6281238794326782,1.8615633249282837,0.5086371898651123,-1.184658169746399,1.099669098854065,-0.23092496395111084,0.30887946486473083,-0.9808762669563293,1.6506932973861694,0.6376147866249084,0.1253107339143753,-0.09008312970399857,-2.1752822399139404,0.40592440962791443,0
126,1259650,0.020230451598763466,0.010094614699482918,-1.0171775817871094,-0.5017533898353577,-0.12881210446357727,0.6756372451782227,29.28923797607422,-9.90266227722168,38.85902404785156,-0.9237141609191895,-0.2687693238258362,-0.096758633852005,-0.12216898053884506,-1.87934148311615,-0.6973087787628174,0.16745051741600037,0.3033019006252289,0.218104749917984,-2.0992531776428223,0.8704973459243774,0.8630535006523132,-0.2579169273376465,-0.7313683032989502,-0.3469873070716858,0
127,1270245,0.018078716471791267,-0.049747124314308167,-1.009824275970459,-0.07910160720348358,0.3293176591396332,0.636920154094696,30.0422306060791,-10.164019584655762,40.25687026977539,-0.42914631962776184,0.5720704793930054,-0.790509045124054,-1.3058090209960938,-0.7525699734687805,-0.034886136651039124,1.8747289180755615,-1.9565967321395874,-0.5327121019363403,1.1013504266738892,2.468263626098633,-0.23536960780620575,-0.9152077436447144,1.2605010271072388,0.189144566655159,0
128,1279871,0.002973320195451379,-0.06341046094894409,-1.0017741918563843,-0.19660207629203796,-0.7247478365898132,0.4221664071083069,31.26171112060547,-9.421382904052734,39.614906311035156,-0.849412739276886,2.946272611618042,-0.3147581219673157,-0.6896122694015503,-1.4075175523757935,0.026651598513126373,1.8433364629745483,-0.030007921159267426,1.1902638673782349,0.406946063041687,2.780792236328125,-1.7358063459396362,2.4279260635375977,-0.6281344890594482,0.064265176653862,0
129,1290145,0.012714172713458538,-0.08974631130695343,-1.0159245729446411,0.7918928861618042,-0.027490485459566116,0.5152214169502258,26.76552391052246,-11.474624633789062,39.76729202270508,-1.8915343284606934,1.1455048322677612,-0.4858676493167877,1.2216538190841675,0.4997757375240326,-0.7109866738319397,-1.79970121383667,-0.631920576095581,-0.2630980908870697,1.5571067333221436,-0.3516749441623688,-0.4353892207145691,-0.5420184135437012,0.16091780364513397,0.6589550375938416,0
130,1300030,0.005622146185487509,0.06479980796575546,-1.0015838146209717,-0.6085179448127747,0.9815509915351868,-0.033650923520326614,32.051204681396484,-11.266876220703125,39.54791259765625,0.08454415202140808,-1.3012044429779053,-0.014024706557393074,-2.8514890670776367,0.43168655037879944,-1.2691019773483276,1.5118041038513184,-0.004493349697440863,-0.2024083435535431,-0.7751868963241577,-0.860783040523529,1.2818247079849243,0.7118251919746399,2.1464059352874756,-0.4659625291824341,0
131,1310101,0.06033632904291153,-0.02726128324866295,-0.9986010789871216,0.38674208521842957,-0.41473251581192017,-0.6076798439025879,30.68052101135254,-9.025232315063477,40.02793502807617,-1.0860222578048706,-0.42076575756073,-0.4975501596927643,1.4597159624099731,-0.1394132822751999,-2.2935385704040527,-0.8890169262886047,-0.7700833678245544,1.0166544914245605,0.17934869229793549,-1.8216512203216553,1.0056461095809937,0.977173924446106,0.06918010860681534,0.29381313920021057,0
132,1320211,0.008101471699774265,0.021570008248090744,-1.0071970224380493,-0.5490142703056335,-0.014797031879425049,0.5403643846511841,31.409774780273438,-11.331080436706543,40.85103988647461,-0.5626161694526672,-0.49015945196151733,0.05394494906067848,-0.6344216465950012,-2.3882882595062256,0.19308631122112274,-1.0949786901474,0.3474399149417877,0.8057469129562378,1.6497535705566406,-1.3767582178115845,-0.8866708874702454,1.6876753568649292,0.2022344321012497,0.781796395778656,0
133,1330169,0.05848845839500427,0.006041558925062418,-1.014013648033142,0.3366042375564575,-0.05603749305009842,-0.6478317975997925,29.089847564697266,-11.535136222839355,40.62220001220703,1.4538342952728271,0.2312200367450714,0.4359253942966461,0.8627533912658691,0.9326505064964294,-1.4038498401641846,-0.2810247242450714,0.4896031618118286,0.8286330699920654,0.4533775746822357,-1.7280439138412476,-1.8500666618347168,0.21595020592212677,-0.16551877558231354,0.5084893703460693,0
134,1339676,-0.05755249410867691,-0.10135621577501297,-1.0412089824676514,-0.2118379771709442,-0.06887330114841461,0.7362145185470581,30.24704933166504,-10.879637718200684,38.22544860839844,0.10824549198150635,0.9337639212608337,-0.7906396985054016,-0.7069166898727417,0.6422155499458313,0.6927653551101685,-0.15749973058700562,0.44028258323669434,0.3473891317844391,0.2584870755672455,-1.2782564163208008,1.2245906591415405,-0.1409950852394104,-2.072936534881592,-1.9245429039001465,0
135,1350256,0.07311588525772095,0.013778045773506165,-1.005576729774475,-0.8452394604682922,-0.5184201002120972,-0.656590461730957,28.943164825439453,-11.097248077392578,39.662689208984375,-0.24921858310699463,0.03333212807774544,0.0009669059654697776,1.8755735158920288,-0.569694995880127,-0.024294136092066765,-1.0322902202606201,-0.8221961855888367,-0.2715555727481842,0.9915084838867188,1.5090374946594238,-0.15125133097171783,0.8183724880218506,-0.13132256269454956,1.0006130933761597,0
136,1360015,-0.007071186788380146,0.01040276512503624,-1.0065438747406006,0.3358706831932068,0.4032006859779358,-0.1757698506116867,28.589956283569336,-9.25637435913086,41.24192428588867,-1.2901090383529663,-0.36907875537872314,1.6827150583267212,0.4410129487514496,-2.106287956237793,0.18552497029304504,0.273727148771286,1.365045428276062,1.0330694913864136,-0.37977302074432373,-0.7134895920753479,-0.4821191132068634,0.03407223895192146,-0.11119839549064636,0.00549567025154829,0
137,1370116,0.028071455657482147,-0.03959915041923523,-1.0010714530944824,-0.29493430256843567,0.10533406585454941,0.5262853503227234,30.378881454467773,-9.033915519714355,37.33954620361328,1.1352119445800781,-1.0595701932907104,-0.04597491770982742,1.3371596336364746,-0.251799613237381,1.338847279548645,1.5155868530273438,0.7556263208389282,-2.1431260108947754,0.7734395861625671,1.2558977603912354,-0.04170951247215271,-0.8471714854240417,-1.3346302509307861,-0.14835509657859802,0
138,1380067,0.023213356733322144,0.02121184580028057,-0.9762343168258667,0.1495431810617447,0.010197103954851627,0.3247710168361664,30.24115753173828,-9.730565071105957,41.659019470214844,1.0155624151229858,-0.7658533453941345,-0.7480149865150452,0.6449353098869324,0.7887677550315857,1.444140076637268,-0.6093403100967407,-0.035199109464883804,0.5275251269340515,-0.02687712572515011,-0.754023551940918,-0.5697435140609741,0.8089399337768555,0.7403237819671631,1.0442770719528198,0
139,1389938,0.05293577164411545,0.051594384014606476,-0.977723240852356,-1.0204354524612427,-0.8886016011238098,0.31807324290275574,30.325199127197266,-10.12326717376709,39.4853515625,-1.1777302026748657,1.1203532218933105,-0.44738709926605225,0.24096430838108063,-1.114545464515686,0.13405656814575195,0.9725548028945923,0.3738221228122711,1.2056382894515991,-0.643631637096405,0.5081709623336792,-0.03608965128660202,-0.10083045810461044,0.2706877291202545,-0.44477614760398865,0
140,1399868,0.017069842666387558,-0.035136301070451736,-1.017085075378418,0.10287436842918396,0.18035286664962769,-0.11395182460546494,29.277395248413086,-10.224580764770508,38.93011474609375,0.8747350573539734,-0.11439093202352524,0.23502716422080994,-0.8927747011184692,0.27323082089424133,-0.7589706182479858,-0.22789603471755981,0.4476659893989563,0.8407244086265564,1.39934241771698,-1.2360118627548218,-0.10017675161361694,-0.6760574579238892,-2.449660062789917,0.8638077974319458,0
141,1410008,0.026358917355537415,-0.052388425916433334,-0.9953182935714722,-0.21600298583507538,0.17571181058883667,-0.7027971148490906,30.15694808959961,-10.055556297302246,41.22813415527344,-0.5699197053909302,0.05024009943008423,2.254909038543701,-1.286726713180542,0.458221971988678,-1.8332605361938477,0.23067376017570496,-0.06370117515325546,-1.0468498468399048,0.19128426909446716,2.373248815536499,0.7745548486709595,0.02269008383154869,-0.017243504524230957,0.6861424446105957,0
142,1419983,0.01568754017353058,-0.04287385940551758,-0.9729122519493103,-0.4038865268230438,-0.7828134894371033,0.38652172684669495,29.115968704223633,-10.278474807739258,39.07981491088867,0.05002494528889656,-0.024603331461548805,-1.8617429733276367,-0.21622805297374725,-1.3237320184707642,0.6393980383872986,-0.8672052025794983,-0.47210225462913513,-0.943255603313446,0.7464194297790527,-0.7883607745170593,0.8191695809364319,-1.9613189697265625,-0.2138204723596573,1.8328684568405151,0
143,1430007,-0.09729310125112534,0.009201972745358944,-0.9960538148880005,0.2833542823791504,0.02394608035683632,-0.6892905831336975,30.18759536743164,-10.098230361938477,38.740394592285156,-1.6000977754592896,-1.4078154563903809,0.033242251724004745,0.91993647813797,-0.01745346188545227,0.3141059875488281,-0.9568420648574829,-2.1302804946899414,0.313486784696579,-0.6688120365142822,-0.06587373465299606,-0.36181679368019104,0.2220155894756317,-0.0791095495223999,0.4751023054122925,0
144,1440363,0.05636875331401825,-0.0449313223361969,-0.9906908869743347,0.22247755527496338,0.2766067087650299,-0.009191945195198059,29.612472534179688,-9.795560836791992,39.201087951660156,-0.4497537612915039,0.6716970801353455,-0.8986412882804871,1.5207103490829468,-0.6791735291481018,-0.9091638326644897,1.5017709732055664,1.1203140020370483,-0.4889187514781952,-0.9640031456947327,-0.3914591372013092,1.1302623748779297,-0.0161104965955019,-0.34550756216049194,0.1323203593492508,0
145,1450319,0.0010410918621346354,-0.050819192081689835,-0.9995783567428589,0.39823952317237854,-0.11758169531822205,-0.771628737449646,28.365684509277344,-10.012496948242188,40.15997314453125,-0.03459929674863815,0.37622541189193726,-0.2702402174472809,-0.9090482592582703,-0.3996654748916626,-2.216360330581665,-2.382445812225342,-1.1626874208450317,0.918331503868103,0.6578167676925659,0.796019971370697,-0.6619127988815308,0.5794865489006042,1.3435561656951904,-0.10093808174133301,0
146,1459820,0.016825081780552864,-0.0432615727186203,-1.011109471321106,-0.003989379853010178,0.24689744412899017,0.20825332403182983,29.971168518066406,-9.850808143615723,40.49225616455078,0.2443278580904007,-0.4814307987689972,0.3260195255279541,-0.7775034308433533,0.3173322081565857,0.5060129165649414,0.2687020003795624,-0.6459459066390991,-0.43537378311157227,0.9870733022689819,0.0539419911801815,-0.5646334886550903,-0.45582395792007446,0.8507556319236755,0.5322279334068298,0
147,1469872,0.02404613420367241,0.10423159599304199,-1.015997052192688,0.7470600008964539,-0.21582990884780884,0.3397097587585449,29.3448543548584,-10.149699211120605,38.73469924926758,-0.5261837840080261,-1.6846071481704712,-1.4408760070800781,-1.6964067220687866,-1.2562918663024902,-1.519057273864746,0.15552042424678802,1.713795781135559,-1.35451340675354,1.3074064254760742,0.9567223787307739,0.8985759615898132,1.4863009452819824,0.9053129553794861,0.13466325402259827,0
148,1479929,-0.1307407021522522,-0.022350065410137177,-1.0079309940338135,0.1346941441297531,-0.03002939373254776,0.35055044293403625,28.655033111572266,-10.279483795166016,40.16499710083008,0.5417943596839905,0.7382121682167053,2.324620246887207,-0.9444634318351746,-0.06800349056720734,-1.4262560606002808,0.8189259767532349,0.7281249761581421,1.5852512121200562,-0.23946283757686615,-0.4326169788837433,-0.46908271312713623,-0.5265507698059082,0.758720338344574,0.23427481949329376,0
149,1489983,-0.00442131981253624,-0.0552249476313591,-1.0018762350082397,-0.799024760723114,0.09321382641792297,-0.2745835483074188,29.582666397094727,-10.19007396697998,40.215152740478516,0.8056769371032715,-2.2239723205566406,0.736565887928009,2.2635350227355957,-0.5531575679779053,-0.972233772277832,-0.5139862895011902,-0.3178768754005432,0.45113274455070496,0.21935437619686127,-0.707334578037262,-0.732035756111145,0.38351503014564514,1.0218733549118042,-0.8989826440811157,0
150,1499738,-0.005448062438517809,0.02919478341937065,-0.9979902505874634,0.4982501268386841,-0.5021231770515442,-0.13478344678878784,30.250537872314453,-9.130552291870117,41.51084518432617,-2.3244571685791016,0.10027944296598434,0.36328965425491333,-0.6963314414024353,1.1193915605545044,0.3096295893192291,-0.2586762309074402,2.4354805946350098,-0.4729147255420685,-0.1658775359392166,2.1158640384674072,-0.40600594878196716,0.4305931031703949,0.07811345905065536,0.02806723304092884,0
151,1509840,-0.022512901574373245,-0.026347050443291664,-0.9867724776268005,0.3369469940662384,-0.12991246581077576,0.7447071075439453,28.83243751525879,-10.337719917297363,39.73015213012695,-0.5131559371948242,1.0725886821746826,0.3072969913482666,-0.5473935008049011,-0.04965611919760704,1.0768051147460938,0.3286582827568054,0.3367330729961395,0.9886065125465393,-0.16265429556369781,-1.8138378858566284,-1.1497386693954468,-1.2839597463607788,-0.7710046768188477,1.911943793296814,0
152,1520160,-0.03211018815636635,0.009231247939169407,-1.0507349967956543,-0.7047225832939148,-0.25816312432289124,0.6216707229614258,30.687305450439453,-10.827516555786133,39.82933807373047,1.0530190467834473,0.20149822533130646,1.5482892990112305,0.47855544090270996,-0.9107741713523865,-2.702218770980835,1.9552557468414307,1.4307482242584229,-0.2565678358078003,-0.03897567465901375,0.6847593188285828,0.04074084013700485,-0.6113522052764893,0.7831671833992004,-2.052445650100708,0
153,1530100,0.10790455341339111,-0.03565673530101776,-0.9773029685020447,0.5631034970283508,-0.14757613837718964,-0.49939751625061035,28.027925491333008,-10.2448148727417,40.36964797973633,-0.8228519558906555,-0.5445947647094727,0.9202268719673157,-1.090080976486206,-0.36598560214042664,2.9492905139923096,-1.9966270923614502,2.239076614379883,-1.1011804342269897,-0.08854990452528,0.8204420804977417,0.8570415377616882,1.3027381896972656,1.1536123752593994,0.22234059870243073,0
154,1539501,-0.05817948281764984,0.08042217046022415,-0.9835005402565002,-0.21842610836029053,-0.03511212021112442,-0.20072612166404724,30.673376083374023,-11.147619247436523,39.178184509277344,0.4784744381904602,-1.6231930255889893,2.2521307468414307,-0.4668819010257721,0.04426345229148865,-1.1269057989120483,0.24536535143852234,0.9632338881492615,-0.39140257239341736,-0.4611099362373352,1.9581822156906128,-0.3573245108127594,0.8734744191169739,-0.29033195972442627,-0.34095299243927,0
155,1550092,-0.04418126493692398,-0.055922944098711014,-0.9857268333435059,-0.033445026725530624,-0.20939971506595612,-0.6656327843666077,30.45349884033203,-10.579835891723633,40.0022087097168,1.1873074769973755,2.4153988361358643,0.48251232504844666,2.169240713119507,-0.12439367920160294,-1.597003698348999,-0.8072381019592285,0.4881032705307007,-1.6348438262939453,-2.2139406204223633,0.5946466326713562,-1.7259973287582397,0.1446056216955185,-0.23561762273311615,-0.6135773658752441,0
156,1559962,-0.08167780935764313,-0.04509064182639122,-1.0064395666122437,-1.7143422365188599,0.4875989556312561,1.100651502609253,31.343347549438477,-11.28637981414795,40.16773223876953,-0.30520138144493103,-0.29942744970321655,-0.7751253247261047,1.9098788499832153,-0.0011180909350514412,0.10020039230585098,1.2737853527069092,0.47161945700645447,-0.636060893535614,-0.5126258730888367,-0.5547840595245361,-1.4080551862716675,-0.32343238592147827,-1.9642151594161987,-1.6669113636016846,0
157,1569942,0.017229551449418068,0.04118622839450836,-0.986221432685852,1.1249068975448608,0.13922661542892456,-0.7958277463912964,29.291706085205078,-12.708486557006836,36.43567657470703,-0.6050151586532593,-0.34844014048576355,0.10992372781038284,0.050664301961660385,-0.8713564276695251,0.9321244359016418,-1.3816311359405518,0.4362407922744751,0.5387140512466431,0.31755331158638,1.719530701637268,-1.2717742919921875,-0.6079366207122803,0.8544881343841553,-0.8951814770698547,0
158,1580022,0.03440539166331291,0.012010383419692516,-0.9913183450698853,-0.10795332491397858,-0.5007892847061157,0.18804259598255157,31.692867279052734,-10.79819107055664,40.954105377197266,0.8135673999786377,-0.6247611045837402,1.4971600770950317,-1.5899488925933838,0.8612253069877625,1.4545292854309082,0.7955507040023804,-0.8992928266525269,0.79405277967453,0.23535795509815216,0.5817360877990723,0.15840749442577362,-0.8216150403022766,0.9546896815299988,1.0317336320877075,0
159,1589893,0.07852324843406677,-0.04796282947063446,-0.9940760135650635,-0.13262788951396942,0.2832191586494446,-0.04899793863296509,30.167421340942383,-10.367409706115723,40.26176071166992,-0.8964723944664001,-0.9483551383018494,0.02355193719267845,-0.28806501626968384,-0.41888222098350525,1.8649017810821533,-1.7975469827651978,0.7970117330551147,-1.165235996246338,0.9589303135871887,-0.9418332576751709,1.0123087167739868,0.639542281627655,-0.25917065143585205,0.3592151701450348,0
160,1599684,-0.07400305569171906,0.013266813941299915,-1.018398642539978,-0.07297953218221664,0.736099362373352,-0.07760920375585556,30.533695220947266,-9.920106887817383,39.82843780517578,1.4908742904663086,0.6146160960197449,2.163383722305298,-0.17845803499221802,1.1504641771316528,0.9372603297233582,-1.0236155986785889,-0.2129448503255844,-0.7233831882476807,0.9081650376319885,-0.63039231300354,1.6415622234344482,1.436354398727417,0.3854130208492279,-0.29766032099723816,0
161,1610023,0.014230807311832905,0.02843516133725643,-0.9990362524986267,-0.4292489290237427,0.19433379173278809,0.16089533269405365,28.589603424072266,-11.154601097106934,40.28079605102539,1.3302698135375977,0.5636295676231384,1.7269991636276245,0.24908067286014557,1.5087112188339233,-1.55254065990448,0.9751795530319214,-0.22081288695335388,0.3560388684272766,1.6303086280822754,-1.674914836883545,-1.2907840013504028,0.4026436507701874,-0.3405779302120209,-0.16279707849025726,0
162,1620138,0.06410540640354156,0.0759996846318245,-1.0165190696716309,0.5636861324310303,0.42006415128707886,0.8210232257843018,31.99736785888672,-9.094197273254395,40.593345642089844,-1.8965123891830444,0.52688068151474,0.1921706348657608,2.1115007400512695,1.2472285032272339,0.09730754047632217,0.4202997386455536,0.1375112384557724,-0.6242181062698364,-2.163209915161133,-0.9925022721290588,0.5443321466445923,-0.3207233250141144,1.0381951332092285,0.5287439823150635,0
163,1629809,0.0024088704958558083,0.05916137993335724,-0.9895116090774536,0.21335677802562714,-1.164520502090454,-0.4807175099849701,29.871623992919922,-9.552793502807617,40.307655334472656,1.5176628828048706,-1.3512039184570312,-1.0800083875656128,-2.9335782527923584,1.2908482551574707,-0.018598763272166252,-0.5699023008346558,-0.36336109042167664,0.38817423582077026,-0.697598397731781,0.9009990096092224,-0.39164596796035767,-1.2268760204315186,1.4113168716430664,1.8519071340560913,0
164,1639939,-0.013858780264854431,0.08221887797117233,-0.992132306098938,-0.05202789977192879,-0.24258530139923096,0.11311443895101547,29.261241912841797,-9.72872257232666,38.007503509521484,-0.6769587397575378,1.8472458124160767,-0.012392869219183922,-1.2477481365203857,0.43443846702575684,0.11029408872127533,1.065356731414795,1.0975769758224487,-1.1044918298721313,0.5745689272880554,0.5553417801856995,0.7546941041946411,1.380761981010437,-0.1592579036951065,-0.8230177760124207,0
165,1650102,0.0169657152146101,0.06285296380519867,-1.0222182273864746,0.1330493837594986,-0.359541118144989,0.6195108294487,29.57086944580078,-9.095470428466797,40.15996170043945,-0.020865049213171005,-1.590783715248108,1.377824068069458,0.01599525660276413,1.3058098554611206,-0.7252740859985352,1.2525087594985962,1.8892359733581543,-0.004914504941552877,0.21781130135059357,1.7122509479522705,-0.3299553692340851,0.8413854241371155,0.48131904006004333,2.1306025981903076,0
166,1660037,-0.022311538457870483,-0.029776671901345253,-0.9817613959312439,-0.8789039254188538,0.648179292678833,-0.6332627534866333,31.351703643798828,-9.663357734680176,40.32038497924805,0.3500182628631592,-0.3055476248264313,-0.8208647966384888,0.5783459544181824,0.09371688216924667,-2.1146042346954346,1.06740403175354,-1.0587236881256104,0.6986867785453796,-0.5248621106147766,-0.8610037565231323,0.9223214387893677,-0.30015668272972107,0.6928354501724243,-0.45552629232406616,0
167,1669943,-0.08219656348228455,-0.09175790846347809,-0.9919266700744629,-0.10200832784175873,0.22357520461082458,0.12054048478603363,29.901918411254883,-9.52542781829834,40.6970100402832,0.5444467067718506,-1.0941184759140015,0.2365284115076065,-0.87030428647995,-1.4258966445922852,-1.2236878871917725,0.8729969263076782,0.06823281943798065,-0.5922768115997314,-1.280733585357666,-0.5163542628288269,-0.08831381797790527,1.1740576028823853,-1.8177005052566528,0.22147101163864136,0
168,1680031,-0.19713841378688812,0.033273499459028244,-0.9925869703292847,0.6814703345298767,-0.4006653428077698,-0.206298828125,30.320377349853516,-9.21948528289795,39.13029861450195,0.13943175971508026,-0.38504165410995483,-1.470035195350647,1.1095821857452393,0.02028076909482479,-1.0595121383666992,-1.310253620147705,-0.048450350761413574,-1.51417875289917,0.5266643762588501,0.4756828248500824,-1.0310052633285522,0.2607550323009491,0.005404868628829718,1.0886459350585938,0
169,1689915,0.04422532767057419,0.051889434456825256,-0.9833706021308899,-0.40105345845222473,-0.20405057072639465,0.9009793400764465,30.54954719543457,-9.865486145019531,41.39658737182617,0.19481684267520905,0.5450112819671631,1.187025547027588,0.12723365426063538,0.18503089249134064,-0.15201278030872345,1.7791550159454346,1.2759335041046143,0.015338352881371975,-0.7622671127319336,0.16219469904899597,-0.5680550336837769,0.17320653796195984,0.6166313886642456,1.1746646165847778,0
170,1699862,-0.07316635549068451,-0.06747134029865265,-0.9973092675209045,-0.1981213092803955,-0.011413242667913437,0.6325193047523499,30.852685928344727,-8.60243034362793,38.61494827270508,-0.45512595772743225,-1.319393515586853,-0.2029549777507782,1.2808688879013062,-0.8043189644813538,0.41593387722969055,0.7632718682289124,0.6912298202514648,-0.8882835507392883,-0.4579273760318756,-1.1833627223968506,-1.1861079931259155,1.142482876777649,1.3083233833312988,-1.5855745077133179,0
171,1710093,-0.05701811984181404,-0.038519132882356644,-1.0016779899597168,-0.26760223507881165,-0.65712571144104,-0.41962841153144836,29.608505249023438,-7.888199806213379,41.132816314697266,0.3509814143180847,0.8187457919120789,-0.7923817038536072,1.0143932104110718,1.638994574546814,-0.5585750937461853,-1.5041546821594238,0.5052086710929871,-0.43897467851638794,-1.3084100484848022,2.591792583465576,1.2866162061691284,1.5395171642303467,0.25667208433151245,-0.029259515926241875,0
172,1720256,-0.06917505711317062,0.013790040276944637,-0.9717088937759399,0.5549129247665405,0.2585420608520508,0.045932281762361526,29.825349807739258,-9.973560333251953,40.27430725097656,1.6414512395858765,-1.859665870666504,-0.005435357801616192,0.10260789096355438,-1.0954023599624634,-1.3409308195114136,-0.43715551495552063,-0.5592074990272522,-0.8711698651313782,0.7067779302597046,-0.11778926849365234,-0.9588790535926819,0.046735771000385284,1.209001898765564,0.4906318783760071,0
173,1729751,0.09043976664543152,0.10864785313606262,-0.9798513054847717,-0.6884499788284302,-0.16911685466766357,-0.39100050926208496,30.64131736755371,-9.738211631774902,38.507965087890625,-2.2248008251190186,-0.24242912232875824,-0.6521299481391907,-1.1300557851791382,0.9037346839904785,0.3640121817588806,-0.16204001009464264,0.1181030124425888,-1.3256762027740479,0.2374795824289322,-0.6425834894180298,0.09328166395425797,-0.07613719999790192,0.7713103890419006,-0.9110637903213501,0
174,1739806,-0.019186459481716156,-0.14930234849452972,-0.9925898313522339,0.3294792175292969,0.23919528722763062,-0.7231335639953613,30.282072067260742,-8.747092247009277,39.272743225097656,-0.33980700373649597,1.1189526319503784,0.7907220721244812,1.0453307628631592,-0.5408642292022705,-1.5551695823669434,-1.248189091682434,-0.1415904462337494,-1.0231274366378784,-0.5706141591072083,1.3954910039901733,-1.5817341804504395,-1.103225588798523,0.8650873303413391,-1.1042330265045166,0
175,1749946,-0.025741321966052055,0.01596102863550186,-0.9958964586257935,0.09415625035762787,-0.5265548825263977,-0.061924293637275696,30.232521057128906,-12.375675201416016,40.355777740478516,0.17012466490268707,-1.0694817304611206,-1.4994269609451294,1.1672205924987793,-1.573252558708191,-0.7069249153137207,-0.7213148474693298,-0.31935006380081177,1.3450517654418945,1.7497667074203491,0.12134566903114319,0.1506071835756302,0.6847401261329651,-0.20234912633895874,0.6748522520065308,0
176,1760075,-0.1003289744257927,-0.038629062473773956,-1.0258104801177979,0.29898661375045776,-0.21710804104804993,0.037101827561855316,29.10230255126953,-8.028865814208984,39.704322814941406,0.43689388036727905,-0.34619784355163574,0.12375050783157349,0.011172204278409481,0.516257643699646,0.6047486662864685,-0.35777732729911804,0.7267489433288574,-1.3017852306365967,2.0469882488250732,-0.053102925419807434,1.0316332578659058,1.457255244255066,0.8405467867851257,-0.5274597406387329,0
177,1770141,-0.10348941385746002,0.026203719899058342,-1.011993408203125,0.2563830316066742,0.10178449004888535,-0.25536036491394043,29.967266082763672,-10.048784255981445,41.5494270324707,-1.0851991176605225,0.48560088872909546,1.3745241165161133,1.3297204971313477,-0.3450726568698883,1.3129825592041016,0.5223894119262695,0.23121018707752228,-1.1271623373031616,-0.02477574534714222,-0.33365803956985474,0.2936808168888092,-0.8071587681770325,-0.2230890989303589,-1.3472893238067627,0
178,1780234,0.039696674793958664,0.08961880207061768,-0.9732652306556702,0.057407133281230927,0.33373236656188965,-0.11091798543930054,29.476072311401367,-9.166421890258789,40.197898864746094,-0.44549107551574707,-0.662662148475647,1.6674458980560303,0.9992934465408325,-0.058443084359169006,-1.2835201025009155,-1.6074563264846802,1.8683483600616455,0.6017121076583862,1.8579102754592896,-0.19212432205677032,0.2144363820552826,1.064753532409668,-2.4927353858947754,1.3342106342315674,0
179,1789876,0.051544301211833954,-0.10336916893720627,-0.9939751625061035,0.7718121409416199,0.5511511564254761,0.09372289478778839,28.655847549438477,-8.363097190856934,39.21521759033203,0.5445361137390137,1.5603142976760864,1.2691011428833008,0.1424519121646881,0.7690393924713135,0.09300696104764938,2.49827241897583,-0.4791428744792938,-0.009551632218062878,-1.0303035974502563,0.5151117444038391,2.744122266769409,1.1670650243759155,0.8806516528129578,-0.7923157811164856,0
180,1799913,0.046183276921510696,0.05106770619750023,-0.9986352324485779,0.5448534488677979,0.5977104902267456,-0.16321992874145508,29.028038024902344,-10.46918773651123,40.979698181152344,2.0376832485198975,0.6030007004737854,0.504601240158081,0.6622405648231506,-0.5846058130264282,-1.316843032836914,-0.2399008572101593,-0.2917213439941406,-0.6429800987243652,0.011497080326080322,0.3926926255226135,-0.03229935094714165,0.9709134101867676,-0.41878741979599,0.9533716440200806,0
181,1809833,0.09471571445465088,-0.04367246851325035,-1.0071308612823486,0.22663132846355438,0.9428257346153259,-0.22513073682785034,30.26426124572754,-11.1295747756958,39.296756744384766,0.48847222328186035,1.1094574928283691,0.3467564880847931,-0.2797846496105194,-0.2330927848815918,-0.06484638899564743,0.9633535146713257,0.12845690548419952,0.6931742429733276,-1.8578927516937256,-0.5621040463447571,-0.8860063552856445,-0.8079110383987427,-0.644184947013855,-0.2839709222316742,0
182,1819681,0.0029029794968664646,0.0648820698261261,-0.994200587272644,-0.5712044835090637,0.3383367657661438,0.49973025918006897,30.05726432800293,-9.435328483581543,40.14099884033203,1.543615698814392,-0.3580513298511505,2.2856523990631104,-0.987023651599884,0.037468042224645615,1.476672649383545,-0.6082761287689209,-1.0664657354354858,0.4006107747554779,0.661740779876709,-0.4623737335205078,-0.7889476418495178,-0.18793918192386627,-0.4841020107269287,-0.6439647078514099,0
183,1830006,0.019347475841641426,-0.018811902031302452,-1.0195984840393066,0.2325078696012497,-0.37829598784446716,0.15999345481395721,29.515901565551758,-9.764829635620117,36.969337463378906,-0.6089114546775818,-0.6212514042854309,0.9609866738319397,-0.7556468844413757,0.1406794637441635,1.3771295547485352,-0.03504569083452225,0.34667354822158813,-1.006178617477417,2.128507137298584,-0.48632368445396423,0.6599308848381042,-1.1084731817245483,-0.9948865175247192,-0.3360365629196167,0
184,1840025,-0.015219287015497684,-0.06610056757926941,-0.981696605682373,-0.033191271126270294,0.19411872327327728,0.42432260513305664,30.57042694091797,-11.312350273132324,40.11731719970703,-0.8705199360847473,-0.08404188603162766,-1.5027693510055542,0.41516122221946716,-0.27928903698921204,-1.925227403640747,0.031374089419841766,-1.1192899942398071,-1.605482578277588,1.9111064672470093,-1.1702347993850708,1.9821772575378418,1.5600279569625854,1.7832109928131104,0.5165649056434631,0
185,1849754,-0.009119090624153614,0.01723351888358593,-1.0095295906066895,0.4088524878025055,0.47909989953041077,-0.6588588356971741,28.599327087402344,-9.753969192504883,40.67864990234375,2.5273988246917725,-0.22317177057266235,0.6250067353248596,1.5442018508911133,0.5359992384910583,-0.5935282707214355,-1.3466354608535767,0.7116453051567078,-0.4616401195526123,0.3242720067501068,0.04986798018217087,-0.994935154914856,0.21282359957695007,-0.348139226436615,0.8509754538536072,0
186,1859981,0.04812781140208244,-0.0898125171661377,-1.0093719959259033,0.10286594927310944,-0.12698523700237274,-0.24212434887886047,28.553119659423828,-9.764449119567871,40.254112243652344,-1.4857257604599,0.8234249353408813,-0.7877200245857239,-0.13989509642124176,1.172993540763855,-1.7648241519927979,0.5073638558387756,0.39023643732070923,-0.21290983259677887,1.1660609245300293,1.258626103401184,1.860658884048462,-0.5085095763206482,0.6260895729064941,1.2606481313705444,0
187,1870152,0.07301453500986099,-0.028147254139184952,-0.9941436648368835,-0.7685680985450745,0.746904730796814,-0.21451762318611145,32.014495849609375,-11.661004066467285,41.21380615234375,-2.2043867111206055,-0.8824666738510132,-0.4724750220775604,0.4715401530265808,-0.22321464121341705,1.8319780826568604,1.151897668838501,1.3753724098205566,-0.8470309972763062,0.17575983703136444,0.7970436215400696,-1.3470615148544312,-1.162461280822754,-0.7056913375854492,2.1130478382110596,0
188,1879857,0.004791651852428913,0.019013691693544388,-0.9921912550926208,-0.0651901587843895,0.35027098655700684,-0.08079060167074203,28.627708435058594,-9.922653198242188,39.633724212646484,1.8967511653900146,-1.8070449829101562,-0.7680052518844604,-0.4610981345176697,-0.04184408858418465,0.3004348874092102,0.7041982412338257,-0.015698477625846863,0.6251450181007385,-1.2539775371551514,0.305293470621109,0.12442982941865921,-1.4121538400650024,-0.30640316009521484,2.1056246757507324,0
189,1890135,-0.014836309477686882,0.0014910646714270115,-1.0130681991577148,0.4249506890773773,-0.06633634120225906,1.0030324459075928,30.707151412963867,-9.144975662231445,39.40886688232422,-0.08542675524950027,1.6280467510223389,0.4845556318759918,0.6459190249443054,-0.8410366177558899,1.1362533569335938,-0.6905110478401184,2.2584667205810547,0.6401392221450806,0.5443909764289856,-1.110687494277954,1.3233649730682373,0.3617911636829376,1.6552432775497437,-0.2626895606517792,0
190,1900223,0.027093352749943733,0.004195269197225571,-0.9807590842247009,-0.31801244616508484,0.07073485106229782,0.2919333875179291,29.407506942749023,-9.789379119873047,41.15696334838867,-1.7492202520370483,0.8626581430435181,-0.5717032551765442,-0.9805704951286316,0.404670387506485,-0.9723304510116577,-1.4537447690963745,-0.9355373382568359,1.1673945188522339,0.49929454922676086,-0.22780293226242065,-0.97281813621521,0.7877755165100098,-0.8477176427841187,-0.6776573061943054,0
191,1909934,-0.02057131566107273,0.1342543065547943,-1.0000053644180298,0.07183750718832016,0.22291073203086853,-0.17845754325389862,29.352161407470703,-8.558581352233887,39.86015319824219,0.1564619541168213,0.7834287285804749,0.7665385007858276,0.08727245777845383,-1.0194483995437622,-1.154287576675415,-0.4520733952522278,0.09263657033443451,1.4663076400756836,-0.01212648767977953,0.10524353384971619,-2.5924947261810303,-0.8258578181266785,-1.121437907218933,1.165105938911438,0
192,1920233,0.03880506381392479,-0.06478728353977203,-1.0167443752288818,-0.5527933239936829,-0.4022241234779358,0.18609948456287384,30.39055061340332,-9.595524787902832,38.19343566894531,1.9533557891845703,-0.053317081183195114,1.1615384817123413,0.9045953750610352,0.6185654401779175,-0.2829120457172394,0.0448857843875885,-1.0399746894836426,-1.5658231973648071,-1.0251882076263428,0.35280629992485046,0.6176075339317322,1.105297565460205,0.2732968330383301,-0.2817310690879822,0
193,1929915,0.041414421051740646,-0.08504040539264679,-0.9953100085258484,-0.33614060282707214,0.02870992198586464,-0.14943170547485352,29.419960021972656,-11.117339134216309,39.690311431884766,-0.7845360636711121,-1.6052329540252686,-1.7213103771209717,-1.5405689477920532,0.9573377966880798,0.33671221137046814,-0.4936313331127167,-0.28221309185028076,-0.35149073600769043,0.3011102080345154,-1.4507921934127808,1.0721409320831299,-0.6400743126869202,-1.5181692838668823,-0.4019150137901306,0
194,1940112,0.042652230709791183,0.0028594746254384518,-1.0288516283035278,0.22571665048599243,-0.8846913576126099,0.7724981307983398,31.535276412963867,-11.01941204071045,40.162574768066406,1.4831914901733398,0.7448393106460571,1.1754682064056396,0.33932968974113464,-0.7957079410552979,-0.954614520072937,0.7189608812332153,1.44762122631073,0.7956100702285767,-0.18410436809062958,-0.2613148093223572,-2.2943711280822754,0.33317723870277405,-0.5896257758140564,-0.18644322454929352,0
195,1949995,-0.13794578611850739,-0.09585973620414734,-1.0017808675765991,0.3513539731502533,0.07200580090284348,-0.3387702703475952,31.473098754882812,-9.383126258850098,40.26691436767578,1.932479739189148,0.4098902940750122,0.3833974003791809,-1.763602375984192,0.25724121928215027,0.6367404460906982,0.3742899000644684,-0.1099330484867096,-0.8290144801139832,1.3025461435317993,-0.30526211857795715,0.11366070061922073,-0.7550638914108276,0.06322889775037766,2.2686209678649902,0
196,1960140,-0.0015180102782323956,0.03717499226331711,-1.006487488746643,-0.18501971662044525,-0.13666577637195587,0.32612261176109314,29.275209426879883,-9.795783996582031,39.97806167602539,-0.5094162225723267,0.17584726214408875,0.6087661385536194,2.396543502807617,-0.5258190631866455,0.45773404836654663,0.08261450380086899,1.6783524751663208,1.0157583951950073,-0.7553905844688416,0.055192213505506516,-1.2889330387115479,-0.8375427722930908,-0.6583844423294067,0.4642546474933624,0
197,1970127,-0.008298682980239391,0.01988017000257969,-1.0072025060653687,0.2528001666069031,-0.36178505420684814,-1.2266526222229004,28.802406311035156,-9.655277252197266,39.51979446411133,1.0943857431411743,-0.684815526008606,0.34460577368736267,0.15417201817035675,0.5610625743865967,0.15828582644462585,0.5878159403800964,-0.6065096855163574,-0.303219199180603,1.1375535726547241,-0.8911148905754089,-0.06437870115041733,-0.7246674299240112,1.4609155654907227,-1.964887261390686,0
198,1979947,-0.033750586211681366,-0.04477902129292488,-1.0234136581420898,-0.21457242965698242,-0.802557647228241,-0.38854411244392395,30.19923973083496,-10.38869571685791,39.014434814453125,-1.327592372894287,0.4532122313976288,-0.4294877052307129,-1.08994460105896,-1.10709810256958,0.5499129295349121,-1.5632046461105347,-0.31934842467308044,1.2740662097930908,-1.8020763397216797,-0.5833703279495239,0.46887996792793274,-0.026739900931715965,-0.6553297638893127,0.19499686360359192,0
199,1990096,-0.021173834800720215,0.06142061576247215,-1.0157911777496338,0.9656360745429993,-0.7695159912109375,-0.9803320169448853,29.73223304748535,-10.82288646697998,40.35887145996094,-0.2210518717765808,1.4685499668121338,-1.1701627969741821,-1.0013020038604736,-0.07789139449596405,2.2774574756622314,-0.29084011912345886,0.9309850931167603,0.17213965952396393,-1.1332215070724487,-0.3036710023880005,-0.8376724123954773,0.14327068626880646,1.3113361597061157,0.37464866042137146,0
200,1999929,0.00749293714761734,0.010718985460698605,-0.9959506988525391,-0.5864622592926025,-0.026673519983887672,0.9809755086898804,29.206899642944336,-9.133830070495605,38.81493377685547,0.48925551772117615,0.4424026310443878,0.07142934203147888,-0.5303266048431396,-0.12712892889976501,-0.016948718577623367,-0.07417043298482895,-1.0025054216384888,2.291033983230591,-0.4957708418369293,0.13626649975776672,0.16426487267017365,-0.1966099739074707,-0.7714552283287048,0.15442213416099548,0
201,2009951,-0.03014994040131569,0.06893734633922577,-0.9778938293457031,-0.21656951308250427,-0.3083752691745758,0.3215668201446533,30.769664764404297,-9.377724647521973,39.659889221191406,-0.6109641194343567,0.48184388875961304,0.8527708649635315,-1.8158618211746216,0.4800497591495514,0.7760023474693298,0.011448360048234463,2.2693023681640625,0.5599014163017273,0.07918861508369446,-0.36762723326683044,0.8908681273460388,-1.3709527254104614,0.06297328323125839,-2.3142688274383545,0
202,2020041,-0.005756983067840338,-0.07611357420682907,-0.9999100565910339,0.7002900838851929,-0.4948936998844147,0.369174063205719,29.926551818847656,-9.476889610290527,39.5556526184082,0.6026630401611328,-1.3055589199066162,0.457028865814209,1.1379659175872803,-0.5549948215484619,0.2597719728946686,0.9929759502410889,-2.3421623706817627,0.6396664381027222,0.6354198455810547,-1.5748882293701172,-0.9732698798179626,0.34142544865608215,-1.1539459228515625,0.38655319809913635,0
203,2030001,0.08940006792545319,0.07540994882583618,-1.0223476886749268,-0.22791430354118347,0.2854146957397461,0.76822429895401,30.482179641723633,-9.569711685180664,40.956809997558594,0.17527000606060028,1.276593565940857,0.5195047855377197,0.7379458546638489,-0.4028328061103821,-0.8519372344017029,1.2478225231170654,-0.23737451434135437,-0.6985617280006409,0.6644406318664551,-1.8552900552749634,-1.8052136898040771,-1.8264095783233643,0.8714374303817749,-0.03414183482527733,0
204,2039958,-0.0029075697530061007,-0.060150351375341415,-0.9712146520614624,0.0837232917547226,0.3947400152683258,0.1539449840784073,29.692378997802734,-8.43553638458252,38.32626724243164,0.873810350894928,0.7566892504692078,-0.6780036687850952,0.9843535423278809,-0.031793151050806046,0.6679103374481201,-0.6878818273544312,1.0167441368103027,0.11329534649848938,0.8217666745185852,-0.9181557297706604,1.0097291469573975,1.6356483697891235,-0.8327186703681946,-1.4885753393173218,0
205,2050049,-0.026912512257695198,-0.02764163352549076,-0.9805123805999756,0.8033420443534851,1.5953384637832642,-0.16619616746902466,29.65769386291504,-9.576135635375977,39.615501403808594,1.6299993991851807,-0.1274203658103943,-0.6664396524429321,-2.608577251434326,0.12251538038253784,-1.5926989316940308,-2.699796676635742,-0.6994993686676025,1.065629243850708,-0.10735214501619339,0.2603699266910553,0.012596475891768932,-0.6163825988769531,-0.48625651001930237,1.6116780042648315,0
206,2059946,-0.029404090717434883,-0.018548717722296715,-0.9906865954399109,-0.5777149796485901,0.21709167957305908,0.667129397392273,29.375831604003906,-10.157818794250488,40.43402862548828,0.3699873983860016,0.2260199785232544,1.238077998161316,0.04706892743706703,-0.5371763706207275,-0.10565190762281418,-1.0787855386734009,1.238858938217163,2.7253453731536865,0.16331201791763306,1.6114858388900757,-0.6286117434501648,0.7746570706367493,-0.3023378551006317,0.041559167206287384,0
207,2070195,-0.003682160284370184,-0.04163695499300957,-1.0059237480163574,1.0799455642700195,-0.5252728462219238,-0.04817959666252136,31.09798812866211,-11.028082847595215,40.505558013916016,0.4701472818851471,-1.086235761642456,-1.0176732540130615,0.8317626714706421,-0.8884713649749756,-1.1150726079940796,0.7271773219108582,-1.4675381183624268,1.2381350994110107,0.39805519580841064,-0.7408867478370667,-0.06725532561540604,-0.6693266034126282,-1.355147123336792,0.6615890264511108,0
208,2080069,-0.043303702026605606,-0.016189968213438988,-1.0074228048324585,-0.7564431428909302,1.2140735387802124,-0.18190307915210724,30.56227684020996,-9.590603828430176,39.535125732421875,-0.43895524740219116,-0.016042154282331467,-1.3135298490524292,1.0815956592559814,-0.3259187936782837,-0.04385967180132866,0.31161198019981384,0.048799190670251846,-1.0086321830749512,0.06015951931476593,-0.26205113530158997,1.3518385887145996,0.1373918205499649,-0.6664196252822876,0.22800485789775848,0
209,2090065,-0.06829626858234406,-0.016048874706029892,-1.0110503435134888,0.40974995493888855,-0.3439359962940216,-0.4740527272224426,28.455379486083984,-9.77175235748291,41.107582092285156,-0.5094882845878601,0.4639478325843811,0.058183975517749786,-0.3358708322048187,0.0087580606341362,0.29338380694389343,0.7728263139724731,-1.0274032354354858,-0.8526378870010376,0.7193872928619385,-1.264355182647705,1.3766403198242188,-0.4366157650947571,1.0822498798370361,0.037194009870290756,0
210,2099922,0.05512399226427078,0.11709500849246979,-0.9927785992622375,0.6913889050483704,0.8452760577201843,-0.279887855052948,31.39121437072754,-11.266338348388672,39.52893829345703,0.850627064704895,0.7000254392623901,0.26830753684043884,-0.3240565061569214,0.06622274219989777,-0.7757416367530823,0.9641381502151489,0.35140863060951233,1.8715579509735107,-0.22854728996753693,-0.6757301688194275,0.4391311705112457,0.2549264132976532,-0.039205264300107956,-0.22425781190395355,0
211,2109644,0.07057737559080124,0.04697354882955551,-0.9758406281471252,0.16128364205360413,-0.4669177830219269,0.07703626900911331,27.891969680786133,-10.380724906921387,39.63877487182617,0.5661014318466187,1.1605274677276611,-0.6763243675231934,-0.5767309069633484,-0.9954419136047363,0.6615979671478271,1.0623855590820312,0.7323936820030212,1.0483630895614624,1.0426864624023438,2.014803886413574,1.04049813747406,0.6698705554008484,-0.1748465895652771,1.3684056997299194,0
212,2120090,0.005338974297046661,0.046607621014118195,-0.9947272539138794,-0.5354313254356384,0.1822437047958374,0.11740291118621826,29.931575775146484,-9.0790433883667,39.61054229736328,2.7083394527435303,0.3698912560939789,-1.1708630323410034,-0.43906477093696594,-0.8254528641700745,0.6370697617530823,-0.22732464969158173,1.2745208740234375,0.013813689351081848,0.8697854280471802,2.1925883293151855,0.9559361338615417,1.2573446035385132,0.6528969407081604,1.2238775491714478,0
213,2129916,0.013191659934818745,-0.01193244382739067,-1.018380880355835,0.37831318378448486,0.5742976069450378,0.6786161065101624,30.20125389099121,-10.508612632751465,39.62083435058594,0.031119465827941895,-1.22760808467865,-2.4897170066833496,0.3239123523235321,0.29342004656791687,0.46014586091041565,0.31856250762939453,-0.7589589357376099,-1.4750351905822754,0.30644744634628296,0.6599173545837402,0.37212300300598145,0.2040386199951172,0.6562291979789734,-1.2970837354660034,0
214,2140044,-0.02891453541815281,-0.019077913835644722,-0.9838057160377502,0.01860027015209198,-0.20090031623840332,0.8828014731407166,31.10484504699707,-10.126468658447266,39.72249221801758,2.419334650039673,0.016784990206360817,0.8271040916442871,0.6505333781242371,-2.119894027709961,2.369495153427124,1.0358599424362183,0.7744020223617554,1.8384231328964233,0.4876040518283844,0.4025573134422302,0.8461486101150513,1.1326117515563965,-0.910663902759552,0.7120353579521179,0
215,2150004,0.02254098653793335,-0.07141129672527313,-0.990091860294342,0.6412560939788818,0.2907216548919678,0.4609789550304413,30.162755966186523,-9.376789093017578,40.919212341308594,-0.39804428815841675,0.05755767598748207,0.3574884831905365,-0.5311185717582703,-0.7915069460868835,-0.30594727396965027,-1.2670685052871704,1.1476242542266846,0.21900790929794312,0.8563661575317383,1.320700764656067,0.6792631149291992,0.7681530714035034,-1.4826653003692627,-0.03214782476425171,0
216,2160179,-0.054114025086164474,0.002181394724175334,-0.9885333776473999,-0.06769637763500214,0.279480904340744,0.2552112340927124,30.656225204467773,-10.642824172973633,38.18778991699219,-0.6054112911224365,-1.6817586421966553,0.9424964189529419,0.22525618970394135,-0.8210210800170898,-0.7387958765029907,0.7815274000167847,0.1883329153060913,1.0261821746826172,0.6613833904266357,-0.8959376811981201,-0.07285213470458984,0.7327648997306824,1.2714874744415283,0.9141618013381958,0
217,2169883,0.09054458886384964,-0.030128180980682373,-0.9865601062774658,0.039106182754039764,-0.23363499343395233,0.7841178774833679,31.354957580566406,-10.92181396484375,39.309688568115234,1.0441888570785522,-0.2696545720100403,0.3971509039402008,-0.649394690990448,-0.9083229899406433,0.11584523320198059,0.009118122979998589,0.4806648790836334,0.49070852994918823,0.7137255668640137,0.3122708201408386,1.0238276720046997,1.3307799100875854,-0.19019253551959991,-0.7597895264625549,0
218,2180091,-0.03068004921078682,0.03252881392836571,-0.9928895831108093,-0.42234018445014954,-0.7197521924972534,-0.436271995306015,30.47017478942871,-9.8129243850708,39.696842193603516,0.19149567186832428,0.6950768828392029,0.5865768790245056,-0.7591391205787659,0.5823686718940735,0.996833324432373,-0.36748844385147095,1.0995410680770874,0.23060853779315948,0.7581084370613098,-0.5068953037261963,0.2616365849971771,1.9833124876022339,0.21181872487068176,-1.0100724697113037,0
219,2190164,0.04959520697593689,0.010953071527183056,-0.9794278740882874,-0.3693161606788635,-0.42797407507896423,0.16847234964370728,28.625730514526367,-10.697418212890625,41.31668472290039,1.04758882522583,-0.006612418685108423,1.4500352144241333,1.0127609968185425,0.07368908077478409,0.4163912236690521,0.8401769995689392,0.012269445694983006,0.5563226342201233,-0.373137891292572,-1.9692199230194092,0.12509343028068542,1.6826598644256592,0.11203694343566895,-0.5206534266471863,0
220,2200071,-0.018793174996972084,0.05025046691298485,-0.9732407927513123,-0.012423058971762657,0.23134644329547882,-0.061782870441675186,28.7344970703125,-10.583609580993652,40.049442291259766,1.9790290594100952,-0.16677089035511017,-0.7733168005943298,-0.42915424704551697,-0.33627384901046753,0.18020597100257874,-0.5447364449501038,2.254276990890503,1.7083463668823242,0.7881589531898499,-0.3211647868156433,-0.027781382203102112,1.0800373554229736,-1.7828227281570435,0.21533727645874023,0
221,2210123,0.027208462357521057,-0.004978947341442108,-1.000591516494751,-0.8857918977737427,0.25407546758651733,0.6740849018096924,30.723411560058594,-10.355874061584473,39.955448150634766,0.05844350904226303,-0.012793057598173618,0.5832312703132629,0.858730673789978,-1.3733774423599243,0.7146265506744385,0.42884770035743713,0.9662863612174988,-0.39228329062461853,1.3148568868637085,2.072953462600708,-1.0601216554641724,0.49566829204559326,-1.1867632865905762,0.893945574760437,0
222,2219986,-0.09186752885580063,0.052905790507793427,-1.0029280185699463,0.5704391598701477,0.3894118070602417,0.6175675392150879,28.225387573242188,-10.002256393432617,38.67763137817383,-0.8918924331665039,0.35469579696655273,2.6894803047180176,-1.2564765214920044,-2.991464376449585,1.0003681182861328,-0.48203083872795105,0.06019003689289093,-0.4073861837387085,-0.6242849826812744,-0.26798582077026367,-0.9406519532203674,0.18236276507377625,0.7293182015419006,-1.8383665084838867,0
223,2229941,-0.05830330401659012,-0.014148611575365067,-0.9851295948028564,0.30406129360198975,-0.2814582884311676,0.8808693885803223,29.57623291015625,-10.708245277404785,41.3337287902832,0.8346430659294128,-1.154541254043579,-0.5428388118743896,0.02541024051606655,0.23330822587013245,0.027248099446296692,0.5612361431121826,0.484774112701416,1.2080161571502686,0.8118826746940613,-0.09109324216842651,0.07269463688135147,1.3437645435333252,1.3542485237121582,-1.3245258331298828,0
224,2239723,-0.05762949958443642,0.009974638000130653,-0.9946424961090088,0.4429239332675934,-0.4674732983112335,0.07607296109199524,29.052845001220703,-9.569018363952637,41.74946212768555,-0.20554284751415253,-2.471673011779785,-0.8705272078514099,1.0163986682891846,0.027424631640315056,2.031329870223999,-1.1669772863388062,1.5649182796478271,-0.08390513807535172,-1.5485342741012573,-3.18387770652771,0.581273078918457,0.14256775379180908,-0.2629668116569519,-0.17912127077579498,0
225,2250117,0.054120030254125595,-0.044185612350702286,-1.0147870779037476,0.4668494462966919,0.1608397513628006,-0.682327389717102,29.45686149597168,-8.738648414611816,40.25780487060547,1.2570804357528687,1.029262900352478,0.9029249548912048,-0.3532811105251312,0.45539483428001404,-0.3413170874118805,0.9942259192466736,0.3523024022579193,-0.21223390102386475,0.39279305934906006,0.7331335544586182,0.870221734046936,1.526756763458252,-0.08565425872802734,-1.284814715385437,0
226,2259944,1.4094808648223989e-05,-0.011274617165327072,-1.010768175125122,0.038080908358097076,-0.09133020043373108,0.46016284823417664,30.844148635864258,-10.648173332214355,39.71247100830078,0.4556467831134796,-1.9575998783111572,-0.9650450944900513,0.675446629524231,2.0426502227783203,-0.2677886486053467,0.19109955430030823,0.37804147601127625,0.9638478755950928,0.15413595736026764,0.08832366019487381,-0.642288327217102,-0.5494189858436584,0.18536502122879028,-0.5472342371940613,0
227,2270055,0.035122957080602646,0.03086126036942005,-1.0157488584518433,-0.17803047597408295,1.1844720840454102,-0.6343950629234314,29.96661376953125,-9.307658195495605,38.88017272949219,0.9162039160728455,1.1359388828277588,0.23300360143184662,-1.030892014503479,0.6692222952842712,1.509145975112915,0.5867242217063904,0.8859395384788513,-1.546030879020691,-0.48359715938568115,-0.9496526718139648,1.2595081329345703,-1.5912432670593262,-0.38673287630081177,-0.2816033959388733,0
228,2279969,-0.05067966505885124,-0.012971851974725723,-1.000821828842163,0.2100042998790741,-0.5139198303222656,0.0950944721698761,30.35814666748047,-10.469596862792969,41.32474136352539,0.30747517943382263,-0.49453699588775635,1.5359700918197632,-0.7374187707901001,-0.08681666851043701,0.8942387700080872,0.13625504076480865,-2.3672196865081787,-2.269608974456787,1.7121208906173706,-0.4129321873188019,0.12052968144416809,0.6147122979164124,1.2049322128295898,1.4452024698257446,0
229,2290343,0.059543319046497345,-0.07511724531650543,-0.9742341041564941,0.6634364128112793,0.23426027595996857,0.012979790568351746,29.793764114379883,-10.165884017944336,39.36644744873047,-1.5706602334976196,-0.15071745216846466,-0.4260782301425934,-0.17902342975139618,-0.9916291832923889,0.22841839492321014,0.26085928082466125,-1.299314022064209,-0.978066086769104,0.25357791781425476,-0.7306829690933228,-0.4060748815536499,0.5521913170814514,-0.40686824917793274,-0.3391498625278473,0
230,2299809,0.055590029805898666,-0.04573056474328041,-1.0198885202407837,0.014128421433269978,0.6410070657730103,0.12188100814819336,29.391773223876953,-9.627691268920898,41.701908111572266,0.7682564854621887,0.08945456892251968,-1.127669095993042,-0.6958682537078857,0.11609963327646255,-0.07849451899528503,-0.16849146783351898,0.7918041348457336,0.5997660160064697,-2.766888380050659,-0.1210041269659996,0.2814248502254486,-0.2836591601371765,0.9373681545257568,1.096794605255127,0
231,2310062,-0.0675005316734314,0.0015601065242663026,-0.951819658279419,-0.42960187792778015,0.7706369161605835,0.11032107472419739,30.746841430664062,-9.500935554504395,39.72685241699219,-0.7499451637268066,0.10140244662761688,-0.701703667640686,0.00571947917342186,-0.11876492202281952,0.9307387471199036,0.06037174165248871,-0.1642468124628067,0.8987902998924255,-0.03728081285953522,0.2186717540025711,0.984526515007019,0.05246387794613838,-0.8920056819915771,-0.5602485537528992,0
232,2320102,0.041671860963106155,-0.004535185173153877,-0.9894762635231018,-0.35807427763938904,-0.4520552158355713,-0.37187594175338745,28.52885627746582,-10.548270225524902,39.62150955200195,-0.6019479632377625,-0.2606521546840668,-0.11389224976301193,0.04753054305911064,0.5039128065109253,-0.3987634778022766,-1.1321015357971191,-0.9022232890129089,0.29354187846183777,0.6451273560523987,0.4570969343185425,1.0088356733322144,-0.1809411495923996,0.0493093803524971,-0.15054509043693542,0
233,2330205,0.008522121235728264,-0.09418793022632599,-1.0089114904403687,0.7495342493057251,0.2848716080188751,-0.056206345558166504,30.380252838134766,-11.058635711669922,39.0352897644043,0.7340822815895081,-0.8992573618888855,-0.6781820058822632,0.5013457536697388,0.8221744894981384,-0.4174647033214569,1.6153087615966797,-1.9458425045013428,0.6373165249824524,1.616935133934021,-1.5803422927856445,0.8327078223228455,-0.18088464438915253,1.2865023612976074,-0.8843896985054016,0
234,2340041,0.03936696797609329,-0.09959330409765244,-0.9920744299888611,-0.03931213170289993,0.2206471711397171,-0.25117674469947815,29.435569763183594,-10.909184455871582,40.10517501831055,-1.0902798175811768,-0.4336515963077545,-0.6652504801750183,-1.192924976348877,0.3398864269256592,0.8382914066314697,-1.0241400003433228,-0.42401736974716187,0.12735462188720703,-1.1757609844207764,1.0004258155822754,1.2162010669708252,-0.33340737223625183,0.08691658079624176,-1.5184880495071411,0
235,2349952,-0.008753158152103424,0.010003424249589443,-0.9940189123153687,-0.1366371363401413,0.7179804444313049,-0.35502588748931885,30.733016967773438,-9.400711059570312,40.602291107177734,0.1649799942970276,-0.32209622859954834,0.8979477882385254,-0.5162642598152161,0.4004511535167694,-0.30822286009788513,1.8372691869735718,-0.06314283609390259,0.04429657757282257,0.10239605605602264,0.17721837759017944,0.7231595516204834,-0.02992349863052368,0.014723783358931541,-0.3741476535797119,0
236,2359997,-0.08079114556312561,-0.005228085443377495,-1.0179071426391602,0.8383547067642212,0.5266557931900024,0.5552794337272644,31.168792724609375,-10.475464820861816,40.85330581665039,0.42296281456947327,0.16098006069660187,0.7688871026039124,-1.1289445161819458,-0.4025338888168335,-0.04183349758386612,1.0759704113006592,-0.32647180557250977,1.1050281524658203,-0.554793119430542,0.6153236627578735,-1.322111964225769,2.12302565574646,0.5610646605491638,-1.0526514053344727,0
237,2370132,-0.03229972720146179,-0.09955748915672302,-0.9677446484565735,-0.059706609696149826,0.007538209203630686,0.6853832006454468,29.81709098815918,-7.763594150543213,39.55303192138672,0.7097530364990234,0.02581736072897911,-0.8095337748527527,-0.4686551094055176,0.9200772643089294,1.3007692098617554,-0.7383973002433777,1.0155531167984009,-0.6015637516975403,0.33429667353630066,-0.3079349994659424,-2.1644809246063232,-0.95237797498703,0.17675833404064178,0.22637410461902618,0
238,2379834,0.07199623435735703,-0.010987538844347,-1.0532904863357544,-0.2588009536266327,0.31497856974601746,0.45541831851005554,31.22102928161621,-10.015484809875488,38.55615234375,0.5370511412620544,-0.646767795085907,1.2290281057357788,-0.4969779849052429,-0.6176501512527466,0.37948673963546753,0.6160203814506531,-0.05683423578739166,-0.6059494614601135,0.665355384349823,0.2652585506439209,-0.8903332948684692,-0.7665289640426636,0.9623894691467285,1.6163767576217651,0
239,2390116,0.03167957812547684,-0.08158276230096817,-0.9745426774024963,-0.32202908396720886,-0.39870649576187134,0.4586714506149292,29.436296463012695,-8.881508827209473,40.15168380737305,1.0131064653396606,-1.165001630783081,0.11857186257839203,0.5890547633171082,0.3699699640274048,-0.4350869059562683,-1.3395191431045532,-0.20577697455883026,-0.1482994258403778,0.5398935079574585,-0.43663737177848816,1.0885423421859741,1.6668123006820679,-0.2654917538166046,-0.4661773145198822,0
240,2399873,0.014323845505714417,0.032691631466150284,-1.0276528596878052,0.15322501957416534,-0.4051240086555481,-0.5719791054725647,29.361196517944336,-10.886724472045898,41.912811279296875,2.257695198059082,0.28540274500846863,-0.016590069979429245,-0.4624587595462799,1.5785590410232544,-0.6646407842636108,-0.01921503059566021,-1.2815059423446655,-0.6951503753662109,-0.48565831780433655,0.5488793849945068,-0.4199853241443634,0.5803825855255127,-2.4255542755126953,0.5289562344551086,0
241,2410094,-0.030690936371684074,-0.002010446274653077,-1.0070544481277466,-0.6516886949539185,0.14129865169525146,0.23703405261039734,30.473072052001953,-11.799225807189941,43.36479187011719,-0.07385919243097305,-0.7019079327583313,-1.8349368572235107,-1.4915447235107422,-1.3891174793243408,-0.7786452770233154,-0.8011631965637207,0.0827254131436348,-0.15619680285453796,-0.40321290493011475,-0.998965322971344,-0.883717954158783,-0.6144494414329529,-0.24985653162002563,-0.41541019082069397,0
242,2420105,-0.07972436398267746,-0.038078468292951584,-0.9845161437988281,0.5820541381835938,0.7667161822319031,0.4433351457118988,29.794687271118164,-11.747103691101074,41.65359115600586,1.672848105430603,0.6299405694007874,0.682416558265686,-0.767003059387207,-0.06180795282125473,0.5236970782279968,0.8997032642364502,-2.224215507507324,0.4505847096443176,0.7041423916816711,-2.332003116607666,1.0864174365997314,-0.4267728924751282,-0.24120210111141205,2.079921245574951,0
243,2430076,0.03082071617245674,0.007409391924738884,-1.038932204246521,-0.2665775418281555,0.4500821828842163,0.07233521342277527,28.26309585571289,-9.000920295715332,39.959251403808594,1.6915209293365479,-0.48030886054039,0.9560564756393433,-0.5319756269454956,0.5882604718208313,-0.07607246935367584,-0.23778140544891357,-0.5043458342552185,-1.3059279918670654,3.2404086589813232,-0.6901187896728516,-0.6401653289794922,-1.1298816204071045,-0.48797935247421265,-0.21362945437431335,0
244,2439882,-0.029415825381875038,-0.0906178429722786,-0.9999126195907593,0.952960729598999,0.1863858550786972,-0.5545063018798828,27.99275016784668,-11.367355346679688,39.90885543823242,-1.239329218864441,0.14110633730888367,2.2412359714508057,-0.7667106986045837,0.46594613790512085,0.568556010723114,-1.1228512525558472,0.9303783774375916,-0.9889248609542847,0.019961120560765266,0.8372921347618103,0.9788239598274231,0.3107357323169708,1.420830249786377,-1.0328108072280884,0
245,2449988,-0.0856243371963501,-0.036683835089206696,-0.9873955249786377,-0.1429373174905777,-0.13341499865055084,-0.39824992418289185,31.391216278076172,-8.759295463562012,41.47238540649414,1.7973634004592896,0.320671945810318,0.6929200887680054,2.306384563446045,-1.545249104499817,-0.04220624640583992,-0.18598556518554688,0.4749355912208557,-0.9060055017471313,-0.8368253111839294,-1.3904170989990234,-0.5224133133888245,-0.07318402081727982,-0.7040426135063171,0.3753446340560913,0
246,2460007,0.012448200955986977,0.019070584326982498,-0.992859423160553,-0.9706709384918213,0.149196058511734,-0.8338196277618408,29.776090621948242,-12.58389949798584,38.918853759765625,-2.0203137397766113,0.011407073587179184,0.9015969634056091,-1.3840653896331787,0.26321113109588623,-1.1177054643630981,-0.45147937536239624,1.59958815574646,-0.84876549243927,-0.4097612798213959,-0.4342573583126068,1.5339127779006958,-0.3594897389411926,-1.2240259647369385,0.8366131782531738,0
