seq,time_us,ax,ay,az,gx,gy,gz,mx,my,mz,drop_flag
0,28,0.04951808974146843,0.0033226939849555492,-0.9935228824615479,0.3350268006324768,0.5919104218482971,0.7037816643714905,31.29330825805664,-10.007000923156738,40.11351013183594,0
1,9964,0.06897097826004028,0.04653102532029152,-0.9830950498580933,-0.4838581681251526,-0.07956510037183762,0.647749125957489,30.669830322265625,-8.26668930053711,39.74470520019531,0
2,19895,0.03906041383743286,0.07291410863399506,-0.9886309504508972,-0.03968874737620354,1.1507469415664673,0.18601536750793457,31.600677490234375,-10.099940299987793,39.53065490722656,0
3,29828,-0.022592145949602127,-0.038022320717573166,-1.011922001838684,0.28640058636665344,0.26085829734802246,0.1615343689918518,30.93581199645996,-10.634074211120605,39.12400817871094,0
4,39787,0.04714757949113846,0.05265602096915245,-1.0049002170562744,0.44046398997306824,0.18550321459770203,0.46059414744377136,29.83267593383789,-9.190330505371094,39.87669372558594,0
5,49879,0.029704421758651733,0.0630035549402237,-1.0367305278778076,0.25256288051605225,0.28991571068763733,0.04809797555208206,28.25497817993164,-10.961524963378906,40.64872741699219,0
6,59929,1.7379225027980283e-05,0.04847361519932747,-0.9887053370475769,-0.6879419088363647,0.7591512203216553,0.0666641816496849,29.524362564086914,-8.071539878845215,40.43425750732422,0
7,69743,0.007456384599208832,0.0008465534774586558,-1.0101741552352905,0.35637447237968445,0.3412073254585266,-0.4901712238788605,30.231605529785156,-10.951208114624023,39.731224060058594,0
8,80203,-0.05854232236742973,-0.04574891924858093,-1.0076780319213867,0.6207219362258911,0.3206011652946472,0.8707022070884705,31.2486515045166,-10.671029090881348,39.455665588378906,0
9,89904,0.04127376154065132,0.12135469913482666,-1.0184557437896729,-0.8392553925514221,-0.9297186732292175,0.08098484575748444,28.39095687866211,-12.803915977478027,38.87480926513672,0
10,100241,-0.07406041026115417,0.10108160227537155,-0.988440752029419,0.5932482481002808,-0.248589426279068,-0.1993853747844696,29.40603256225586,-9.720829963684082,41.6099853515625,0
11,109815,0.014620772562921047,-0.10496807098388672,-1.002439022064209,-0.1860489398241043,-0.4354775547981262,-0.17661140859127045,28.426044464111328,-7.760732650756836,41.195350646972656,0
12,120057,0.04080923646688461,-0.05359236150979996,-1.0150957107543945,-0.01769731193780899,0.16117583215236664,-0.11963170766830444,29.987871170043945,-9.50797176361084,39.43603515625,0
13,130233,0.024056842550635338,0.026611626148223877,-0.9948415756225586,-0.17260675132274628,0.13814301788806915,0.4045439660549164,28.98909568786621,-7.793362617492676,40.0332145690918,0
14,139962,-0.01755705289542675,0.13109713792800903,-1.0023468732833862,-0.9163260459899902,0.2791444659233093,-0.22813567519187927,30.310482025146484,-10.571769714355469,39.13072204589844,0
15,150187,0.03601355850696564,-0.017798852175474167,-1.0350580215454102,0.19866126775741577,-0.22658872604370117,0.25876039266586304,30.235227584838867,-9.845979690551758,39.56691360473633,0
16,159952,0.02705751545727253,-0.03098294883966446,-0.9831656217575073,0.14019641280174255,-0.11320199072360992,0.26743486523628235,29.078508377075195,-11.562153816223145,40.30622482299805,0
17,169911,0.00707363011315465,0.09814447164535522,-1.0180813074111938,-0.030717242509126663,-0.12357185035943985,-0.3319743573665619,30.076696395874023,-9.610774993896484,39.34391784667969,0
18,179790,0.00675602350383997,-0.011684207245707512,-1.0156707763671875,1.3367094993591309,-0.6524731516838074,-0.17521215975284576,30.116121292114258,-9.817132949829102,40.01083755493164,0
19,190085,0.0009888065978884697,-0.03424074128270149,-0.9884286522865295,0.5826560854911804,0.5075653791427612,-0.33397606015205383,30.562170028686523,-10.295372009277344,40.78563690185547,0
20,200129,-0.02404763549566269,0.08256716281175613,-1.010649561882019,-0.008871074765920639,0.158881276845932,-0.12353812158107758,32.19287872314453,-9.28010082244873,39.080623626708984,0
21,210136,0.12754477560520172,0.07040879130363464,-1.0008544921875,0.367238312959671,-0.16845284402370453,-0.4187769591808319,29.96963119506836,-9.66096305847168,41.643951416015625,0
22,220042,0.050948020070791245,-0.10342633724212646,-1.0209157466888428,-0.13934828341007233,-0.02858349122107029,-0.1410408765077591,29.880367279052734,-9.70659351348877,40.14189529418945,0
23,229965,-0.007072293199598789,0.07544972747564316,-1.015398383140564,0.6950657367706299,-0.05133477598428726,0.7904152274131775,30.984434127807617,-9.29411506652832,39.404354095458984,0
24,239807,0.0035726099740713835,-0.025073818862438202,-0.9796033501625061,0.19004854559898376,-0.1867031753063202,-0.2025037258863449,30.821212768554688,-11.381340026855469,40.859676361083984,0
25,249934,0.08205174654722214,0.03923788666725159,-1.0085780620574951,-0.1367645412683487,0.6467956304550171,0.3537357449531555,30.110395431518555,-10.075358390808105,39.64109420776367,0
26,260015,-0.009041785262525082,-0.10119771957397461,-0.9955017566680908,0.5674189925193787,-0.4459795355796814,0.02330559864640236,29.37952423095703,-10.439663887023926,39.543270111083984,0
27,269991,0.0979689285159111,-0.04258091747760773,-0.988556444644928,-0.6464160680770874,-0.685403048992157,-0.4781460165977478,31.000837326049805,-8.565323829650879,40.32383728027344,0
28,279889,0.03567846119403839,0.01748240366578102,-1.0154733657836914,0.19218482077121735,0.15870580077171326,-0.3300861716270447,29.701251983642578,-8.523948669433594,40.39708709716797,0
29,290302,0.05399153381586075,0.04157256707549095,-0.9654943346977234,-0.6709578633308411,-1.0202081203460693,0.00225043180398643,29.854097366333008,-10.692538261413574,40.309776306152344,0
30,299819,0.023843539878726006,0.06893827766180038,-0.9914709329605103,0.2331124246120453,-0.2840426564216614,-0.6986525058746338,29.04195213317871,-8.967989921569824,38.3565788269043,0
31,310110,0.002606386784464121,-0.03327491506934166,-1.0018852949142456,-0.1696763038635254,-0.2949415147304535,0.19769008457660675,30.533472061157227,-13.04602336883545,39.26618576049805,0
32,320102,0.008376035839319229,0.022829940542578697,-1.0064045190811157,-0.48955586552619934,0.6000099182128906,-0.320641428232193,29.93002700805664,-8.68332576751709,41.21866226196289,0
33,330072,-0.007661546114832163,0.08560891449451447,-1.0264315605163574,-0.14040111005306244,0.5190370082855225,-1.1986745595932007,29.902923583984375,-11.102977752685547,39.00174331665039,0
34,340098,-0.02779894694685936,0.005340471398085356,-1.0030452013015747,0.6999289393424988,0.3140946626663208,0.7923881411552429,29.99040985107422,-10.574647903442383,39.54443359375,0
35,349942,-0.01442322600632906,-0.005575447343289852,-1.0100634098052979,0.4664362370967865,-0.9000996351242065,-0.9940553903579712,30.985925674438477,-9.855265617370605,42.17226791381836,0
36,359938,0.02541116438806057,0.07271995395421982,-0.9917653203010559,-0.9283604025840759,-0.41294294595718384,-0.19505897164344788,30.886091232299805,-7.390936851501465,38.694000244140625,0
37,369838,-0.000341961596859619,-0.00512760691344738,-0.9816659092903137,-0.2049039602279663,-0.4706558585166931,-0.4404841661453247,30.719417572021484,-10.645076751708984,39.09673309326172,0
38,380299,0.07696155458688736,-0.10251690447330475,-1.019445538520813,0.5766886472702026,-0.796013355255127,-0.07136940956115723,30.78807258605957,-8.714930534362793,39.400211334228516,0
39,389958,0.021247025579214096,-0.021219000220298767,-1.0048973560333252,0.5870134830474854,0.15238676965236664,0.018210528418421745,28.868478775024414,-8.381417274475098,41.23929214477539,0
40,399842,-0.06129439175128937,-0.009620580822229385,-1.0043258666992188,0.20188486576080322,0.14492793381214142,0.24916531145572662,29.050601959228516,-10.45081615447998,40.87076950073242,0
41,410073,-0.07583758234977722,-0.06753458827733994,-0.9902428388595581,-0.39585840702056885,-0.4786970913410187,0.43225839734077454,28.588987350463867,-9.450396537780762,39.54537582397461,0
42,419882,0.027851957827806473,-0.02335374429821968,-1.0212044715881348,0.09830215573310852,0.0970081090927124,1.1612111330032349,30.01584243774414,-10.497539520263672,40.20560073852539,0
43,429941,0.00394466333091259,0.07361321151256561,-0.979345440864563,0.7933710813522339,-0.5307429432868958,0.04332961514592171,29.408706665039062,-9.442728996276855,38.3255500793457,0
44,439971,0.05372537672519684,-0.043805401772260666,-1.0302094221115112,-0.5353474617004395,0.49648284912109375,0.33163678646087646,31.45029640197754,-11.62368392944336,40.88382339477539,0
45,450078,0.03387133404612541,0.09665314853191376,-1.0243752002716064,-0.10633543878793716,1.0106239318847656,0.07488112151622772,28.964004516601562,-9.843564987182617,41.06260299682617,0
46,460000,0.07074552029371262,0.11806748807430267,-1.0064632892608643,0.39660558104515076,0.5083673596382141,0.8653119206428528,30.887121200561523,-12.04493236541748,39.71734619140625,0
47,469934,-0.01682053506374359,0.07705378532409668,-0.9668877124786377,0.45362213253974915,-0.07589402794837952,-0.8441733121871948,29.770227432250977,-9.070032119750977,37.34626770019531,0
48,480104,-0.0735260471701622,-0.03709184378385544,-1.0102901458740234,-0.37974926829338074,-0.33397120237350464,0.6817463040351868,28.988445281982422,-9.952651023864746,38.01982116699219,0
49,490166,-0.07470586150884628,0.09856463223695755,-1.0403143167495728,-0.21105344593524933,0.4223295748233795,0.4078983664512634,30.426856994628906,-9.69174861907959,40.46882629394531,0
50,500051,0.02317705564200878,0.06467396020889282,-1.0085827112197876,-0.689205527305603,-0.6848934888839722,-1.1242586374282837,30.156963348388672,-9.647103309631348,39.6933708190918,0
51,509908,-0.10643289983272552,-0.09225398302078247,-1.0368822813034058,-0.06500823050737381,0.1441206932067871,0.1939629465341568,30.44186782836914,-10.77989387512207,39.52193069458008,0
52,519981,-0.06035015359520912,-0.004059661645442247,-0.9659168720245361,-0.40333765745162964,0.2261570394039154,0.40271440148353577,30.12510108947754,-10.383962631225586,40.57201385498047,0
53,530138,0.007670479826629162,-0.005447355564683676,-0.9917682409286499,0.12185072898864746,-0.6196144223213196,-0.7739751935005188,30.721776962280273,-10.46711254119873,41.293678283691406,0
54,539992,-0.00562009634450078,0.014032356441020966,-1.0001862049102783,0.014615170657634735,0.4284611642360687,0.14507736265659332,29.85990333557129,-10.217196464538574,41.42829895019531,0
55,549881,-0.009701850824058056,-0.029123583808541298,-1.023159146308899,0.15891984105110168,-0.19519005715847015,0.44713273644447327,30.841991424560547,-11.307046890258789,40.778568267822266,0
56,559905,0.005860819946974516,-0.038499265909194946,-0.987756073474884,0.1809891313314438,0.05640983581542969,0.1727237105369568,30.789575576782227,-9.707538604736328,42.328861236572266,0
57,569835,-0.0040677995420992374,-0.025191400200128555,-0.9889076948165894,0.5510448813438416,-0.6889822483062744,-0.24615958333015442,30.200897216796875,-8.933032035827637,39.064937591552734,0
58,580274,0.012027493678033352,-0.025008874014019966,-0.9908761382102966,0.8223299980163574,-0.5532042980194092,0.047072358429431915,30.016740798950195,-9.676642417907715,41.863067626953125,0
59,589988,0.044794291257858276,-0.03809325397014618,-0.9995908141136169,-0.19704125821590424,0.01390867680311203,0.7704402804374695,28.239063262939453,-8.66610050201416,39.47642517089844,0
60,599931,0.046503376215696335,0.07674191892147064,-1.006983757019043,0.08669918030500412,0.7685855031013489,0.6522985696792603,28.980350494384766,-9.113689422607422,38.84324264526367,0
61,609990,0.08926123380661011,0.042120642960071564,-1.0215383768081665,-0.09231725335121155,0.37737032771110535,-0.06269881874322891,30.64373016357422,-9.160516738891602,40.43559265136719,0
62,620143,-0.012429258786141872,-0.013530401512980461,-1.0165798664093018,0.7734194993972778,-0.3142310082912445,0.0008028652518987656,28.91710662841797,-11.053150177001953,40.41271209716797,0
63,630092,-0.012936699204146862,-0.09166503697633743,-1.0392308235168457,-0.8103601932525635,0.2600577771663666,0.04820241034030914,32.24625015258789,-9.912113189697266,40.23263168334961,0
64,639938,-0.08033347129821777,0.0005984178278595209,-0.9826840162277222,-0.4357830584049225,-0.14073491096496582,-0.8856556415557861,28.91962242126465,-9.15031909942627,39.334659576416016,0
65,650110,0.056028787046670914,-0.1231236606836319,-0.981695830821991,0.4130418300628662,0.8376871347427368,-0.3069232702255249,30.71729850769043,-11.080365180969238,39.091026306152344,0
66,659971,0.003906898200511932,-0.000691597000695765,-1.0219637155532837,-0.9980230331420898,-0.4053775668144226,0.04622405394911766,30.874547958374023,-9.847358703613281,40.06966018676758,0
67,670058,-0.052944328635931015,0.06481152027845383,-1.008232593536377,-0.5008208751678467,-0.257184237241745,0.8190516233444214,29.674964904785156,-10.37735366821289,39.0882568359375,0
68,680012,-0.01261275727301836,0.05559495836496353,-0.9963179230690002,-0.24428790807724,0.24784643948078156,0.03253306820988655,29.627185821533203,-9.736013412475586,40.68960189819336,0
69,690108,-0.023647112771868706,0.04260268062353134,-1.0202528238296509,0.006197936367243528,0.28571486473083496,0.3518563508987427,32.292083740234375,-10.038634300231934,40.73139953613281,0
70,699968,-0.13846683502197266,0.04426468163728714,-1.0056018829345703,0.19081443548202515,0.6759693026542664,0.6257633566856384,29.186613082885742,-8.166914939880371,38.096092224121094,0
71,709850,-0.021962448954582214,-0.029948655515909195,-1.032603144645691,-0.35694316029548645,0.3855464458465576,-0.2378927618265152,30.029659271240234,-10.363045692443848,40.237056732177734,0
72,720013,0.03418675437569618,-0.0037815156392753124,-0.991869330406189,0.21896734833717346,0.019522441551089287,0.14441272616386414,28.917709350585938,-10.845190048217773,40.98332214355469,0
73,729918,0.025262456387281418,0.06561761349439621,-1.0012394189834595,0.12054596096277237,-0.41115981340408325,0.2867588996887207,28.930871963500977,-10.524136543273926,38.44957733154297,0
74,739974,-0.01575416326522827,-0.01059933751821518,-0.9948416948318481,0.047637272626161575,-0.598189115524292,0.17789530754089355,29.179500579833984,-8.947220802307129,40.00570297241211,0
75,749931,0.052053168416023254,-0.06417358666658401,-0.9827253818511963,-0.23575715720653534,0.12747904658317566,0.4533054530620575,29.99955177307129,-11.348310470581055,38.83975601196289,0
76,759719,0.003188868286088109,0.03219647705554962,-1.0152976512908936,-0.4870677590370178,0.7401773929595947,0.8447341322898865,28.61325454711914,-10.617751121520996,41.02085494995117,0
77,769963,-0.019579367712140083,-0.06446623057126999,-1.0072368383407593,0.2532980740070343,0.011564712971448898,0.283238023519516,27.915142059326172,-10.058619499206543,38.98331069946289,0
78,779974,-0.03781164065003395,0.0036991273518651724,-1.0149633884429932,0.3845564126968384,-0.2169148474931717,-0.11585687845945358,27.507183074951172,-9.724730491638184,40.72785186767578,0
79,790058,0.08320936560630798,0.036702029407024384,-0.9639991521835327,-0.10471230000257492,-0.33806300163269043,-0.3407842218875885,29.758256912231445,-10.574559211730957,40.205081939697266,0
80,799861,0.02061937376856804,-0.01628781110048294,-1.0117024183273315,0.044675327837467194,0.35892176628112793,0.9837879538536072,30.792621612548828,-9.778286933898926,38.374671936035156,0
81,809853,-0.0024269558489322662,0.0076710800640285015,-0.9914710521697998,-0.2576453983783722,0.2519482672214508,-0.6152292490005493,29.13945198059082,-11.403325080871582,38.462890625,0
82,819702,-0.12984642386436462,-0.017632918432354927,-1.007403016090393,0.34699365496635437,-0.710619330406189,-0.16967634856700897,30.597148895263672,-11.602103233337402,38.13077926635742,0
83,829846,0.05521228536963463,0.04942891746759415,-1.0209301710128784,-0.10050848126411438,0.5210279822349548,0.4407220184803009,30.202728271484375,-9.21012020111084,39.14223098754883,0
84,839971,0.005410974379628897,0.002113691298291087,-1.0006943941116333,-0.20415979623794556,-0.6952341794967651,-0.6197009086608887,29.194868087768555,-9.754242897033691,41.635841369628906,0
85,849941,0.019168050959706306,0.035125307738780975,-0.9915391206741333,0.18832486867904663,0.898891031742096,-0.6252990365028381,29.169057846069336,-9.959280967712402,39.42949676513672,0
86,859769,0.09690127521753311,0.046663399785757065,-0.9766811728477478,0.7019019722938538,0.3578324615955353,0.42371946573257446,29.577001571655273,-10.44619083404541,39.20391082763672,0
87,870265,-0.004741770215332508,0.03515634685754776,-1.0142477750778198,-0.6841112971305847,0.3113456666469574,0.25315579771995544,29.49193000793457,-11.633938789367676,40.85188674926758,0
88,879858,0.0053247129544615746,0.03926346078515053,-1.001604437828064,0.434552937746048,0.27140575647354126,0.44029882550239563,30.82244873046875,-9.248353958129883,38.85009002685547,0
89,889976,-0.0612468495965004,0.022901585325598717,-0.9778833985328674,0.17324192821979523,0.7084619402885437,0.8658537864685059,30.774377822875977,-10.704052925109863,39.850467681884766,0
90,899892,0.01092261727899313,0.046426884829998016,-0.9983583688735962,0.824225664138794,0.37660348415374756,-0.3713926374912262,29.96754264831543,-8.536968231201172,42.41062927246094,0
91,910055,0.053837064653635025,0.011091779917478561,-0.9892783164978027,-0.5308337807655334,0.45770588517189026,0.18341988325119019,30.594829559326172,-9.02397346496582,39.38226318359375,0
92,920099,-0.02052191086113453,0.09037729352712631,-1.0360350608825684,0.5362080931663513,-0.1858285367488861,0.26267480850219727,29.929224014282227,-10.28327751159668,40.791526794433594,0
93,929946,-0.05107840895652771,0.031696345657110214,-1.024587631225586,0.48989805579185486,-0.08614160865545273,0.5840792059898376,30.90660285949707,-9.677961349487305,40.60490417480469,0
94,939877,0.028681138530373573,-0.05753470957279205,-1.0009644031524658,0.08244410157203674,-0.010112317278981209,-1.0200756788253784,27.79815673828125,-11.576132774353027,39.939491271972656,0
95,949899,0.03160785511136055,0.0008071943302638829,-1.0045830011367798,0.49354177713394165,0.3543185889720917,0.38484814763069153,29.74809455871582,-10.264893531799316,38.78163146972656,0
96,960051,-0.04304508864879608,-0.07814670354127884,-0.9829986691474915,0.006844955496490002,0.3417174518108368,0.5097761750221252,29.887935638427734,-9.340371131896973,38.54804229736328,0
97,969969,0.054015278816223145,-0.01310906931757927,-0.9840368628501892,-0.059093259274959564,-0.5122102499008179,-0.5200119018554688,29.824108123779297,-10.876578330993652,38.991424560546875,0
98,979899,-0.04813147336244583,-0.0003651187289506197,-1.0174843072891235,1.119719386100769,-0.3974115550518036,-0.1473935842514038,28.737550735473633,-10.94293212890625,39.932098388671875,0
99,989991,0.07198464125394821,0.0074896966107189655,-1.0024209022521973,0.046710919588804245,-0.1773950606584549,0.7773097157478333,30.615886688232422,-9.795534133911133,40.25785446166992,0
100,1000071,-0.030654648318886757,-0.03188704326748848,-1.0379353761672974,0.39482632279396057,-0.08671364933252335,-0.062757208943367,29.122608184814453,-8.261740684509277,41.42375564575195,0
101,1009940,0.036139074712991714,-0.033202096819877625,-1.0040422677993774,-0.5995017886161804,0.06795185804367065,0.4469374716281891,31.759340286254883,-11.0125150680542,40.701690673828125,0
102,1019995,-0.0034989826381206512,0.032941509038209915,-1.0391801595687866,-0.8979976177215576,0.7218292951583862,-0.40530315041542053,29.42186164855957,-9.998223304748535,40.0526008605957,0
103,1029941,-0.027977699413895607,-0.09620623290538788,-0.9748955368995667,-0.17829863727092743,0.6921524405479431,-0.11637416481971741,32.24637985229492,-11.030801773071289,39.386756896972656,0
104,1040106,-0.03279203921556473,0.019060537219047546,-1.0117175579071045,-0.32336506247520447,-0.17091070115566254,-0.6122700572013855,29.078340530395508,-10.231163024902344,41.26333236694336,0
105,1050028,0.005526174325495958,-0.025226997211575508,-1.012453556060791,-0.03941885754466057,-0.3520246148109436,-0.47063758969306946,29.351699829101562,-10.695220947265625,39.878089904785156,0
106,1059803,0.06477624177932739,0.08863368630409241,-1.0008007287979126,-0.20751473307609558,1.1727524995803833,0.5034172534942627,30.04793930053711,-7.917070388793945,39.70418167114258,0
107,1069958,0.02586738020181656,-0.016621356830000877,-0.9685159921646118,-0.5407519936561584,0.08032356947660446,-0.6385459899902344,30.16860580444336,-10.141672134399414,41.76247787475586,0
108,1079771,0.0042216358706355095,-0.01575961336493492,-0.983761191368103,-0.2685600221157074,0.3963410258293152,-0.23963958024978638,31.08401870727539,-10.39109992980957,39.9671516418457,0
109,1090073,-0.0012200422352179885,-0.08229658007621765,-0.9920368790626526,-0.20412024855613708,0.14428861439228058,-1.370215654373169,29.94673728942871,-11.176280975341797,40.136905670166016,0
110,1100096,-0.060579631477594376,-0.049536921083927155,-1.0195393562316895,-0.09581644088029861,0.48340216279029846,0.21679048240184784,30.874250411987305,-12.16473388671875,39.523109436035156,0
111,1109851,0.04737700894474983,-0.0150779839605093,-0.9957789182662964,0.15005195140838623,-0.23361895978450775,-0.1383034586906433,28.70090103149414,-9.025491714477539,41.36363220214844,0
112,1119980,-0.009917212650179863,0.08274348825216293,-0.990596354007721,0.2919956147670746,0.4140899181365967,-0.3961997330188751,28.814332962036133,-9.883974075317383,39.65364074707031,0
113,1130018,-0.025042669847607613,0.00488554360345006,-0.9975041151046753,-0.22903797030448914,-0.24314671754837036,-0.18253663182258606,29.221940994262695,-9.546231269836426,39.88665008544922,0
114,1139897,0.026879826560616493,-0.034902434796094894,-1.0245990753173828,0.5529417991638184,0.4836280047893524,-0.3292827606201172,31.92388153076172,-9.04504680633545,39.6648063659668,0
115,1149921,0.023741532117128372,-0.015390289947390556,-1.0041145086288452,-0.8479127287864685,0.4769291281700134,-0.6966479420661926,28.915369033813477,-12.730172157287598,38.187461853027344,0
116,1160166,0.03891812264919281,-0.016401007771492004,-1.004707932472229,0.44552749395370483,0.37140801548957825,0.04069145396351814,30.837989807128906,-9.56074333190918,40.140846252441406,0
117,1169924,0.0108764274045825,0.0733477994799614,-1.0148475170135498,0.19807906448841095,-0.12621286511421204,0.16446085274219513,31.079702377319336,-10.787924766540527,39.802337646484375,0
118,1179953,0.009269624948501587,0.04289229214191437,-0.9915016889572144,0.20735304057598114,0.4416893422603607,0.38236403465270996,29.355955123901367,-9.971648216247559,39.69729995727539,0
119,1190096,-0.0028338239062577486,0.0766686201095581,-0.9946766495704651,-0.8983793258666992,0.680401086807251,-0.3871763050556183,28.33212661743164,-9.313342094421387,40.32463073730469,0
120,1199813,0.017220722511410713,0.1132330447435379,-0.9899237751960754,0.015581636689603329,0.21644864976406097,-0.4697040915489197,29.96286392211914,-9.36426830291748,40.17753601074219,0
121,1210006,0.03328339383006096,0.007653282023966312,-0.9747175574302673,-0.37744811177253723,-0.5509710311889648,0.7687051892280579,29.648666381835938,-8.72010326385498,38.04745864868164,0
122,1220051,0.10858365148305893,0.04229038208723068,-1.0233862400054932,0.004726131446659565,-0.01993936114013195,-0.1904943436384201,29.252899169921875,-11.002635955810547,40.507137298583984,0
123,1230047,0.0015623212093487382,0.11637473851442337,-1.0037699937820435,-0.4061667323112488,0.11596465110778809,-0.4371461272239685,29.711654663085938,-8.627238273620605,39.1855354309082,0
124,1239960,-0.015122558921575546,0.012217802926898003,-1.0221426486968994,-0.4119298458099365,-0.22767719626426697,0.10324476659297943,32.40422439575195,-10.564598083496094,40.397613525390625,0
125,1249900,0.04636487737298012,-0.023366788402199745,-1.0021532773971558,0.11022485047578812,0.044161517173051834,-1.4655232429504395,31.148836135864258,-8.896941184997559,40.69864273071289,0
126,1260085,-0.10171310603618622,0.03144433721899986,-0.9904814958572388,-0.13829974830150604,-0.42394375801086426,-0.3398952782154083,30.314912796020508,-9.734766960144043,40.80466842651367,0
127,1269922,-0.07709115743637085,0.06278067827224731,-0.9795849323272705,-0.9349030256271362,0.4318823218345642,0.2681642770767212,30.592975616455078,-10.366385459899902,39.13654327392578,0
128,1279933,0.058423031121492386,-0.0027813308406621218,-1.053788185119629,0.6641744375228882,0.3680756092071533,0.5900764465332031,29.509000778198242,-10.047402381896973,39.95976638793945,0
129,1289803,-0.05699613690376282,-0.016336724162101746,-0.9692227840423584,-0.21932104229927063,0.48176318407058716,0.4959035813808441,29.428857803344727,-10.614343643188477,38.78730010986328,0
130,1300029,0.12265751510858536,0.028798025101423264,-0.9966472387313843,-0.5337056517601013,-0.8225101232528687,0.32193365693092346,30.35527992248535,-10.285146713256836,40.374534606933594,0
131,1309847,-0.08112256228923798,-0.06631587445735931,-1.0279184579849243,0.7087329626083374,0.3686927258968353,0.26025283336639404,30.113615036010742,-10.178487777709961,41.65522766113281,0
132,1319879,0.006328619550913572,0.06938724219799042,-1.033719539642334,-0.012790447100996971,-0.7687311768531799,0.38613998889923096,30.730030059814453,-11.81872272491455,39.856407165527344,0
133,1330045,0.021409902721643448,0.06985580176115036,-0.9895554780960083,1.2106703519821167,0.1511717289686203,0.2799171507358551,30.486906051635742,-10.078604698181152,40.87561798095703,0
134,1339819,0.025016143918037415,0.04262134060263634,-1.0133466720581055,0.6624801158905029,0.0952310785651207,0.039527758955955505,29.32709312438965,-10.963632583618164,40.570045471191406,0
135,1350055,0.024500641971826553,0.06838954985141754,-0.9608954787254333,-0.09332580119371414,0.635506808757782,-0.014154553413391113,28.480052947998047,-10.010456085205078,40.06207275390625,0
136,1359955,-0.040976185351610184,0.040033839643001556,-1.0053335428237915,-0.054939381778240204,0.28140076994895935,0.7116735577583313,31.215078353881836,-9.610272407531738,40.513057708740234,0
137,1369871,0.04911726340651512,0.012242479249835014,-1.030409574508667,-0.8788813352584839,0.19002938270568848,-0.5202034711837769,31.572790145874023,-9.82964038848877,40.67844772338867,0
138,1380247,0.06495669484138489,-0.09027273952960968,-0.9938937425613403,-0.882053554058075,0.03206625208258629,0.5614803433418274,30.652019500732422,-9.162314414978027,39.87617874145508,0
139,1389956,0.017861301079392433,-0.023516951128840446,-1.0052458047866821,-0.13306967914104462,-0.027342239394783974,-0.12237714976072311,26.406892776489258,-9.430231094360352,39.531044006347656,0
140,1399868,-0.01937127858400345,-0.015846561640501022,-0.9966925978660583,-0.7584970593452454,0.03130972385406494,-0.3622340261936188,30.419363021850586,-11.531828880310059,39.35467529296875,0
141,1409851,-0.0525493323802948,0.030292527750134468,-1.0064630508422852,-0.2595037519931793,-0.30820631980895996,-0.25778928399086,30.82784080505371,-10.808796882629395,40.58599090576172,0
142,1419923,0.02418038621544838,0.010767750442028046,-0.9917084574699402,-0.15285485982894897,-0.28641557693481445,0.6232355237007141,30.735612869262695,-8.429491996765137,38.51545333862305,0
143,1430006,0.03558271378278732,0.05351652204990387,-1.0109875202178955,-0.3805876076221466,-0.21358972787857056,0.07960142940282822,30.561025619506836,-11.177999496459961,41.110843658447266,0
144,1440039,0.0419192910194397,-0.015249373391270638,-1.0041813850402832,-0.4158020317554474,-0.605159342288971,0.15868782997131348,31.32162094116211,-10.150882720947266,38.65808868408203,0
145,1449891,-0.03462407365441322,0.12181423604488373,-0.9862114787101746,0.5147550106048584,-0.6351574659347534,-0.3160860240459442,29.51903533935547,-12.075201988220215,40.60026550292969,0
146,1460230,0.024532435461878777,-0.006515552755445242,-0.9723796248435974,0.15207529067993164,-0.3220229148864746,-0.28722891211509705,29.207674026489258,-10.041016578674316,38.533775329589844,0
147,1469788,-0.023347198963165283,0.0024649365805089474,-0.9947939515113831,0.8929139375686646,-0.11408329755067825,0.7132129669189453,29.6988468170166,-10.951215744018555,40.295814514160156,0
148,1479874,0.08160342276096344,-0.0007274585077539086,-1.0236845016479492,-0.5471853613853455,-0.3383266031742096,0.45704618096351624,29.06789207458496,-10.216144561767578,39.8106803894043,0
149,1490056,-0.02044951729476452,-0.020474208518862724,-0.9676044583320618,0.5821846127510071,-0.5885016918182373,0.04509774222970009,29.605680465698242,-10.041313171386719,40.09981155395508,0
150,1500061,0.007161261979490519,0.0200919508934021,-0.9906768798828125,-0.10321051627397537,0.7745338678359985,-0.6021185517311096,29.291669845581055,-10.072178840637207,38.50479507446289,0
151,1510074,-0.03054768219590187,-0.04312608391046524,-1.036045789718628,0.4428758919239044,-0.15415532886981964,-0.43688660860061646,28.539716720581055,-7.970911502838135,38.40530776977539,0
152,1520051,0.04974569380283356,-0.03994247317314148,-1.0230942964553833,0.1892506331205368,-0.17467908561229706,0.941608190536499,31.165006637573242,-12.191692352294922,41.41173553466797,0
153,1529720,0.0538913756608963,-0.06578077375888824,-1.035426139831543,-0.31690743565559387,0.394209086894989,0.1288122981786728,29.6463623046875,-10.26701545715332,40.64973449707031,0
154,1539971,-0.03142571449279785,-0.059085648506879807,-1.026221513748169,0.11934411525726318,0.47550082206726074,-0.13851886987686157,29.683120727539062,-10.78229808807373,38.35416793823242,0
155,1549882,-0.004442351404577494,-0.02404700592160225,-1.0333449840545654,0.08882816880941391,0.7221255898475647,0.1280839592218399,29.361244201660156,-9.579163551330566,38.51000213623047,0
156,1560289,-0.04884020984172821,0.04449119791388512,-1.0125951766967773,-0.6002818942070007,-0.35398972034454346,-1.0590226650238037,31.111459732055664,-10.029315948486328,40.08591079711914,0
157,1570018,-0.01467641070485115,-0.06127971038222313,-1.0034908056259155,0.28843700885772705,-0.5667480230331421,0.058481767773628235,29.0678653717041,-8.944674491882324,39.148746490478516,0
158,1580267,-0.04356829822063446,-0.038022276014089584,-0.9967457056045532,0.4886041581630707,-0.5455707907676697,-0.3833201229572296,31.08370590209961,-11.293370246887207,39.18801498413086,0
159,1589846,0.039360709488391876,0.0055449847131967545,-1.0093055963516235,0.6069895625114441,0.7413280010223389,-0.708696186542511,29.84080696105957,-11.366851806640625,40.469234466552734,0
160,1600164,-0.03637844696640968,-0.011786948889493942,-0.9845543503761292,0.17038264870643616,0.6875119209289551,0.08772780001163483,29.260726928710938,-8.804954528808594,38.360286712646484,0
161,1610051,-0.06970030814409256,0.02123161032795906,-0.9890413284301758,-0.10102308541536331,-0.7057901620864868,-0.3850266933441162,32.01114273071289,-9.922152519226074,40.123741149902344,0
162,1619894,-0.08201049268245697,-0.0242354366928339,-0.995776891708374,0.4257979393005371,0.22466909885406494,0.32105299830436707,31.743303298950195,-9.417218208312988,39.44266128540039,0
163,1629848,0.013175558298826218,0.06108713522553444,-1.0074927806854248,0.6235461831092834,0.5800122022628784,-0.6601017117500305,30.43268585205078,-11.135549545288086,39.343841552734375,0
164,1640126,-0.00019015895668417215,0.017542308196425438,-0.9979580044746399,-0.2988477051258087,0.11313565075397491,-0.22819358110427856,29.845806121826172,-11.11793041229248,39.70415496826172,0
165,1649990,-0.08499795198440552,0.004463376943022013,-0.9621059894561768,-0.5080795288085938,0.3926427960395813,0.6744422912597656,26.587766647338867,-9.974312782287598,40.194053649902344,0
166,1659843,-0.03533900901675224,-0.0004035597376059741,-1.0093865394592285,0.12335342168807983,0.356975793838501,0.7365962862968445,29.111896514892578,-11.098262786865234,37.98210144042969,0
167,1670078,-0.0033154841512441635,-0.00632972689345479,-1.0018589496612549,0.07574035972356796,0.21254253387451172,0.09653111547231674,30.21019744873047,-9.243895530700684,39.89613342285156,0
168,1680094,0.052596066147089005,0.08451588451862335,-0.995989203453064,0.01719624362885952,1.0916292667388916,0.1575380265712738,28.816696166992188,-7.860915660858154,40.77586364746094,0
169,1690026,0.01478762086480856,-0.019895192235708237,-1.0012718439102173,0.7017630934715271,0.00987520907074213,-0.51311194896698,29.35483741760254,-10.532228469848633,39.451663970947266,0
170,1699741,-0.08382466435432434,-0.10361593216657639,-1.0061737298965454,1.2373559474945068,-0.797666609287262,-0.9825842380523682,30.977798461914062,-10.55034351348877,40.1368408203125,0
171,1709937,0.06296377629041672,-0.03821698576211929,-1.0316846370697021,-0.1457929015159607,1.0504597425460815,-0.8535321950912476,29.655057907104492,-9.21548843383789,39.32575607299805,0
172,1720062,-0.007997875101864338,0.0017166861798614264,-0.9941384196281433,-0.013033094815909863,0.6383498311042786,-0.04165305942296982,30.540952682495117,-8.648702621459961,39.11915588378906,0
173,1729952,-0.008461321704089642,0.03580639511346817,-0.9865972399711609,-0.3067028522491455,-0.047236643731594086,0.8061552047729492,28.98160171508789,-10.714973449707031,41.04486083984375,0
174,1740062,0.03115912713110447,0.06942330300807953,-0.9887228012084961,0.5217626094818115,-0.32053041458129883,-0.11683961004018784,31.485212326049805,-8.540050506591797,40.39643859863281,0
175,1749813,-0.0006326945731416345,-0.11230037361383438,-0.9913880228996277,-0.24887384474277496,0.44786250591278076,0.27520743012428284,29.595930099487305,-10.658146858215332,40.63444519042969,0
176,1759913,0.045729245990514755,0.0573945976793766,-0.943022608757019,-0.3841381072998047,-0.1726803034543991,-0.03475344181060791,30.864938735961914,-10.299277305603027,40.46178436279297,0
177,1770113,-0.05697543919086456,0.0010869178222492337,-1.0264167785644531,0.9154231548309326,-0.4436345398426056,0.26628389954566956,30.12575912475586,-9.83169174194336,41.56031799316406,0
178,1780072,0.08698020130395889,-0.001162245636805892,-1.0216048955917358,-0.5497808456420898,0.4571341276168823,-0.03499875217676163,28.696029663085938,-8.099608421325684,39.26920700073242,0
179,1789911,-0.053105197846889496,0.03940705955028534,-0.9911754727363586,0.34453287720680237,-0.7271177768707275,-0.06560301035642624,28.833341598510742,-10.756670951843262,40.98760986328125,0
180,1799868,-0.10945311188697815,-0.0737503245472908,-1.0079410076141357,0.5413855314254761,-1.152369737625122,0.5888240933418274,30.641902923583984,-9.146648406982422,40.878662109375,0
181,1809911,0.08313088119029999,0.0829329565167427,-0.980987012386322,0.47082459926605225,-0.6253005862236023,0.270772248506546,31.043310165405273,-9.2006196975708,41.32441329956055,0
182,1820049,-0.008001311682164669,-0.005521160084754229,-1.0255699157714844,-0.9147534966468811,0.12150158733129501,-0.49746039509773254,30.924394607543945,-8.54446029663086,40.14982223510742,0
183,1830034,-0.028446340933442116,0.11277955770492554,-0.9997631311416626,0.3589055836200714,-0.25787052512168884,-0.25018277764320374,30.42850112915039,-10.7647705078125,40.35594177246094,0
184,1839952,-0.011955654248595238,-0.07376135140657425,-0.9804661870002747,-0.07184187322854996,-0.18642449378967285,0.18918867409229279,30.913681030273438,-8.791290283203125,40.50144958496094,0
185,1849773,-0.04691394791007042,-0.013806366361677647,-0.9780682325363159,0.5494293570518494,0.6619040369987488,1.5313304662704468,29.85368537902832,-9.691793441772461,38.137962341308594,0
186,1860004,-0.008531075902283192,0.05775408819317818,-0.9851688146591187,-0.6323935389518738,-0.5764777660369873,-0.2665143311023712,30.171545028686523,-8.373162269592285,39.93290328979492,0
187,1870169,-0.022887226194143295,0.015791550278663635,-1.0185688734054565,-0.21447032690048218,0.30928534269332886,-0.4330079257488251,30.858905792236328,-10.792195320129395,41.368839263916016,0
188,1880158,0.012053634971380234,-0.07778278738260269,-0.9936833381652832,0.9134652614593506,-0.004264168441295624,1.0526678562164307,32.140621185302734,-8.73794174194336,40.115081787109375,0
189,1889860,0.054485250264406204,0.06854064017534256,-1.0488618612289429,1.0893230438232422,0.1422131210565567,0.782056987285614,28.0239200592041,-11.71306324005127,40.16368103027344,0
190,1899953,0.0274047814309597,-0.0035473594907671213,-1.0309666395187378,-0.6659814119338989,0.7413803339004517,0.037144437432289124,29.826522827148438,-10.130712509155273,41.26630401611328,0
191,1909836,-0.06136986240744591,0.02752288430929184,-0.9621326327323914,0.6497757434844971,0.11722101271152496,0.5695774555206299,30.0430850982666,-9.143402099609375,40.78221130371094,0
192,1920081,0.08354616165161133,0.14876946806907654,-1.0105957984924316,-0.22073420882225037,1.3082330226898193,0.055418189615011215,28.29450798034668,-11.207674026489258,39.4952507019043,0
193,1929878,-0.09173540771007538,-0.044111430644989014,-0.9770235419273376,0.13238196074962616,-0.5926480293273926,0.01949465461075306,30.218971252441406,-10.06529426574707,40.92225646972656,0
194,1940056,0.019656941294670105,-0.04395116865634918,-0.9754089117050171,0.14704962074756622,0.28429388999938965,-0.03682389482855797,30.558658599853516,-9.815810203552246,40.16622543334961,0
195,1950064,0.07743007689714432,0.06819683313369751,-1.0055732727050781,-0.09386319667100906,1.161703109741211,-0.39711034297943115,29.280242919921875,-9.572297096252441,41.457759857177734,0
196,1959958,-0.07120279222726822,0.04115986451506615,-0.9654667973518372,0.12710613012313843,-0.5409151315689087,-0.2717588543891907,30.125322341918945,-10.810208320617676,42.35567855834961,0
197,1969912,-0.029041992500424385,-0.01592133194208145,-0.9664272665977478,0.4966133236885071,0.7422612905502319,0.028417324647307396,30.19822883605957,-10.053168296813965,40.1951904296875,0
198,1980052,-0.006533419713377953,-0.1073395311832428,-1.0086607933044434,-0.1487651914358139,-0.3274495005607605,1.1030166149139404,29.985504150390625,-10.555401802062988,40.438358306884766,0
199,1990056,-0.03816312551498413,0.05156399682164192,-1.0084856748580933,-0.15376241505146027,-0.13298462331295013,-1.0023157596588135,28.55341148376465,-11.86917495727539,39.815391540527344,0
200,1999897,-0.048189159482717514,0.013983046635985374,-1.025411605834961,0.299895316362381,-0.26338642835617065,-0.06702808290719986,28.825681686401367,-9.697538375854492,39.76375961303711,0
201,2010030,-0.030501188710331917,-0.054255545139312744,-1.0026357173919678,-0.24402599036693573,-0.7507893443107605,0.2918022572994232,29.64280128479004,-10.201980590820312,39.03388977050781,0
202,2020002,0.09009594470262527,0.09277314692735672,-0.9943808913230896,-0.011741154827177525,0.9118065237998962,-0.37939348816871643,30.672252655029297,-11.086606979370117,38.84495162963867,0
203,2029793,-0.04863907769322395,-0.03282257914543152,-0.9751030802726746,0.5332294702529907,0.7523472309112549,-0.39612898230552673,29.83272933959961,-9.934870719909668,38.03395080566406,0
204,2039976,-0.015509949065744877,-0.02368430607020855,-1.0052330493927002,-0.9864991903305054,0.06568198651075363,0.24520543217658997,29.926557540893555,-12.192218780517578,38.94942855834961,0
205,2050014,-0.06285735219717026,0.05085460841655731,-0.9601767659187317,0.3923497200012207,-0.34283581376075745,0.8614791631698608,30.397361755371094,-8.593023300170898,39.76091766357422,0
206,2059946,0.053553950041532516,-0.0427854023873806,-1.0400669574737549,-0.4301944971084595,-0.5247236490249634,-0.2695699632167816,30.98283576965332,-11.332832336425781,40.60398483276367,0
207,2070085,0.039443571120500565,0.018680322915315628,-1.008992075920105,-0.1598689705133438,0.20587967336177826,-0.4444088041782379,29.924205780029297,-9.889840126037598,40.16677474975586,0
208,2079978,-0.0054495991207659245,-0.03725816681981087,-0.992706835269928,0.4674842655658722,0.640078067779541,0.5740015506744385,30.86178970336914,-10.992189407348633,41.33576583862305,0
209,2089891,-0.02026841975748539,-0.03812280297279358,-1.0244966745376587,0.8458381295204163,-0.4816529452800751,-0.22289378941059113,29.101566314697266,-9.500677108764648,41.03181457519531,0
210,2100039,-0.09490641951560974,-0.007536279037594795,-0.9842129349708557,0.057979073375463486,-0.7100143432617188,0.3142722547054291,29.249269485473633,-11.060511589050293,39.3433723449707,0
211,2109785,0.0071919020265340805,0.032431989908218384,-0.9676346778869629,0.518724799156189,0.20370744168758392,0.24360981583595276,30.225393295288086,-9.78069019317627,39.880332946777344,0
212,2119828,0.05678326264023781,0.09203734248876572,-1.0272692441940308,-0.03999602049589157,0.07371309399604797,-0.0937199667096138,30.048791885375977,-8.453437805175781,39.730438232421875,0
213,2130026,0.09612639993429184,0.03673804551362991,-0.9785631895065308,0.23961065709590912,0.1380225121974945,-0.40413594245910645,28.870075225830078,-8.911184310913086,39.90144348144531,0
214,2140084,0.06443137675523758,0.03373171016573906,-1.0074350833892822,-0.324268639087677,-0.05192951112985611,0.24595323204994202,31.74637222290039,-9.753762245178223,40.794227600097656,0
215,2150131,0.026119356974959373,0.008381379768252373,-0.9760555624961853,-0.007156496401876211,-0.15340285003185272,-0.01990377902984619,30.766311645507812,-10.009206771850586,40.24762725830078,0
216,2159931,0.015411369502544403,0.025659602135419846,-0.9816954731941223,-0.29309266805648804,0.31540146470069885,0.559554398059845,30.897111892700195,-12.241690635681152,39.51345443725586,0
217,2170111,0.08015056699514389,0.01933302916586399,-1.0098413228988647,-0.36383330821990967,-0.13555774092674255,-0.5559003949165344,29.186260223388672,-10.59512996673584,39.31816101074219,0
218,2180372,-0.016414498910307884,-0.034772519022226334,-0.9625867009162903,-0.00470195384696126,-0.05697184428572655,-0.020597565919160843,30.492841720581055,-7.88905668258667,37.997989654541016,0
219,2190217,-0.012082246132194996,-0.06158119812607765,-0.9865812659263611,-0.6240976452827454,-0.1723325401544571,0.18434053659439087,30.865236282348633,-10.83670425415039,40.143218994140625,0
220,2200044,-0.03381301462650299,0.0015959726879373193,-0.996919572353363,0.4151841998100281,0.38081055879592896,-0.08082729578018188,30.32794189453125,-10.406659126281738,41.05300521850586,0
221,2210234,0.07616909593343735,0.009105440229177475,-0.9974005818367004,0.23112858831882477,0.5318242311477661,-0.45769989490509033,29.555437088012695,-9.476029396057129,38.730613708496094,0
222,2220092,-0.00261553842574358,0.012285169214010239,-0.9867003560066223,-0.20982816815376282,-0.7126442790031433,0.04457234591245651,31.062732696533203,-11.429526329040527,39.605712890625,0
223,2230097,-0.015081926248967648,0.005210700444877148,-0.9953324198722839,0.5031155347824097,-0.12333037704229355,-0.5813117027282715,29.629865646362305,-8.471844673156738,39.4251823425293,0
224,2239957,0.018770571798086166,0.06234011426568031,-1.0192844867706299,0.015566052868962288,0.1720888763666153,0.6686830520629883,29.289234161376953,-9.614848136901855,41.611328125,0
225,2249977,0.05686661973595619,0.037332117557525635,-1.0011099576950073,-0.08238571882247925,0.41776713728904724,-0.0879170298576355,29.374204635620117,-10.189602851867676,39.200035095214844,0
226,2260271,-0.03744301199913025,-0.09016350656747818,-0.990877091884613,0.39595499634742737,-0.322379469871521,-0.46598634123802185,30.412771224975586,-10.312520980834961,40.60740280151367,0
227,2269935,0.07413975894451141,0.05798715725541115,-1.0216305255889893,-0.8461063504219055,-0.018899112939834595,0.5881732702255249,30.518041610717773,-10.074292182922363,38.895713806152344,0
228,2280186,0.0014802366495132446,-0.05569978058338165,-0.9984523057937622,-0.46332651376724243,0.3925001919269562,0.7500559687614441,30.110761642456055,-9.916723251342773,41.96464538574219,0
229,2290200,-0.03614743426442146,-0.007400729227811098,-1.0381416082382202,-0.10135971754789352,0.6744274497032166,-0.7082599997520447,32.313934326171875,-11.33090877532959,39.865657806396484,0
230,2299848,-0.010891580022871494,0.04014582931995392,-1.0037912130355835,0.8847869038581848,0.6850070357322693,0.08185587078332901,30.431079864501953,-9.408921241760254,40.856109619140625,0
231,2309937,-0.05741176754236221,-0.06504283845424652,-1.0011906623840332,0.21656577289104462,-0.6492382287979126,-0.7141798138618469,31.212356567382812,-9.410857200622559,39.496463775634766,0
232,2319986,0.028538251295685768,0.05198749899864197,-1.0408319234848022,-0.16683493554592133,0.3616921007633209,0.34150049090385437,33.04673385620117,-8.6434326171875,41.0924072265625,0
233,2329847,-0.023560047149658203,0.014475462958216667,-1.0040150880813599,0.14675219357013702,0.2474108338356018,-0.05602320656180382,28.981958389282227,-10.959031105041504,39.00826644897461,0
234,2339868,0.05420185253024101,0.06881369650363922,-1.021582841873169,0.08099840581417084,-0.8629105091094971,-0.7307595014572144,30.377666473388672,-9.492050170898438,40.29191970825195,0
235,2349729,-0.014581321738660336,0.05883316323161125,-0.9879664182662964,0.3939983546733856,-0.21763941645622253,0.3539219796657562,29.30531120300293,-8.25014877319336,40.080780029296875,0
236,2360021,-0.01745101809501648,0.03572006896138191,-0.9956191778182983,0.1762065589427948,-0.7412077188491821,-0.6773071885108948,29.013797760009766,-8.942703247070312,39.120147705078125,0
237,2369923,-0.09929464012384415,0.031059756875038147,-0.998055636882782,0.2134077399969101,0.24986372888088226,-0.2255263328552246,28.450183868408203,-10.659178733825684,39.73416519165039,0
238,2379793,-0.01270644273608923,0.026223130524158478,-0.9920454025268555,-0.08887562900781631,0.02641519345343113,-0.8111606240272522,29.884740829467773,-10.611564636230469,39.35684585571289,0
239,2389729,0.09108880907297134,-0.001667837263084948,-1.029778003692627,0.5210140943527222,-0.23621594905853271,0.0410151369869709,29.513696670532227,-9.774585723876953,40.59197998046875,0
240,2399892,-0.07275441288948059,-0.07980871945619583,-1.0048058032989502,0.5390413403511047,-0.1386900097131729,-0.654760479927063,29.547670364379883,-10.475590705871582,41.376155853271484,0
241,2409775,-0.02296004816889763,-0.06390329450368881,-1.0213255882263184,-0.5033860206604004,0.2732942998409271,-0.6170334815979004,30.40472412109375,-10.769904136657715,38.95339584350586,0
242,2420070,-0.016322443261742592,0.013585256412625313,-1.0335510969161987,-0.2828899323940277,0.34106776118278503,0.49378350377082825,28.3269100189209,-9.974635124206543,40.12282180786133,0
243,2429840,-0.0759899765253067,-0.04575088620185852,-1.0185961723327637,-0.5259836912155151,-0.06569313257932663,0.9203789234161377,29.050193786621094,-10.818586349487305,38.02602005004883,0
244,2439948,0.025220433250069618,-0.06524988263845444,-1.0024802684783936,0.92546546459198,0.06249408796429634,0.2125263661146164,31.081981658935547,-9.921734809875488,39.38127899169922,0
245,2449812,-0.052721697837114334,0.022470446303486824,-1.0066752433776855,-0.4829222857952118,-0.6565876603126526,-0.5272119045257568,29.123409271240234,-10.65478515625,38.67194366455078,0
246,2459864,0.005326451733708382,-0.03419335559010506,-0.9956884980201721,0.21375000476837158,-0.437471866607666,-0.8974009156227112,30.78298568725586,-9.674738883972168,39.49029541015625,0
247,2469771,-0.06102495267987251,-0.09762613475322723,-1.0285886526107788,0.7098281383514404,-0.18541809916496277,0.23294790089130402,29.22111701965332,-7.864987850189209,40.115692138671875,0
248,2480317,0.009412762708961964,0.008404092863202095,-1.0180058479309082,-0.44028353691101074,-0.07394799590110779,0.19710327684879303,31.06696319580078,-8.649559020996094,41.170841217041016,0
249,2489928,-0.02380107156932354,-0.07613283395767212,-1.0001977682113647,-0.8573918342590332,0.5640519261360168,0.04188606142997742,29.28347396850586,-8.422203063964844,38.870365142822266,0
250,2500084,-0.06042233482003212,-0.03593433275818825,-0.9975619316101074,-0.24965055286884308,0.05750235542654991,-0.6564115881919861,30.19586753845215,-10.664321899414062,39.09724044799805,0
251,2510235,-0.021560197696089745,-0.06381401419639587,-0.9783145785331726,-0.957341194152832,0.5559350848197937,-0.9273304343223572,30.255399703979492,-8.022808074951172,40.364051818847656,0
252,2520053,-0.023082038387656212,-0.04142904654145241,-1.008718729019165,0.06920410692691803,-0.42140209674835205,-0.1139499843120575,29.44767951965332,-10.065665245056152,39.49440002441406,0
253,2530199,0.11387258768081665,-0.06604217737913132,-0.9706242680549622,-0.007389602717012167,-0.6655482053756714,0.24524059891700745,29.625329971313477,-8.810463905334473,40.59623336791992,0
254,2540271,-0.03331048786640167,-0.09119600802659988,-1.0207256078720093,-0.009781069122254848,0.46047964692115784,-0.562079131603241,30.411874771118164,-9.18354320526123,38.810386657714844,0
255,2550005,-0.04908544570207596,-0.02387285605072975,-0.9993957281112671,0.09121508151292801,0.6780911684036255,0.394966185092926,30.005647659301758,-10.178821563720703,38.394752502441406,0
256,2559825,0.054660651832818985,0.052885789424180984,-1.0101138353347778,0.20939701795578003,-0.5948870182037354,0.18917275965213776,30.723007202148438,-9.669748306274414,39.192626953125,0
257,2570091,-0.041970863938331604,0.04257259517908096,-0.9947285652160645,0.23006585240364075,0.18923716247081757,-0.038138434290885925,29.67721176147461,-10.785000801086426,39.31019973754883,0
258,2579900,-0.031659744679927826,-0.01186985895037651,-0.9735780954360962,-0.2306571751832962,-0.4952583312988281,0.13334284722805023,31.634737014770508,-9.017007827758789,39.653770446777344,0
259,2590037,-0.04793968051671982,-0.02312065102159977,-0.9621087908744812,0.42315673828125,-0.27451300621032715,0.2978016436100006,30.559112548828125,-9.545083045959473,39.47740173339844,0
260,2600165,0.007299093063920736,0.008797584101557732,-1.0115803480148315,0.6627874374389648,-0.5024091005325317,-0.07812311500310898,31.266162872314453,-11.668277740478516,41.3938102722168,0
261,2609869,0.03334880620241165,0.08991342782974243,-0.9965150356292725,-0.28704336285591125,0.019893843680620193,0.7137108445167542,31.585662841796875,-8.84013557434082,40.8084831237793,0
262,2619866,0.012008711695671082,0.037766411900520325,-0.9793538451194763,-0.8965840935707092,0.005876245442777872,0.2377215474843979,31.614288330078125,-9.462618827819824,40.31565856933594,0
263,2629999,-0.02313123270869255,-0.04328508302569389,-0.977959930896759,0.2276625782251358,-0.29108020663261414,-0.28458353877067566,29.916044235229492,-11.351043701171875,40.952117919921875,0
264,2639750,0.05298030003905296,0.024814410135149956,-0.9800049066543579,-0.0027463717851787806,-1.05109703540802,0.4481024444103241,28.841781616210938,-10.933488845825195,41.230709075927734,0
265,2649990,-0.10225779563188553,-0.0019250995246693492,-0.9685449004173279,0.4476478695869446,0.9018107652664185,0.3876754343509674,30.035432815551758,-11.082375526428223,40.8260612487793,0
266,2660132,-0.016805008053779602,0.05839124694466591,-0.9967649579048157,-0.3615873456001282,0.47934505343437195,-0.6353179812431335,28.9287052154541,-10.737257957458496,38.341026306152344,0
267,2670214,-0.014149677008390427,0.04791902378201485,-0.9650337100028992,-1.6334502696990967,-0.09047409892082214,0.017448237165808678,29.02933692932129,-9.238044738769531,39.31901550292969,0
268,2680005,-0.019645774737000465,-0.054308224469423294,-0.9926748275756836,0.09470618516206741,0.5157852172851562,-0.2587180733680725,28.659879684448242,-11.597312927246094,40.35312271118164,0
269,2690039,-0.030123036354780197,-0.04503977671265602,-0.9990191459655762,0.3553684651851654,1.0974032878875732,-0.1716005951166153,29.724050521850586,-10.566319465637207,39.30644607543945,0
270,2699968,0.04055815190076828,0.05171026289463043,-0.9418954849243164,-0.015329280868172646,0.149881511926651,-0.6666359305381775,29.349590301513672,-10.301432609558105,38.1593132019043,0
271,2709965,0.030812552198767662,0.08270472288131714,-0.960534393787384,-0.8688654899597168,-0.08565284311771393,-0.20910705626010895,31.532201766967773,-9.391979217529297,39.33366394042969,0
272,2720035,-0.0029468589928001165,0.013369170017540455,-0.9734126925468445,-0.35880976915359497,0.45021751523017883,0.08466678112745285,29.478500366210938,-11.060567855834961,39.975582122802734,0
273,2729934,-0.034969910979270935,-0.040319543331861496,-1.000221848487854,-0.13370385766029358,-0.6705944538116455,0.20029665529727936,30.824867248535156,-9.618550300598145,39.516632080078125,0
274,2739997,0.0009635262540541589,-0.03518950939178467,-0.9907470345497131,0.11543139815330505,-0.19093815982341766,0.2392544150352478,29.429109573364258,-11.702617645263672,40.42549514770508,0
275,2750299,-0.09085152298212051,-0.018882784992456436,-1.0058313608169556,0.27132028341293335,0.8670960664749146,0.04755423218011856,29.768037796020508,-11.550293922424316,40.69032669067383,0
276,2760106,-0.1338338404893875,-0.09231222420930862,-0.9783241748809814,0.16763398051261902,0.26424941420555115,-0.589362621307373,28.499521255493164,-9.548773765563965,39.32417297363281,0
277,2769880,0.02052166499197483,0.031967733055353165,-1.0150821208953857,-0.32995399832725525,0.3253045678138733,1.7276419401168823,30.316162109375,-10.2697172164917,39.69182205200195,0
278,2779942,0.05141653120517731,-0.023971309885382652,-1.004770278930664,-0.06898946315050125,0.2662997543811798,0.47785842418670654,29.26083755493164,-10.045299530029297,39.590843200683594,0
279,2790130,0.02700204774737358,-0.04728611558675766,-1.024685263633728,0.58836430311203,-0.11394909024238586,-0.5636701583862305,29.897541046142578,-11.360026359558105,39.85769271850586,0
280,2799968,-0.016586873680353165,0.060689911246299744,-0.9719393253326416,-1.0101596117019653,0.8144058585166931,0.27376505732536316,30.788564682006836,-10.444639205932617,41.064697265625,0
281,2809895,-0.083551786839962,0.05438888072967529,-1.003934383392334,0.6325397491455078,-0.6453121900558472,-0.29028281569480896,29.69829559326172,-8.946870803833008,40.220943450927734,0
282,2820007,-0.006262273993343115,-0.017045319080352783,-0.9899545311927795,0.6629115343093872,0.2922188937664032,-0.2915755808353424,29.579700469970703,-10.962053298950195,39.95443344116211,0
283,2829906,0.07351961731910706,-0.03358450531959534,-0.9691326022148132,0.06844080984592438,0.7943881750106812,0.5053689479827881,31.418800354003906,-10.784456253051758,40.442832946777344,0
284,2839891,-0.00010033968283096328,0.11338319629430771,-1.0097801685333252,-0.9636080861091614,0.31143996119499207,0.27979788184165955,29.508081436157227,-8.55844783782959,39.49005126953125,0
285,2850254,0.19696174561977386,0.04598252847790718,-0.9978722929954529,-0.004705128725618124,-0.03678784519433975,-0.012537975795567036,30.904672622680664,-8.874913215637207,39.132137298583984,0
286,2860282,0.09365973621606827,0.0009259129292331636,-1.0070658922195435,-0.5194045305252075,0.39209794998168945,0.22924669086933136,29.821929931640625,-8.894243240356445,40.23918914794922,0
287,2869714,0.08351247012615204,0.03550593927502632,-0.9826388955116272,-0.3843856751918793,-0.25984108448028564,0.02490779012441635,28.670074462890625,-10.3025541305542,40.770057678222656,0
288,2879784,0.03242266923189163,0.04889786243438721,-1.0207911729812622,-0.2175399363040924,-0.3252430558204651,0.3634549081325531,30.034828186035156,-11.593595504760742,37.49589920043945,0
289,2889962,0.05888580530881882,-0.046033866703510284,-1.0206457376480103,0.3233710527420044,0.06588907539844513,-0.150033637881279,31.124258041381836,-10.200723648071289,41.56296920776367,0
290,2900078,-0.017008403316140175,0.02917657047510147,-0.9926060438156128,-0.011371301487088203,-0.6981076598167419,-1.0376296043395996,29.230335235595703,-9.92060375213623,38.11954879760742,0
291,2910066,-0.06202477589249611,-0.010614313185214996,-0.9816790223121643,0.08027241379022598,-0.19269943237304688,0.8634986281394958,31.886465072631836,-10.327082633972168,42.007301330566406,0
292,2919931,0.09725424647331238,-0.04840661957859993,-1.002760887145996,-0.10858044773340225,-0.6796701550483704,0.45564427971839905,28.582311630249023,-9.348090171813965,41.3172607421875,0
293,2930214,-0.08820924162864685,0.03636205196380615,-0.9861200451850891,0.16721601784229279,-0.08559766411781311,-0.09553747624158859,28.798912048339844,-11.77590274810791,40.82034683227539,0
294,2940126,-0.0845174565911293,-0.047173257917165756,-0.9856327176094055,0.09061931073665619,0.035896968096494675,0.2742401361465454,30.214590072631836,-9.228025436401367,41.521183013916016,0
295,2950247,0.045034345239400864,-0.05229945480823517,-0.9605839848518372,-0.1401366889476776,0.8334051370620728,0.633070170879364,28.319490432739258,-11.300652503967285,40.70835494995117,0
296,2959893,0.008918695151805878,-0.014417951926589012,-1.0112015008926392,0.21846599876880646,-0.6885482668876648,-0.7705124616622925,30.445653915405273,-10.315765380859375,41.42430114746094,0
297,2969858,0.009241639636456966,-0.00623680092394352,-1.0183207988739014,-0.1553863286972046,-0.5480754971504211,0.05995773896574974,30.5076847076416,-9.856313705444336,38.373748779296875,0
298,2979988,-0.017900237813591957,0.05436761677265167,-1.0084872245788574,-0.16550858318805695,0.7204408049583435,-0.6715592741966248,32.073970794677734,-10.184715270996094,40.40692901611328,0
299,2989967,-0.02444487065076828,0.043245505541563034,-1.0030337572097778,0.36225900053977966,0.49704599380493164,-0.3467904031276703,29.74506950378418,-10.100699424743652,40.61448669433594,0
300,3000026,-0.040652722120285034,0.04590539634227753,-1.0132886171340942,0.5277212262153625,1.0232977867126465,-0.4015478193759918,28.445682525634766,-10.327225685119629,39.07877731323242,0
301,3010206,0.07942251861095428,-0.09590107947587967,-0.9814668893814087,0.6245669722557068,-0.6606290936470032,0.2489788830280304,30.6611328125,-9.836601257324219,39.421966552734375,0
302,3020174,0.0552406869828701,-0.003198876976966858,-1.0064104795455933,-0.2834155261516571,-0.05052531510591507,0.900582492351532,29.94476318359375,-9.542552947998047,40.884796142578125,0
303,3029867,-0.008653659373521805,-0.032816801220178604,-0.9663527607917786,0.5449947118759155,-0.6242589354515076,-0.2896125614643097,29.7596492767334,-11.516408920288086,41.2349967956543,0
304,3040058,-0.02860785275697708,-0.022112177684903145,-0.9778074026107788,-0.23831625282764435,0.5230920314788818,-0.28230559825897217,31.199005126953125,-11.256219863891602,41.58359909057617,0
305,3050063,0.09916611015796661,0.01727651059627533,-1.0056935548782349,-0.3119179904460907,1.0384020805358887,-0.3450470566749573,30.845657348632812,-10.251307487487793,39.65810012817383,0
306,3060186,-0.09921275079250336,0.010338811203837395,-0.9920684099197388,0.48003900051116943,-0.8103892803192139,-0.16769276559352875,29.10368537902832,-10.738669395446777,38.05678176879883,0
307,3069893,-0.02260608784854412,-0.007991832681000233,-0.9963278770446777,-0.35484448075294495,-0.5554049015045166,-0.2730979919433594,30.33203125,-10.344768524169922,40.444488525390625,0
308,3079788,-0.04191078618168831,-0.07010422646999359,-0.9806641340255737,-0.5958113670349121,0.3453172445297241,0.9276958107948303,29.993751525878906,-9.156238555908203,39.71175765991211,0
309,3089773,-0.06676347553730011,-0.014364591799676418,-1.0416433811187744,-0.031094854697585106,-0.06594100594520569,0.3420734703540802,31.864412307739258,-8.06358814239502,40.384559631347656,0
310,3100048,0.004417232237756252,-0.02304970659315586,-0.982623279094696,1.3739657402038574,0.7559412717819214,-0.01069785375148058,31.700101852416992,-9.648516654968262,40.716434478759766,0
311,3110112,0.02349955216050148,0.02957853674888611,-1.006811499595642,-0.4672735929489136,0.3807339370250702,0.15544897317886353,29.408679962158203,-11.781180381774902,39.73689270019531,0
312,3120147,-0.047503720968961716,-0.06621498614549637,-1.053564190864563,0.4515235126018524,0.6516939401626587,0.14333008229732513,29.902984619140625,-9.5458984375,39.70259094238281,0
313,3129802,0.02211020514369011,-0.020924866199493408,-0.9858670830726624,0.3233593702316284,0.5946128964424133,-0.55064857006073,29.546167373657227,-10.30859375,39.88650131225586,0
314,3139921,-0.03716043755412102,-0.03128410875797272,-0.9911749362945557,0.7990050315856934,0.2943823039531708,1.0163476467132568,30.17216682434082,-12.105692863464355,41.675411224365234,0
315,3150238,0.016865957528352737,0.02067197859287262,-1.007949948310852,0.4494076371192932,-0.5818361639976501,-0.027378298342227936,30.24188804626465,-9.687495231628418,39.2748908996582,0
316,3159954,-0.020235633477568626,-0.05698177590966225,-0.9773362874984741,-0.8249350786209106,0.146889790892601,-0.04078255593776703,31.17935562133789,-10.839728355407715,39.85005187988281,0
317,3169913,0.00935280043631792,0.03568773344159126,-1.0066556930541992,0.2269502878189087,0.22498716413974762,-0.06548915803432465,29.255929946899414,-9.66804027557373,40.751644134521484,0
318,3179963,-0.013406806625425816,-0.018185842782258987,-1.0114201307296753,-0.4406541585922241,0.7268067002296448,0.37564247846603394,29.414566040039062,-9.34062671661377,39.38822937011719,0
319,3189826,-0.023689426481723785,0.02118472382426262,-0.9969377517700195,0.9535496830940247,-0.3733910620212555,-0.038290005177259445,28.138986587524414,-10.131126403808594,42.26609420776367,0
320,3200100,0.04553678631782532,0.03197483345866203,-0.9843252897262573,0.13565760850906372,-0.06202564388513565,-0.1820273995399475,31.498971939086914,-9.858906745910645,41.27787780761719,0
321,3210174,0.0038618394173681736,0.06307478994131088,-0.9652894735336304,-0.3187178671360016,-0.3110541105270386,-0.06780686229467392,30.249174118041992,-11.819914817810059,39.562896728515625,0
322,3220113,-0.07934874296188354,-0.04522862657904625,-0.992242157459259,-0.1611974686384201,-0.0655151829123497,-0.014264782890677452,29.91792869567871,-10.489228248596191,39.62192153930664,0
323,3230086,0.03305117413401604,-0.01373235508799553,-1.0382754802703857,-0.6057001352310181,0.02023005485534668,-0.04911898076534271,31.053651809692383,-10.104753494262695,39.55674362182617,0
324,3240197,-0.07591239362955093,0.11718054860830307,-1.002861499786377,0.5584662556648254,-0.36695969104766846,0.5407207012176514,29.06608772277832,-10.17565631866455,39.68708038330078,0
325,3249967,0.021062703803181648,-0.008564921095967293,-0.9972119927406311,0.8527368903160095,-0.0865691676735878,0.37640851736068726,30.031085968017578,-10.336581230163574,39.8036003112793,0
326,3259911,0.07490680366754532,0.011993800289928913,-0.9614990949630737,0.507570207118988,0.8445106744766235,0.14996939897537231,29.746488571166992,-9.375008583068848,40.367919921875,0
327,3270071,0.029941124841570854,-0.0478750504553318,-1.0004247426986694,0.7968045473098755,0.4528322219848633,0.37282222509384155,31.331602096557617,-9.52020263671875,41.288997650146484,0
328,3280196,-0.06744545698165894,0.06947719305753708,-1.0298608541488647,-0.873873233795166,-0.2851746082305908,0.2248617708683014,29.376501083374023,-10.281936645507812,41.802730560302734,0
329,3289904,0.018921585753560066,0.008004605770111084,-0.9939608573913574,0.04986696317791939,0.5993102192878723,0.05096455663442612,30.35654067993164,-11.029391288757324,39.371219635009766,0
330,3299871,0.013246400281786919,-0.014499400742352009,-1.0267199277877808,0.4589287340641022,0.39431992173194885,0.041127387434244156,29.090896606445312,-9.207706451416016,40.695526123046875,0
331,3310429,-0.06991759687662125,-0.05040150135755539,-0.9742355346679688,0.12783655524253845,0.5129349827766418,-0.8250601291656494,30.87887191772461,-10.818171501159668,39.90421676635742,0
332,3319830,-0.053021445870399475,-0.010206998325884342,-1.0049986839294434,-0.7470012307167053,0.8882182240486145,-0.36803025007247925,31.21590232849121,-8.937273025512695,40.49623489379883,0
333,3330135,0.016660504043102264,0.005440638400614262,-1.0015374422073364,0.35424017906188965,-0.3830273449420929,-1.6074143648147583,30.795804977416992,-9.82019329071045,40.01968765258789,0
334,3340071,0.00988074392080307,0.003382009221240878,-1.0192114114761353,0.13299083709716797,-0.20092733204364777,0.5449836850166321,28.53276824951172,-8.767229080200195,39.155643463134766,0
335,3350338,0.02626119554042816,-0.04000668600201607,-0.9824662804603577,0.6396605372428894,0.3572741448879242,0.00310375913977623,29.295127868652344,-10.550878524780273,40.81898498535156,0
336,3359827,0.04796978086233139,0.007812686264514923,-0.9646455645561218,-0.057362474501132965,-0.5396621823310852,0.6136870384216309,28.883651733398438,-10.779026985168457,40.47553253173828,0
337,3370116,0.03825083374977112,0.006966394372284412,-0.998286783695221,-0.31588637828826904,0.6331866979598999,0.3248648941516876,31.637269973754883,-9.872454643249512,39.308380126953125,0
338,3379680,0.06882642209529877,-0.04287997633218765,-0.9920994639396667,-0.743558406829834,-0.02403978444635868,0.49000295996665955,30.047218322753906,-10.534390449523926,40.578765869140625,0
339,3389695,-0.041234008967876434,-0.034351665526628494,-1.0136302709579468,0.2592806816101074,0.6348024606704712,-0.40454477071762085,29.957788467407227,-11.35886287689209,41.357421875,0
340,3400116,-0.009863805025815964,-0.026739168912172318,-1.025238275527954,0.10933973640203476,0.2809757590293884,-0.08255113661289215,29.359243392944336,-10.950506210327148,39.39775085449219,0
341,3410013,-0.008650393225252628,-0.02591550350189209,-1.0097404718399048,0.04224914684891701,-0.23189109563827515,-0.4546560049057007,28.13389015197754,-10.986849784851074,40.458229064941406,0
342,3420168,0.009336885064840317,0.1144331768155098,-1.0200483798980713,0.3825420141220093,-0.16924086213111877,0.5237572193145752,29.864360809326172,-8.925080299377441,39.14645004272461,0
343,3430148,0.037285350263118744,-0.016527049243450165,-1.0104936361312866,-0.35076016187667847,-0.20133958756923676,1.1760674715042114,30.591623306274414,-10.99062728881836,40.576011657714844,0
344,3440185,-0.07684442400932312,-0.09291277080774307,-1.0477021932601929,-0.8026236295700073,-0.3443480432033539,-0.1407964676618576,30.30152130126953,-9.197014808654785,38.71799850463867,0
345,3450210,0.02813633345067501,0.06450935453176498,-0.9794518947601318,0.49713191390037537,0.3031069338321686,0.37502142786979675,27.63698387145996,-10.626662254333496,39.396148681640625,0
346,3459931,0.002987620886415243,-0.015397943556308746,-1.014276146888733,-0.24211503565311432,-0.5309261083602905,0.02765253372490406,31.138025283813477,-8.564486503601074,40.803749084472656,0
347,3470028,0.008311573415994644,0.0502011701464653,-1.0243724584579468,-0.36041024327278137,0.24463388323783875,0.3070325553417206,29.493803024291992,-10.458394050598145,39.07880401611328,0
348,3479935,-0.014981945045292377,-0.032018229365348816,-0.9971749186515808,-0.24130479991436005,0.2998614013195038,-0.8740122318267822,30.204524993896484,-10.37562370300293,41.434913635253906,0
349,3490260,-0.03521151468157768,0.12913623452186584,-0.968311071395874,-0.07659319043159485,0.6151359677314758,-0.1456948220729828,30.118852615356445,-9.806927680969238,39.95110321044922,0
350,3500088,0.017907733097672462,0.07280809432268143,-1.0077663660049438,1.425395131111145,-0.3245853781700134,0.6510472297668457,29.355838775634766,-9.858013153076172,42.00086975097656,0
351,3510168,-0.06994804739952087,-0.03689519315958023,-0.9887420535087585,0.14073355495929718,-0.27971652150154114,0.025937987491488457,30.15040397644043,-11.36678695678711,37.72737503051758,0
352,3520027,0.039486151188611984,0.06875438988208771,-0.9823793768882751,0.006319568958133459,0.26514652371406555,0.6230049729347229,29.945283889770508,-11.665963172912598,40.27836990356445,0
353,3530206,-0.03181840479373932,-0.010419640690088272,-1.0095293521881104,0.15644672513008118,0.5368337631225586,-0.19978073239326477,27.561613082885742,-10.354995727539062,39.90821075439453,0
354,3539997,0.13734622299671173,0.09587492048740387,-1.0291731357574463,0.8646625280380249,1.010269284248352,-0.314835786819458,30.72252655029297,-10.298124313354492,40.80317687988281,0
355,3549701,0.048675261437892914,0.046212587505578995,-0.9725579619407654,-0.33000701665878296,0.14706295728683472,-0.1746170073747635,30.716400146484375,-10.319802284240723,42.502864837646484,0
356,3559833,-0.0016189677407965064,-0.06875420361757278,-1.024700403213501,0.21956753730773926,-0.14256539940834045,-0.030079200863838196,29.118099212646484,-11.11345386505127,39.83318328857422,0
357,3569684,0.006112377624958754,0.012165735475718975,-1.022337794303894,-0.32951873540878296,-0.3188495337963104,-0.20200802385807037,30.032339096069336,-9.980032920837402,41.377410888671875,0
358,3579951,0.032243743538856506,0.02401139959692955,-0.9891731142997742,-0.42277801036834717,0.07821264863014221,-0.3268744647502899,29.633834838867188,-9.124187469482422,39.413700103759766,0
359,3590051,0.027832217514514923,0.06773307174444199,-0.9667506217956543,0.09618071466684341,-0.15152989327907562,0.4174141585826874,29.124176025390625,-11.647871017456055,38.36920166015625,0
360,3599944,-0.1184876337647438,-0.059485163539648056,-0.9305305480957031,-0.5412787199020386,0.32991766929626465,-1.3827242851257324,31.434236526489258,-9.529576301574707,40.68410110473633,0
361,3610041,-0.009595552459359169,-0.0979723334312439,-0.9785798788070679,1.103549599647522,0.4303581118583679,0.0784393697977066,30.471637725830078,-9.94632339477539,40.20735549926758,0
362,3619937,0.056334808468818665,-0.06096493825316429,-1.0086231231689453,0.9820947051048279,0.7540408372879028,0.5514099597930908,31.723005294799805,-10.134846687316895,39.93950653076172,0
363,3630073,0.01088109239935875,-0.12208855897188187,-0.993777334690094,-1.029893398284912,0.3813895881175995,-0.6157061457633972,31.23529052734375,-9.607327461242676,40.4672737121582,0
364,3639780,0.053870175033807755,0.05852597951889038,-0.9838628172874451,0.684743344783783,0.11733454465866089,0.4909478724002838,29.451770782470703,-10.508132934570312,40.47001647949219,0
365,3650027,-0.0325266569852829,-0.004597710445523262,-0.9758412837982178,0.5571646094322205,0.6663128733634949,0.9493128657341003,31.807361602783203,-9.39143180847168,42.009578704833984,0
366,3660047,-0.022052094340324402,0.03536307066679001,-0.9957739114761353,0.20409297943115234,-0.6824281215667725,-0.17651237547397614,28.868104934692383,-11.412111282348633,41.39067459106445,0
367,3669808,0.0330679714679718,0.12889006733894348,-1.0055961608886719,-1.014561414718628,0.6568070650100708,0.17439264059066772,30.64651870727539,-10.033156394958496,41.01387023925781,0
368,3680036,-0.10601556301116943,-0.02850957028567791,-0.9735304713249207,-0.8462682366371155,0.39623212814331055,0.5078321099281311,30.562646865844727,-11.106287956237793,40.25811767578125,0
369,3690075,0.040848951786756516,0.0070148641243577,-0.9878187775611877,0.4838458001613617,0.027151675894856453,0.006865221541374922,30.693044662475586,-9.396442413330078,40.87813949584961,0
370,3700307,0.012314370833337307,0.009067469276487827,-0.979202389717102,-0.2917923033237457,-0.353683739900589,0.11317363381385803,28.890409469604492,-9.6988525390625,41.73095703125,0
371,3710142,-0.06222384795546532,-0.02187790535390377,-0.9761994481086731,-0.4780874252319336,0.19746999442577362,0.08016331493854523,31.440982818603516,-9.32541561126709,39.577659606933594,0
372,3719950,-0.03903834894299507,-0.000930750509724021,-0.9964247345924377,0.41476956009864807,-0.25090375542640686,0.2984428107738495,30.171875,-10.191934585571289,41.055267333984375,0
373,3730046,-0.12437228113412857,-0.050493113696575165,-1.0284253358840942,-0.1997198909521103,0.23472647368907928,-0.6674256324768066,30.038883209228516,-7.781075954437256,40.258121490478516,0
374,3740141,0.02497541345655918,-0.08280210196971893,-0.9498185515403748,0.08221098780632019,-0.8665099143981934,0.3184092044830322,30.311969757080078,-9.728776931762695,40.00467300415039,0
375,3750062,-0.09252544492483139,0.00303661054931581,-0.9722669720649719,-0.2892167568206787,-0.36533913016319275,0.09103940427303314,29.676284790039062,-9.670755386352539,39.95880126953125,0
376,3759849,0.056691523641347885,0.02853473648428917,-1.0005747079849243,0.6650694608688354,0.03894572705030441,-0.24475885927677155,29.391992568969727,-9.25386905670166,40.618865966796875,0
377,3770130,-0.046575456857681274,0.04968494549393654,-1.0009291172027588,0.6676008701324463,-0.41467446088790894,0.17402006685733795,31.164260864257812,-9.045928001403809,40.10614013671875,0
378,3780260,-0.06870737671852112,0.06068919226527214,-1.0094481706619263,0.4309929311275482,0.2843153476715088,-0.38829487562179565,30.100311279296875,-11.481918334960938,40.91472244262695,0
379,3790347,0.056913889944553375,-0.0651935562491417,-1.0246011018753052,-0.571782648563385,-0.08798660337924957,0.04359813407063484,30.4781551361084,-11.078519821166992,40.644805908203125,0
380,3799972,0.03424776345491409,-0.01122327707707882,-0.995570719242096,0.28415173292160034,0.6037098169326782,-1.6356509923934937,29.8449649810791,-9.228569030761719,39.8618278503418,0
381,3809990,-0.044494666159152985,0.005236766301095486,-0.9642176628112793,0.4371893107891083,-0.43315938115119934,0.1667964905500412,31.427366256713867,-10.089991569519043,40.906856536865234,0
382,3819772,-0.04976796358823776,0.02169281803071499,-0.9777475595474243,-0.30310025811195374,-0.837222695350647,0.5526160001754761,29.063058853149414,-8.333284378051758,39.732566833496094,0
383,3830059,0.020571867004036903,0.05198679119348526,-1.0079045295715332,-0.44533106684684753,-1.075249433517456,-0.8831025958061218,31.597862243652344,-10.072735786437988,40.72367477416992,0
384,3839852,0.07812988013029099,0.03690417483448982,-1.0085515975952148,0.40177881717681885,0.06124076247215271,-0.07063968479633331,31.04903793334961,-10.271025657653809,40.707942962646484,0
385,3849897,-0.0454050712287426,0.00348717556335032,-0.99637770652771,-0.3204983174800873,0.22854037582874298,0.6299945116043091,30.680339813232422,-9.212817192077637,39.57313919067383,0
386,3860004,-0.015603754669427872,0.046782415360212326,-0.9801458120346069,0.08694697916507721,-0.8063685297966003,0.7452993988990784,30.439889907836914,-9.19512939453125,40.28371810913086,0
387,3869860,0.013408944010734558,-0.010327850468456745,-0.9744954109191895,-0.299917608499527,0.40067848563194275,-0.07656192779541016,30.11041831970215,-10.711687088012695,41.72502899169922,0
388,3880106,0.05048039183020592,0.046038929373025894,-1.0199894905090332,-0.36951708793640137,0.23212669789791107,0.7156035900115967,30.061744689941406,-10.824198722839355,40.01844024658203,0
389,3890041,-0.0745781734585762,-0.06126728281378746,-0.9902032613754272,-0.6975736021995544,0.6401486992835999,-0.10814102739095688,31.038028717041016,-10.347660064697266,41.80329513549805,0
390,3899874,-0.00416763499379158,0.06749513745307922,-0.9926137328147888,-0.15145674347877502,-0.6282092332839966,-0.12968719005584717,28.639686584472656,-9.686820030212402,42.32802963256836,0
391,3909954,0.02479362115263939,-0.050855815410614014,-1.0063973665237427,0.018587037920951843,-0.5847780108451843,-0.4281591475009918,28.980857849121094,-10.930317878723145,40.37979507446289,0
392,3919678,-0.014116034843027592,0.009306645952165127,-0.987990140914917,-1.0808762311935425,0.46742045879364014,0.6505549550056458,30.68280029296875,-8.613297462463379,39.91522979736328,0
393,3929547,0.047399260103702545,0.02637505531311035,-1.014775037765503,-0.6469152569770813,0.352107971906662,-0.2073049396276474,29.994338989257812,-11.37307071685791,39.5475959777832,0
394,3940169,-0.01644914038479328,-0.03993823006749153,-0.9765529632568359,-0.3496586084365845,0.45624637603759766,-0.7552280426025391,30.31723976135254,-11.314387321472168,38.784996032714844,0
395,3949811,0.017876695841550827,-0.013015557080507278,-1.0050580501556396,0.24897684156894684,0.43979960680007935,0.1989157348871231,29.004453659057617,-9.021666526794434,40.427616119384766,0
396,3959935,-0.03222355619072914,0.0011105872690677643,-0.979136049747467,0.2775662839412689,-0.26769959926605225,0.3129185140132904,28.66275405883789,-10.040435791015625,40.10568618774414,0
397,3970124,0.02913707122206688,-0.005885181482881308,-1.001070261001587,-0.1631820648908615,-0.23642481863498688,-0.22393636405467987,29.908369064331055,-11.221968650817871,40.108642578125,0
398,3979923,0.05517595633864403,-0.0292337816208601,-0.9507425427436829,1.0402231216430664,-0.5258919596672058,0.3398604094982147,28.32960319519043,-9.00529956817627,40.16707229614258,0
399,3989996,-0.10603535175323486,-0.05570124834775925,-1.0077965259552002,-0.5138816833496094,0.016469741240143776,-0.3739132881164551,29.85723304748535,-12.053266525268555,40.51374435424805,0
400,4000068,-0.02038191445171833,0.052575062960386276,-1.0417044162750244,1.4633564949035645,0.42670512199401855,-0.1329553872346878,30.682342529296875,-10.48833179473877,37.64116287231445,0
401,4010159,-0.015481733717024326,-0.019329536706209183,-0.9780701994895935,0.6264259219169617,0.5956240892410278,0.399530827999115,31.208654403686523,-7.512073993682861,40.20439910888672,0
402,4020141,0.002014949219301343,-0.03709818795323372,-1.0241199731826782,0.08348661661148071,0.4580911099910736,0.7027310132980347,31.244848251342773,-9.864740371704102,40.90603256225586,0
403,4029951,0.04892754927277565,-0.081476129591465,-0.9824756383895874,0.6198879480361938,-0.1302112340927124,-1.0048613548278809,28.94033432006836,-12.08936882019043,40.73231506347656,0
404,4039785,-0.05213381350040436,-0.033198416233062744,-1.0042046308517456,-0.35779184103012085,-0.21880847215652466,-0.24422140419483185,30.467506408691406,-8.671136856079102,40.085792541503906,0
405,4049884,-0.019140126183629036,-0.030056364834308624,-0.9983512163162231,0.4511667490005493,0.43940064311027527,-0.03008635900914669,29.066041946411133,-9.588116645812988,38.382381439208984,0
406,4060028,-0.045822903513908386,0.057347096502780914,-0.9679293036460876,-0.22962239384651184,0.9350250959396362,0.051191478967666626,31.29528045654297,-10.417970657348633,38.956642150878906,0
407,4070051,-0.029365474358201027,0.04918477311730385,-0.9752514958381653,-0.8995920419692993,-0.0011712464038282633,-1.103564977645874,30.65308952331543,-10.047748565673828,38.46394729614258,0
408,4080101,0.006398007273674011,0.03219492733478546,-0.9810112118721008,0.380980521440506,0.8183785080909729,0.9043598771095276,30.23598861694336,-10.343643188476562,41.30459213256836,0
409,4090023,0.0442182794213295,0.003311055712401867,-1.01833975315094,-0.6043477654457092,0.08192122727632523,0.1256033480167389,30.55092430114746,-11.239998817443848,40.028724670410156,0
410,4099965,-0.07799944281578064,0.052772413939237595,-0.9909115433692932,0.10384391993284225,1.4335447549819946,0.05797577649354935,30.9090633392334,-10.014538764953613,37.788490295410156,0
411,4110072,-0.047506339848041534,0.03449456766247749,-0.9972249865531921,0.4863656461238861,0.529889702796936,-0.38052183389663696,29.647274017333984,-11.665969848632812,39.60599136352539,0
412,4119887,0.05555889755487442,0.1273423433303833,-0.9962080121040344,0.11520660668611526,-0.023821799084544182,-0.08688270300626755,30.822141647338867,-11.302603721618652,39.4751091003418,0
413,4130133,0.012602526694536209,0.0035095959901809692,-1.0096726417541504,0.6447240114212036,0.36886903643608093,-0.2929248511791229,31.260995864868164,-8.804590225219727,38.794532775878906,0
414,4140030,0.011133725754916668,0.06303751468658447,-0.9953041076660156,0.9463717341423035,0.14500968158245087,-0.017289653420448303,29.15168571472168,-10.293814659118652,39.41539001464844,0
415,4149566,-0.023582885041832924,0.027176134288311005,-1.0044071674346924,-0.5896145701408386,0.5669328570365906,-0.1555764079093933,28.91919708251953,-11.241402626037598,41.540462493896484,0
416,4159868,0.04694540053606033,-0.043159376829862595,-1.0206634998321533,0.7668581008911133,-0.4999319314956665,0.33879077434539795,30.800840377807617,-11.217236518859863,40.08555603027344,0
417,4170070,-0.009110291488468647,-0.08846426755189896,-0.9779022336006165,-0.03963823616504669,0.39940157532691956,0.812635600566864,28.15936851501465,-9.270942687988281,39.494964599609375,0
418,4179907,-0.010577291250228882,-0.04111071303486824,-0.9855378866195679,-0.5541396141052246,-0.19616974890232086,0.5156275629997253,28.99510383605957,-9.257583618164062,38.862762451171875,0
419,4190079,0.031610120087862015,0.01723385602235794,-0.9901436567306519,-0.5812873840332031,-0.08273912966251373,-0.10227283090353012,29.537805557250977,-10.469569206237793,41.60463333129883,0
420,4200014,0.012224473990499973,-0.0469665564596653,-0.9913592338562012,-0.33926960825920105,0.1632375419139862,0.13000069558620453,30.06429672241211,-11.395296096801758,39.09861755371094,0
421,4209978,0.014233923517167568,-0.08348411321640015,-1.0037868022918701,-0.2813051640987396,0.7870593667030334,-0.28017789125442505,28.24493408203125,-10.709236145019531,39.57040786743164,0
422,4219889,-0.07317819446325302,-0.03246791288256645,-1.006672978401184,-0.3394922912120819,-0.5157216787338257,0.4083248972892761,29.96938705444336,-9.159574508666992,42.22509765625,0
423,4230184,0.0408560186624527,0.026966599747538567,-1.0019991397857666,-0.9909085035324097,-0.12251897901296616,0.003972270525991917,30.870498657226562,-11.316537857055664,39.21698760986328,0
424,4240224,-0.028934484347701073,0.044859714806079865,-0.9926532506942749,-0.49591031670570374,0.7754766345024109,-0.6237099170684814,30.405847549438477,-9.919322967529297,39.679630279541016,0
425,4249919,-0.10353517532348633,-0.018301598727703094,-1.0096335411071777,0.5625556707382202,-0.21852368116378784,-0.5621384978294373,30.069774627685547,-10.442712783813477,39.1716423034668,0
426,4259838,0.05121752619743347,-0.06870558857917786,-1.0180200338363647,0.854472279548645,-0.146172896027565,-0.49551597237586975,30.58763313293457,-8.89673900604248,40.7468376159668,0
427,4270098,-0.042772069573402405,-0.011908534914255142,-1.0123589038848877,0.26319748163223267,-0.430629163980484,0.6061338186264038,30.6743221282959,-8.338696479797363,40.6043815612793,0
428,4280322,0.05244232341647148,0.006863448768854141,-1.0070860385894775,0.13014109432697296,0.3791758716106415,-0.22156193852424622,29.88046646118164,-9.684422492980957,40.9298095703125,0
429,4290283,0.02448895014822483,-0.02205878496170044,-0.9772491455078125,0.25552940368652344,-0.02830970473587513,-0.8524325489997864,29.917802810668945,-9.745049476623535,39.329044342041016,0
430,4300317,0.05219637602567673,-0.07095561921596527,-1.0042455196380615,-0.49121353030204773,-0.759282648563385,0.575357973575592,30.610136032104492,-9.809469223022461,39.69379425048828,0
431,4310183,0.012950928881764412,0.09059770405292511,-1.0057965517044067,0.6881808638572693,-0.3763214647769928,0.26463958621025085,29.309553146362305,-9.571882247924805,38.52340316772461,0
432,4320138,0.016518762335181236,-0.040309563279151917,-1.0286495685577393,-0.9047486782073975,0.13806627690792084,0.9119865894317627,31.74489402770996,-9.045646667480469,38.925758361816406,0
433,4329912,0.04140864312648773,-0.005474301986396313,-1.008937954902649,0.49559828639030457,-0.11468220502138138,-0.8158705830574036,28.226497650146484,-9.352283477783203,40.77564239501953,0
434,4340144,-0.03845493867993355,-0.008654522709548473,-0.994845986366272,-0.6608151793479919,-0.6848456859588623,-0.043031975626945496,29.428281784057617,-10.202447891235352,39.52052688598633,0
435,4350133,0.04354188218712807,-0.0395619161427021,-1.002059817314148,-0.5070192813873291,-0.49420467019081116,0.2831180989742279,30.571109771728516,-10.85276985168457,39.63533020019531,0
436,4359878,-0.11100853979587555,0.045474354177713394,-1.0052307844161987,0.3896287977695465,-0.5723118185997009,0.5971939563751221,30.963884353637695,-11.251440048217773,40.671634674072266,0
437,4370044,0.0058858878910541534,0.028282755985856056,-1.0338014364242554,-0.3518103063106537,-0.6706609129905701,0.5011754035949707,31.534896850585938,-10.908967018127441,39.862701416015625,0
438,4380205,-0.02167002484202385,0.06419515609741211,-1.0100587606430054,-0.10612066090106964,0.5763943195343018,0.5015893578529358,28.664661407470703,-10.982177734375,37.73493576049805,0
439,4389799,-0.007874708622694016,0.005888515617698431,-0.9938944578170776,-0.3952653408050537,-0.20406405627727509,0.25889089703559875,30.0042781829834,-9.63097858428955,39.95877456665039,0
440,4400160,0.05133042111992836,-0.023820068687200546,-1.0010961294174194,0.6055964827537537,0.32416442036628723,0.11393250524997711,29.090770721435547,-8.716660499572754,40.546409606933594,0
441,4410169,-0.019998162984848022,0.02880035527050495,-1.0065783262252808,0.47218865156173706,-0.3368683457374573,0.06796808540821075,31.33177375793457,-10.541264533996582,39.29157257080078,0
442,4420042,-0.025030454620718956,0.10573133081197739,-1.0077056884765625,-0.4950900077819824,0.19475287199020386,0.5661171078681946,29.986326217651367,-10.329992294311523,39.805423736572266,0
443,4429833,-0.09908540546894073,-0.0738954022526741,-0.9656630158424377,-0.17163197696208954,0.27496322989463806,0.6652920842170715,28.58493423461914,-9.830997467041016,38.48569107055664,0
444,4440177,-0.020890645682811737,-0.11586907505989075,-0.9943552017211914,-0.13293349742889404,-0.10338273644447327,0.28590869903564453,30.762908935546875,-8.568318367004395,40.65047073364258,0
445,4449988,-0.02265212871134281,0.03703312948346138,-0.9937470555305481,0.02003723941743374,0.0064065782353281975,-0.11046876758337021,30.53174591064453,-10.486330032348633,40.25587844848633,0
446,4459820,-0.08769096434116364,0.04157273843884468,-1.0402393341064453,0.007506294175982475,0.6267590522766113,-1.0604336261749268,28.427827835083008,-10.5504789352417,39.84395217895508,0
447,4470050,0.09400071948766708,-0.01893453113734722,-1.008067011833191,-0.13890181481838226,0.23312045633792877,-0.20833277702331543,30.891691207885742,-10.220526695251465,41.55469512939453,0
448,4479801,0.011880016885697842,0.028497925028204918,-0.9891951084136963,0.003771941876038909,-0.30830118060112,-0.39295896887779236,29.964052200317383,-10.205554008483887,40.30513000488281,0
449,4489717,-0.027362314984202385,-0.04324784129858017,-1.0017776489257812,-0.039077237248420715,0.23269754648208618,-0.6659627556800842,30.405960083007812,-9.362987518310547,40.49455642700195,0
450,4500101,0.0337398536503315,0.022769270464777946,-0.9737181067466736,0.3037875294685364,-0.3277026116847992,0.29237785935401917,31.286733627319336,-11.771195411682129,39.760684967041016,0
451,4510109,0.03756318986415863,0.017876727506518364,-0.9984596967697144,-0.13897043466567993,0.21665121614933014,-0.28469282388687134,29.305322647094727,-11.465757369995117,40.21857452392578,0
452,4520080,-0.013953381218016148,-0.046009548008441925,-1.0552468299865723,0.15549835562705994,-0.39177405834198,0.3466654419898987,29.616676330566406,-11.300248146057129,39.413368225097656,0
453,4529988,-0.050003230571746826,-0.034312907606363297,-1.023065209388733,-0.35261833667755127,-0.7768547534942627,0.17880405485630035,29.96885871887207,-10.087661743164062,41.399845123291016,0
454,4539784,-0.02534739300608635,0.006327745039016008,-1.027927279472351,-0.16198019683361053,-0.5105339288711548,0.5824735164642334,29.367887496948242,-11.081501007080078,39.48585510253906,0
455,4550006,0.11158275604248047,-0.017453458160161972,-0.9717426896095276,0.39840924739837646,-0.4503064453601837,-0.7425810098648071,30.034801483154297,-10.151098251342773,40.086666107177734,0
456,4560022,0.003733299672603607,0.04869614914059639,-1.0322997570037842,-0.24851073324680328,0.4382789134979248,0.6262823939323425,30.036006927490234,-10.38739013671875,39.79471206665039,0
457,4570091,0.0931977704167366,-0.010395157150924206,-1.023107647895813,0.3900403678417206,-0.7917473912239075,-0.24432437121868134,29.086963653564453,-10.351923942565918,39.329227447509766,0
458,4579889,0.0075173391960561275,0.04408600926399231,-1.0139062404632568,-0.984123945236206,0.33253681659698486,0.47072914242744446,30.85931396484375,-11.568879127502441,39.35057067871094,0
459,4589840,0.0005096939858049154,0.05012519657611847,-0.985351026058197,0.609707236289978,-0.3875986933708191,0.24310284852981567,29.75858497619629,-10.155582427978516,39.99852752685547,0
460,4599745,0.059781674295663834,-0.006534460000693798,-0.9841815829277039,0.5925533771514893,0.34793582558631897,0.3325946033000946,28.406539916992188,-9.571566581726074,37.115318298339844,0
461,4610166,-0.008397391065955162,-0.029281407594680786,-1.0061079263687134,-0.41476696729660034,-0.010830383747816086,-0.5832031965255737,31.31736183166504,-8.749283790588379,38.61357116699219,0
462,4620119,-0.009725881740450859,0.021646246314048767,-0.9913700819015503,-0.7521834373474121,-0.031079033389687538,-1.5861034393310547,29.86429214477539,-9.32463264465332,40.21472930908203,0
463,4629918,0.1666211038827896,0.041056036949157715,-1.006589412689209,0.40306127071380615,-0.37631624937057495,-0.08939192444086075,28.96609878540039,-12.240479469299316,39.150550842285156,0
464,4640002,-0.08135142177343369,-0.012291926890611649,-0.973206639289856,0.2026495337486267,0.14713381230831146,0.35262346267700195,29.649688720703125,-9.307195663452148,40.15418243408203,0
465,4650058,0.046288322657346725,-0.09041429311037064,-1.0190178155899048,-0.20365911722183228,2.4819408281473443e-05,-0.3897577226161957,30.290142059326172,-8.5473051071167,40.205970764160156,0
466,4660034,-0.093144491314888,-0.020021751523017883,-0.9770024418830872,-0.8267545700073242,-0.05283419042825699,-0.4085428714752197,31.02431869506836,-10.679622650146484,40.6074104309082,0
467,4670078,-0.029487602412700653,0.030014675110578537,-0.9732042551040649,0.15695951879024506,-0.2371368259191513,-0.001116427592933178,29.626249313354492,-9.017088890075684,39.53033447265625,0
468,4679921,-0.004920435603708029,0.03356188163161278,-1.0138322114944458,0.2733575701713562,1.1049023866653442,0.5477681159973145,29.46512222290039,-10.046971321105957,39.43619918823242,0
469,4690022,0.04195830971002579,-0.07098063081502914,-1.002062201499939,-0.42719486355781555,-0.46985602378845215,0.26763635873794556,28.701013565063477,-10.081231117248535,39.821720123291016,0
470,4700111,-0.03481651470065117,0.03660697489976883,-1.0077481269836426,-0.08213330060243607,-0.39169663190841675,0.007284411694854498,30.7972354888916,-8.719881057739258,41.196956634521484,0
471,4710144,0.12209506332874298,-0.00952516496181488,-0.9899086356163025,-0.2576422691345215,-0.42274826765060425,0.025350039824843407,31.165790557861328,-8.899958610534668,41.09187316894531,0
472,4719941,-0.15102598071098328,-0.03214909881353378,-1.006933569908142,0.025105822831392288,-0.2681652009487152,-0.37065720558166504,31.506481170654297,-11.863529205322266,38.71369552612305,0
473,4730106,-0.04513747617602348,-0.0012571511324495077,-1.0009723901748657,-0.03003385290503502,0.6853821277618408,0.6788051128387451,28.969486236572266,-10.778196334838867,39.277835845947266,0
474,4739905,0.016340097412467003,-0.04070132598280907,-1.0199353694915771,-0.04948175698518753,-0.7725284099578857,0.5699707865715027,30.834951400756836,-10.308381080627441,41.45143508911133,0
475,4750262,-0.04881028085947037,-0.06010232865810394,-0.9507547616958618,0.6061593890190125,-0.5107758641242981,0.30566835403442383,29.63651466369629,-9.615205764770508,39.31726837158203,0
476,4760091,-0.0471656434237957,-0.014438563957810402,-0.9827850461006165,-0.25591960549354553,0.047002073377370834,-0.3939123749732971,30.949657440185547,-12.208171844482422,39.8061637878418,0
477,4770131,0.017608745023608208,-0.06553272902965546,-1.0113784074783325,-0.5053591132164001,0.002813199767842889,0.09017397463321686,28.214527130126953,-10.294078826904297,40.787410736083984,0
478,4780097,-0.00014801882207393646,-0.08883368968963623,-0.9869186878204346,-0.7749931216239929,-0.3005896806716919,0.5646940469741821,29.320484161376953,-10.043806076049805,39.19935607910156,0
479,4789975,0.03453835844993591,-0.10623414814472198,-1.0175490379333496,0.716672956943512,-0.18591664731502533,1.0501484870910645,29.495311737060547,-7.992249011993408,38.78303909301758,0
480,4799810,0.019331198185682297,-0.050818074494600296,-1.0139397382736206,-0.2643175721168518,0.05270478129386902,-0.672272264957428,30.382965087890625,-8.567403793334961,40.15231704711914,0
481,4809581,0.040088947862386703,0.07649112492799759,-0.9846674799919128,-0.6742827892303467,-0.005272330716252327,-0.42821788787841797,32.14847946166992,-10.359403610229492,41.3805046081543,0
482,4819969,0.01754296012222767,0.03304387256503105,-1.00350022315979,-0.03019598498940468,0.41744211316108704,0.16519612073898315,28.884260177612305,-11.133367538452148,39.39664840698242,0
483,4829834,-0.07913864403963089,-0.13184958696365356,-1.0218110084533691,-0.9984381794929504,0.24690081179141998,-0.17836178839206696,28.881919860839844,-11.082660675048828,41.29063034057617,0
484,4839933,0.017530368641018867,0.1101311594247818,-0.9864944219589233,0.0795888602733612,-0.3776349723339081,-0.8354418277740479,29.782615661621094,-9.270526885986328,41.71628189086914,0
485,4849980,0.013649683445692062,-0.020723536610603333,-0.9410760402679443,0.40054890513420105,-0.6977400779724121,0.6641968488693237,30.762386322021484,-9.152721405029297,40.47507095336914,0
486,4860157,-0.08400863409042358,-0.005066673271358013,-1.0392811298370361,0.2074456363916397,-0.784547746181488,0.42827197909355164,31.197399139404297,-9.393194198608398,41.14242172241211,0
487,4870170,-0.09572211652994156,-0.03819890320301056,-0.9725756645202637,0.7271315455436707,0.6041194200515747,0.029032869264483452,29.91696548461914,-8.303746223449707,40.90074920654297,0
488,4879747,-0.018627971410751343,0.05854163318872452,-1.0196479558944702,-0.8346454501152039,-0.6522701978683472,-0.16178472340106964,30.958555221557617,-9.97225570678711,38.93418502807617,0
489,4890030,0.00011598804121604189,-0.026300013065338135,-0.9944036602973938,-0.8414183855056763,-0.7094492316246033,0.6014079451560974,30.510099411010742,-10.747424125671387,39.446922302246094,0
490,4899919,0.0847272276878357,-0.02319425716996193,-0.9825051426887512,0.7411038875579834,0.22347064316272736,-0.5036506056785583,30.30950927734375,-12.324945449829102,41.74430465698242,0
491,4910078,0.0539839044213295,0.04742704704403877,-1.0109710693359375,-0.03406812995672226,-0.5059002637863159,0.49760371446609497,31.240116119384766,-10.97461986541748,38.65654373168945,0
492,4919915,0.024282967671751976,0.017149614170193672,-0.9988806843757629,-0.1812702864408493,0.49231603741645813,0.27643275260925293,29.57411003112793,-10.080779075622559,40.57403564453125,0
493,4930012,0.005198401398956776,0.04736795276403427,-0.9942793250083923,0.2581474483013153,-0.300248384475708,0.8212757706642151,29.387374877929688,-11.026691436767578,38.68096160888672,0
494,4939990,0.06190803274512291,-0.08899564296007156,-0.9882925748825073,1.0430307388305664,0.3219016194343567,-0.9922149181365967,30.00233268737793,-10.376246452331543,40.09831619262695,0
495,4950163,0.01062904391437769,0.05024866759777069,-1.0003166198730469,-0.5044613480567932,-0.21303512156009674,0.0016111659351736307,30.690475463867188,-11.781363487243652,38.762142181396484,0
496,4960193,0.08737365901470184,0.02274242602288723,-1.004237174987793,-0.7271375060081482,0.30786705017089844,0.25546175241470337,30.99980926513672,-10.714241981506348,39.56086349487305,0
497,4969841,0.0005868758307769895,0.03996754065155983,-0.9983835220336914,0.4275537133216858,-0.6035007238388062,1.1076269149780273,30.891935348510742,-9.670700073242188,42.36989974975586,0
498,4979722,0.043084993958473206,-0.04374847561120987,-1.0029476881027222,-0.4314076602458954,0.07325282692909241,0.13372577726840973,30.12918472290039,-10.339920043945312,40.9779052734375,0
499,4990276,-0.08996065706014633,-0.030755173414945602,-1.0360171794891357,0.13603836297988892,0.2901548147201538,-0.07048746198415756,30.405614852905273,-9.736671447753906,38.81325149536133,0
500,5000228,-0.061767030507326126,0.02352116070687771,-0.9880744218826294,-0.7432249784469604,0.05252772942185402,-0.34311068058013916,30.542736053466797,-9.420859336853027,40.4322509765625,0
501,5010082,-0.01937076635658741,-0.06264445185661316,-0.9987838268280029,-0.1275787353515625,0.18801115453243256,0.5467818379402161,30.85786247253418,-9.58049201965332,41.12708282470703,0
502,5020071,0.014216347597539425,0.008354024030268192,-1.0020774602890015,0.7237605452537537,0.8170945644378662,0.29827404022216797,29.426101684570312,-9.380870819091797,39.37010955810547,0
503,5029940,0.015390321612358093,0.1284368634223938,-0.9919530153274536,0.12076374143362045,0.07229272276163101,0.32025018334388733,30.807811737060547,-9.200002670288086,40.1499137878418,0
504,5039990,0.039091166108846664,0.012116027995944023,-0.9997344613075256,-0.246994748711586,-0.09982127696275711,0.7296572923660278,28.240692138671875,-9.750018119812012,39.1546516418457,0
505,5049811,-0.051070284098386765,0.018558498471975327,-1.0107991695404053,0.26001840829849243,-0.12023844569921494,0.8019512295722961,29.582012176513672,-9.255526542663574,40.1351318359375,0
506,5060398,-0.003617233829572797,-0.01900665834546089,-1.005295753479004,-0.712828516960144,-0.21695037186145782,0.41965252161026,31.52730369567871,-12.189725875854492,37.836605072021484,0
507,5070197,0.09346695244312286,0.004723065998405218,-0.9878596067428589,0.6606139540672302,0.3147980272769928,-0.6883977651596069,29.96099853515625,-9.093852043151855,38.92617416381836,0
508,5080142,-0.01159241609275341,-0.05084918811917305,-0.987738311290741,-0.1419769823551178,0.35796695947647095,-0.1687077432870865,29.343849182128906,-9.535101890563965,39.2361946105957,0
509,5090255,-0.06159881129860878,0.0016766873886808753,-1.0051535367965698,-0.08189111202955246,0.2466696947813034,-0.17479297518730164,29.75774383544922,-8.87232494354248,38.845611572265625,0
510,5099893,0.02611423283815384,0.03858853504061699,-1.0409554243087769,-0.5803192853927612,0.13200287520885468,-0.13793960213661194,27.70631217956543,-9.538661003112793,38.86497116088867,0
511,5109970,0.01801164261996746,0.08245673030614853,-1.024836778640747,0.3643111288547516,0.623403012752533,-0.047443319112062454,30.958749771118164,-8.649728775024414,39.1696662902832,0
512,5119818,-0.06743229180574417,0.0010723387822508812,-0.993645966053009,-0.6760322451591492,0.17377188801765442,-0.7984883785247803,28.193504333496094,-10.571596145629883,38.47689437866211,0
513,5129940,-0.01975521631538868,-0.008219019509851933,-1.0257571935653687,0.30388930439949036,-0.1229739561676979,0.48962002992630005,30.836017608642578,-10.164921760559082,42.048946380615234,0
514,5140062,0.054096609354019165,-0.02656584233045578,-1.0113580226898193,0.049687083810567856,0.060097549110651016,-0.34188467264175415,28.795785903930664,-10.084670066833496,39.97269821166992,0
515,5150073,0.0006613619043491781,0.002336573787033558,-0.997795820236206,-0.38877755403518677,-0.6288309097290039,-0.37947338819503784,30.67698097229004,-10.096033096313477,38.55438995361328,0
516,5160057,-0.00841719750314951,0.04352807253599167,-0.9687609672546387,-0.8185566067695618,0.35726243257522583,1.1841338872909546,28.70630645751953,-8.469915390014648,41.43400955200195,0
517,5169909,-0.07755079120397568,0.00016747709014452994,-1.0047451257705688,0.16291752457618713,-0.3025488555431366,0.2191302329301834,30.711423873901367,-9.082470893859863,38.26131057739258,0
518,5179966,-0.07797805219888687,0.11524242162704468,-0.9616367816925049,-0.7004092335700989,-0.7936310768127441,0.5141097903251648,30.24056625366211,-9.41995906829834,40.25141525268555,0
519,5190270,-0.08320855349302292,0.05035003274679184,-0.987403929233551,0.600690484046936,0.34241312742233276,0.2720992863178253,28.21198844909668,-10.637255668640137,40.13863754272461,0
520,5200135,0.011603409424424171,-0.021843409165740013,-0.9750148057937622,0.3681904971599579,-0.27395984530448914,0.35268041491508484,29.74544334411621,-9.67463207244873,40.58103561401367,0
521,5209771,0.003380272537469864,-0.02013963647186756,-0.9701824188232422,0.4231528043746948,-0.49147477746009827,0.28792718052864075,29.29810905456543,-10.247106552124023,38.10493087768555,0
522,5219972,0.012887667864561081,-0.06011350452899933,-1.0365549325942993,0.8701026439666748,-0.7655448913574219,0.03658795356750488,29.386524200439453,-10.455805778503418,41.67800521850586,0
523,5229714,-0.040736082941293716,0.03165348991751671,-0.9577136039733887,0.24954532086849213,0.5003659725189209,0.7023376822471619,30.202312469482422,-10.477993965148926,37.96238708496094,0
524,5239829,-0.07317223399877548,0.03818291425704956,-1.013922929763794,-0.6829735040664673,0.0015127981314435601,0.2421659231185913,31.927785873413086,-10.24372386932373,41.369483947753906,0
525,5250061,-0.07860900461673737,-0.0026176301762461662,-1.016995906829834,-0.3744150698184967,0.5467851758003235,-0.011282328516244888,29.5422420501709,-11.173336029052734,40.47695541381836,0
526,5260122,-0.01200238149613142,-0.04000014439225197,-0.9986876845359802,0.2962297201156616,-0.17546002566814423,0.6325148344039917,31.34461212158203,-12.030941009521484,39.14237976074219,0
527,5269960,0.0011350567219778895,0.04926140606403351,-0.9542424082756042,0.07432567328214645,-1.0617403984069824,-0.04228288680315018,28.797372817993164,-10.28915023803711,40.792030334472656,0
528,5280182,0.023270970210433006,0.04857282340526581,-0.9884667992591858,-0.3312974274158478,-0.3860742449760437,0.3187845051288605,29.646224975585938,-11.905861854553223,40.36249923706055,0
529,5290058,-0.009338975884020329,0.03169940412044525,-1.0191383361816406,0.20994189381599426,0.761762261390686,-0.11364340037107468,30.356447219848633,-9.715129852294922,40.8786735534668,0
530,5299940,-0.01432863250374794,-0.002181166550144553,-0.999718427658081,0.8497523665428162,0.010084318928420544,0.5192432999610901,29.859115600585938,-10.325296401977539,41.1167106628418,0
531,5310096,-0.0697670429944992,0.010630685836076736,-1.000436544418335,0.5730301737785339,0.3075157403945923,0.05723394453525543,30.430612564086914,-10.324264526367188,40.46903610229492,0
532,5319817,0.020805438980460167,-0.051492638885974884,-0.9889225959777832,0.42548030614852905,0.6271295547485352,0.9196354746818542,30.47410774230957,-10.693683624267578,40.56867218017578,0
533,5329903,-0.040741607546806335,-0.053914546966552734,-1.0063214302062988,0.37760019302368164,-0.13392551243305206,0.48179975152015686,29.04703712463379,-9.9156494140625,39.648929595947266,0
534,5339883,-0.01606811210513115,0.004796965047717094,-0.9875888824462891,-0.017258666455745697,-0.012694280594587326,-0.4017825126647949,31.388017654418945,-9.596173286437988,40.0177116394043,0
535,5349906,0.07999378442764282,0.030654195696115494,-0.9698140621185303,0.43120497465133667,0.08113043010234833,-1.3703560829162598,30.553447723388672,-7.981631755828857,40.81049728393555,0
536,5360145,-0.11951717734336853,-0.045586198568344116,-0.9731330871582031,0.18176685273647308,0.1713704913854599,0.5856363773345947,29.49226951599121,-8.589794158935547,38.316558837890625,0
537,5369968,0.062090206891298294,0.029475489631295204,-0.9822888970375061,-0.2618831694126129,0.3218553960323334,0.30617865920066833,27.396921157836914,-10.693220138549805,39.848480224609375,0
538,5379942,0.019667787477374077,-0.02696344070136547,-0.9976980090141296,-0.12009060382843018,0.5621783137321472,-0.8409071564674377,30.51811981201172,-10.022432327270508,40.250308990478516,0
539,5389692,-0.04576433449983597,0.0559389628469944,-0.9836977124214172,0.1951177567243576,-0.12332042306661606,-0.6524325013160706,30.58388328552246,-10.475709915161133,40.06704330444336,0
540,5399936,0.013686821796000004,0.051287148147821426,-0.9944474101066589,-0.35698047280311584,0.06322260200977325,0.33008110523223877,28.911518096923828,-10.375690460205078,38.74549102783203,0
541,5410099,0.013391517102718353,-0.06768940389156342,-0.9681571125984192,-0.10023290663957596,0.23899509012699127,0.18626083433628082,28.826162338256836,-9.942241668701172,41.16393280029297,0
542,5420079,0.027251573279500008,0.016778873279690742,-0.9478719234466553,0.02987072803080082,0.3280106782913208,0.04890827089548111,30.787954330444336,-8.477801322937012,39.57107162475586,0
543,5429949,-0.061433225870132446,0.047922611236572266,-0.9777508974075317,-0.6508733034133911,-0.021418586373329163,-0.04327627643942833,30.557514190673828,-9.95658016204834,40.44684982299805,0
544,5439726,0.01882685162127018,0.011073716916143894,-0.981275737285614,-0.33628296852111816,-0.19018535315990448,-0.0733388289809227,29.650835037231445,-9.919724464416504,41.160762786865234,0
545,5449983,0.038744017481803894,0.03841022402048111,-1.0035549402236938,0.4609220027923584,-0.011887574568390846,-0.5500729084014893,29.41361427307129,-9.085461616516113,40.52587890625,0
546,5460210,0.026818860322237015,0.012599284760653973,-0.9661234617233276,-0.06545541435480118,-0.8726546764373779,-0.3247767984867096,29.568843841552734,-8.00523567199707,40.3708610534668,0
547,5470053,0.06996053457260132,-0.033059824258089066,-1.008193850517273,1.0763357877731323,0.19448822736740112,0.9350497126579285,29.66645622253418,-9.478961944580078,40.419132232666016,0
548,5480083,0.021584324538707733,0.027243763208389282,-1.0179708003997803,-0.20512598752975464,1.4472827911376953,-0.28730177879333496,29.262168884277344,-7.278582572937012,38.85063171386719,0
549,5490058,0.0001157150836661458,0.018051084131002426,-0.9995481967926025,-0.692366361618042,0.26229578256607056,-0.6700761318206787,29.22023582458496,-10.1907320022583,40.170799255371094,0
550,5500180,0.04575495421886444,0.02440349943935871,-0.9962435364723206,0.1559658944606781,-0.2605331540107727,0.6275888681411743,30.402437210083008,-11.382662773132324,39.68464279174805,0
551,5509879,-0.022311514243483543,0.017328744754195213,-1.0149708986282349,-0.7538412809371948,-1.2439837455749512,0.07897486537694931,31.536354064941406,-7.630362510681152,38.754459381103516,0
552,5520062,-0.043375130742788315,-0.07479570806026459,-0.9944962859153748,-0.9532123804092407,0.044420573860406876,-0.3980503976345062,30.912961959838867,-7.768348217010498,40.350608825683594,0
553,5529976,0.0830032154917717,-0.05906253680586815,-0.9957424402236938,0.4577331840991974,-0.22679151594638824,-0.20034971833229065,30.210527420043945,-10.399826049804688,39.38787841796875,0
554,5539763,-0.03795729577541351,-0.09153593331575394,-0.9970787167549133,-0.1428312510251999,-0.43605750799179077,0.21615643799304962,31.221803665161133,-10.707171440124512,41.28761291503906,0
555,5550083,-0.05741410702466965,-0.038931526243686676,-1.0271340608596802,-0.33645689487457275,-0.2013765275478363,0.23143646121025085,31.196195602416992,-9.388324737548828,40.1070671081543,0
556,5559889,-0.022703437134623528,0.007162068504840136,-1.021370530128479,-0.020110376179218292,0.7538151144981384,-0.9155536890029907,29.414440155029297,-9.253923416137695,40.36129379272461,0
557,5570111,0.008363296277821064,0.06589363515377045,-1.0058586597442627,0.10731018334627151,0.1862281709909439,0.22390216588974,29.611459732055664,-9.330965042114258,39.98909378051758,0
558,5579832,-0.0488082617521286,-0.010073711164295673,-1.0085951089859009,-0.1307140439748764,-0.14943459630012512,-1.05897057056427,31.47603416442871,-9.995646476745605,39.325077056884766,0
559,5590212,-0.0691877156496048,0.016438262537121773,-0.9826527833938599,-0.07331286370754242,-0.2783675789833069,0.4157302677631378,29.341094970703125,-10.151524543762207,41.39219665527344,0
560,5599969,-0.00621147733181715,0.015482633374631405,-1.0169023275375366,0.5817524790763855,-0.4804403781890869,-0.4892796576023102,28.721799850463867,-9.42029094696045,40.772647857666016,0
561,5610055,-0.03649593144655228,-0.06720145046710968,-0.9819421172142029,0.3208601176738739,0.625018298625946,-0.3414931893348694,28.187833786010742,-11.629534721374512,40.088233947753906,0
562,5620031,0.024835454300045967,0.07717752456665039,-0.989560067653656,-0.4176313877105713,0.514596164226532,0.009441154077649117,31.093807220458984,-10.836559295654297,38.747108459472656,0
563,5630013,-0.039586279541254044,-0.025164058431982994,-0.9864904284477234,-0.24486993253231049,0.5463075637817383,-0.9335665702819824,29.922922134399414,-8.81192398071289,40.31053161621094,0
564,5639889,0.03423512727022171,0.0006767960148863494,-1.0058692693710327,-0.423723429441452,-0.08285480737686157,-0.2560531795024872,29.119165420532227,-10.508069038391113,38.400306701660156,0
565,5649856,-0.029263388365507126,0.03364625200629234,-1.021536946296692,-0.15659970045089722,1.2130191326141357,-0.5966708064079285,28.553695678710938,-9.644343376159668,41.038612365722656,0
566,5659890,-0.056501809507608414,0.07630092650651932,-0.9924723505973816,-0.37133118510246277,0.14389722049236298,0.3248516023159027,30.90781593322754,-11.461357116699219,40.04903030395508,0
567,5669931,-0.019049806520342827,0.019920630380511284,-1.0015560388565063,0.2344658374786377,0.005827650427818298,0.09752783924341202,30.53600311279297,-9.721872329711914,40.42371368408203,0
568,5679998,-0.06406614184379578,-0.02026275172829628,-1.005515456199646,-0.08094649016857147,0.08149176090955734,0.7635820508003235,29.73525619506836,-10.226885795593262,42.02547073364258,0
569,5690190,-0.010229857638478279,0.06421130150556564,-1.0004106760025024,0.8907448053359985,-0.9592349529266357,-0.11363536864519119,28.97636604309082,-11.245732307434082,38.96307373046875,0
570,5699892,-0.06068674847483635,-0.016893284395337105,-1.0446949005126953,-0.9400381445884705,0.07052643597126007,0.004192181397229433,29.095294952392578,-9.967369079589844,40.86765670776367,0
571,5709978,0.04033302515745163,0.08247803151607513,-1.0344313383102417,-0.5170966386795044,-1.0255231857299805,0.48332566022872925,31.296876907348633,-10.809940338134766,39.62455368041992,0
572,5720212,0.03858829662203789,0.07332555949687958,-1.0562019348144531,0.2467963844537735,0.9742285013198853,-0.163076713681221,30.231002807617188,-9.823151588439941,42.79230499267578,0
573,5729589,-0.07712885737419128,0.05470002442598343,-0.9817116260528564,0.45465293526649475,0.2591651380062103,1.053730845451355,31.153301239013672,-11.505536079406738,40.31300354003906,0
574,5739930,0.060395196080207825,-0.06046643853187561,-0.9878985285758972,-0.28717467188835144,-0.8250969648361206,-0.6426324248313904,30.468881607055664,-10.475600242614746,41.4869384765625,0
575,5749705,-0.017633814364671707,-0.031232865527272224,-1.0081380605697632,-0.4538494348526001,-0.5045219659805298,-0.8368471264839172,29.888256072998047,-9.287652015686035,40.177093505859375,0
576,5760051,-0.019752640277147293,-0.02285957522690296,-0.9756579399108887,-0.6392499208450317,0.3252488374710083,0.26913952827453613,29.094085693359375,-9.301597595214844,39.58866500854492,0
577,5769993,0.05618773400783539,-0.029187463223934174,-1.0013864040374756,-0.5196964144706726,-0.23734192550182343,-0.26014578342437744,30.423606872558594,-10.336111068725586,40.71414566040039,0
578,5779869,0.020541297271847725,0.1276690810918808,-0.9811592698097229,0.24527229368686676,-0.7728150486946106,0.20011566579341888,30.40180206298828,-11.195240020751953,37.54117202758789,0
579,5789907,-0.03174792230129242,-0.04216332733631134,-0.995246410369873,0.4902755618095398,0.7199100852012634,1.2438675165176392,29.591524124145508,-10.212789535522461,40.1787109375,0
580,5799810,0.06249364838004112,0.0621819868683815,-1.0125789642333984,0.6406649351119995,-0.10141944885253906,-0.26886844635009766,30.20461654663086,-11.051257133483887,40.033695220947266,0
581,5809924,-0.057069629430770874,-0.06296102702617645,-0.9593803286552429,-0.07450179755687714,-0.6873564720153809,0.5265334844589233,29.38067626953125,-11.159232139587402,38.168113708496094,0
582,5819540,-0.04732298478484154,-0.04012500122189522,-0.9967624545097351,-0.0820540264248848,0.37030696868896484,-0.08050832897424698,29.312162399291992,-9.488322257995605,40.70150375366211,0
583,5829790,-0.012580265291035175,-0.11329807341098785,-0.9912693500518799,-0.40181228518486023,0.754790186882019,-0.16220247745513916,31.261051177978516,-10.717798233032227,40.32447814941406,0
584,5840162,0.08059689402580261,-0.00711806258186698,-1.0069252252578735,0.6129422783851624,-0.6646120548248291,-0.05673372372984886,31.2288875579834,-9.022278785705566,39.41750717163086,0
585,5849992,-0.11421223729848862,-0.016279226168990135,-0.980620801448822,-0.4700903594493866,0.13843031227588654,-0.84609454870224,27.48657989501953,-10.013638496398926,40.580177307128906,0
586,5859891,0.022543862462043762,0.02670666202902794,-0.9925743341445923,-0.6631130576133728,-0.8213640451431274,0.15848495066165924,30.58112335205078,-11.013775825500488,40.97138977050781,0
587,5869943,0.04062584415078163,-0.023665709421038628,-0.9979623556137085,0.8375259637832642,-0.13119830191135406,0.02725173532962799,30.759431838989258,-10.195995330810547,39.97221755981445,0
588,5879924,0.059204377233982086,0.06799115985631943,-1.020011305809021,-1.230860948562622,0.12090820074081421,-0.3006914556026459,29.392871856689453,-13.232786178588867,40.4510612487793,0
589,5890114,0.007702451664954424,0.03313133865594864,-0.9826749563217163,0.6890027523040771,-0.06699956208467484,-0.1803005486726761,30.52210807800293,-11.027749061584473,40.44898986816406,0
590,5900117,-0.05875295773148537,0.020318878814578056,-0.9835577011108398,0.12301114946603775,0.06843116134405136,-0.5578152537345886,32.10489273071289,-10.463888168334961,40.518009185791016,0
591,5909933,-0.0007546998676843941,-0.055339448153972626,-1.027665138244629,-0.0837673619389534,0.39429405331611633,-0.8195644617080688,30.70895004272461,-8.892792701721191,41.2186279296875,0
592,5919723,0.08059906214475632,-0.03551861271262169,-0.9664191603660583,-0.39074599742889404,-0.0845789760351181,-0.2524161636829376,31.693395614624023,-11.094618797302246,38.89772033691406,0
593,5930020,0.06617999076843262,-0.0615856796503067,-1.0245859622955322,-0.3166889548301697,-0.12627728283405304,0.5879279375076294,29.63620948791504,-9.724973678588867,41.89573669433594,0
594,5939970,-0.02551756612956524,-0.06964074075222015,-0.996780514717102,-0.5822896957397461,0.5001525282859802,-0.5351107120513916,30.4859561920166,-9.22987174987793,40.65919494628906,0
595,5949984,0.014964536763727665,-0.029543165117502213,-1.0197449922561646,-0.10150978714227676,0.22758910059928894,-0.43333157896995544,30.5382022857666,-10.024580955505371,42.02592086791992,0
596,5960022,-0.028830287978053093,-0.03675704449415207,-0.9778942465782166,0.4695509672164917,0.052001338452100754,0.048366695642471313,28.772165298461914,-9.942687034606934,40.05354309082031,0
597,5970231,-0.036282729357481,-0.03936229273676872,-1.002192497253418,0.07469456642866135,0.19221247732639313,-0.7220021486282349,30.067121505737305,-10.834662437438965,40.88017654418945,0
598,5980022,-0.0085557010024786,0.046827785670757294,-1.010300874710083,-0.3131762146949768,-1.2119929790496826,-0.06980206817388535,29.713336944580078,-9.133389472961426,39.7040901184082,0
599,5989915,-0.03507686406373978,0.02681594155728817,-1.008266568183899,0.4486176669597626,0.11946377158164978,-0.3776605725288391,30.59023094177246,-10.793272972106934,37.10569763183594,0
600,6000087,-0.006227361038327217,0.0675307884812355,-1.020449161529541,-0.5350172519683838,-0.40342986583709717,-0.40731555223464966,29.99005889892578,-7.416284561157227,40.04448699951172,0
601,6010152,0.02529945969581604,-0.012913773767650127,-1.0341463088989258,0.03282959386706352,-0.46566522121429443,-0.9086496233940125,29.353504180908203,-8.066893577575684,40.672908782958984,0
602,6019879,-0.09750952571630478,0.04331208020448685,-1.0180481672286987,0.033795733004808426,0.1293780356645584,1.0776066780090332,27.99658203125,-10.90550708770752,40.52218246459961,0
603,6030037,0.09095362573862076,-0.019454995170235634,-1.0099304914474487,-0.19414007663726807,-1.0613397359848022,-0.18155303597450256,29.001073837280273,-10.495696067810059,39.63576126098633,0
604,6040001,0.001985869137570262,-0.008969571441411972,-1.0193467140197754,-0.10627879202365875,0.8276766538619995,-0.19340185821056366,30.095542907714844,-8.346575736999512,40.36064147949219,0
605,6050138,0.07045601308345795,0.007115551270544529,-0.9768361449241638,-0.5036922097206116,0.7483513355255127,-0.27068212628364563,29.813446044921875,-8.921323776245117,40.922847747802734,0
606,6060029,-0.022841155529022217,-0.11449995636940002,-0.9986910820007324,0.4449869990348816,0.22519421577453613,-0.43320485949516296,30.523815155029297,-11.485332489013672,39.077388763427734,0
607,6069871,-0.07297172397375107,-0.021251926198601723,-1.0195741653442383,-0.31467434763908386,-0.12786729633808136,0.3377620279788971,29.14699363708496,-9.249985694885254,40.43922424316406,0
608,6080052,-0.005905934609472752,-0.0036422982811927795,-0.9864087104797363,-0.02105030231177807,0.24416665732860565,0.009660123847424984,29.58904266357422,-10.36364459991455,40.433712005615234,0
609,6089924,-0.02049098163843155,0.03281259164214134,-1.0037423372268677,-0.3646888732910156,-0.029282746836543083,0.38807472586631775,29.688493728637695,-11.453625679016113,38.75722122192383,0
610,6100260,-0.08381253480911255,0.05836349353194237,-0.9755095839500427,-0.2641794681549072,-0.572484016418457,0.09992686659097672,29.054401397705078,-10.37772274017334,41.46440124511719,0
611,6110112,-0.03948282450437546,0.008084394037723541,-1.0231825113296509,-0.46022990345954895,0.607801616191864,-0.0983724296092987,30.95160484313965,-9.514687538146973,39.45611572265625,0
612,6119940,0.04397130385041237,0.043623242527246475,-1.0149414539337158,0.24732977151870728,0.6256338953971863,0.04822835698723793,28.20566749572754,-10.996480941772461,38.854156494140625,0
613,6130027,-0.044007349759340286,0.02006150223314762,-0.9821591973304749,-1.1424307823181152,0.4397376477718353,0.13629265129566193,32.47782516479492,-11.703471183776855,39.56969451904297,0
614,6139785,0.055846937000751495,-0.05210559815168381,-1.0135343074798584,0.05324496701359749,-0.9141820669174194,-0.2109776735305786,28.9661922454834,-10.705633163452148,38.454620361328125,0
615,6150053,0.07183264940977097,-0.070302814245224,-1.0300546884536743,-0.7039616107940674,-0.7437030673027039,-0.11832054704427719,29.884056091308594,-8.594188690185547,41.481746673583984,0
616,6159795,-0.01727374456822872,0.05049080774188042,-1.0217455625534058,0.10928752273321152,0.00020800925267394632,5.4612450185231864e-05,30.81768798828125,-10.929304122924805,40.223472595214844,0
617,6169814,-0.11395233869552612,0.007696069311350584,-1.0088130235671997,0.439544141292572,-0.6789405345916748,0.47166404128074646,28.199193954467773,-11.350829124450684,39.95094299316406,0
618,6180172,0.044171083718538284,-0.04021374136209488,-1.0445841550827026,0.755420982837677,-0.36868131160736084,0.1048017293214798,30.99099349975586,-9.64912223815918,41.318756103515625,0
619,6190120,0.009424405172467232,-0.025534261018037796,-0.9883256554603577,0.010964639484882355,0.4362991750240326,-0.024455541744828224,29.51983642578125,-9.511322975158691,39.755958557128906,0
620,6199802,-0.04280975088477135,0.09839638322591782,-0.9967293739318848,0.8438629508018494,0.6213032603263855,-0.7135306596755981,30.129528045654297,-10.321524620056152,40.844356536865234,0
621,6210007,-0.1015680655837059,-0.04928765818476677,-1.0030097961425781,0.048656538128852844,-0.31795814633369446,-0.759239912033081,26.69000816345215,-8.78165054321289,41.95427703857422,0
622,6219867,-0.12309973686933517,0.01895253174006939,-1.0187150239944458,-0.7698390483856201,-0.5428870320320129,-0.06055125966668129,29.402069091796875,-8.537129402160645,39.81329345703125,0
623,6229892,-0.021829957142472267,0.06951567530632019,-1.0148569345474243,0.5059588551521301,0.8292444348335266,0.3620205819606781,28.7475528717041,-9.558088302612305,37.904293060302734,0
624,6240139,-0.048275068402290344,-0.0013614230556413531,-0.9973098635673523,0.3274787962436676,0.03258655220270157,-0.2918897867202759,29.892578125,-7.933711528778076,38.42366409301758,0
625,6249909,-0.0033225365914404392,-0.049752455204725266,-1.0165857076644897,-1.076604962348938,-0.10225824266672134,-0.5249306559562683,29.96937370300293,-9.614977836608887,40.34497833251953,0
626,6260078,-0.003079940564930439,0.10759902000427246,-1.0076621770858765,-0.14526279270648956,-0.6639448404312134,-0.9573530554771423,29.865938186645508,-10.233704566955566,39.12816619873047,0
