seq,time_us,ax,ay,az,gx,gy,gz,mx,my,mz,drop_flag
0,0,-0.06860541552305222,-0.014368930831551552,-1.0213124752044678,0.009895513765513897,0.8090481758117676,-0.25805553793907166,30.293550491333008,-9.718710899353027,41.20161819458008,0
1,10159,-0.04793902114033699,0.05543608218431473,-0.9904763698577881,0.6803393959999084,0.2908855378627777,0.1820191890001297,29.758697509765625,-9.176281929016113,39.95998001098633,0
2,19800,-0.030533352866768837,0.02466406114399433,-1.0055371522903442,-0.3380108177661896,0.13429804146289825,-0.09319975227117538,30.763660430908203,-9.771821975708008,40.06241989135742,0
3,30411,0.07245349138975143,-0.008457299321889877,-1.0392223596572876,-0.5839864015579224,0.6314182281494141,0.02575823664665222,32.12077713012695,-11.357197761535645,38.09634780883789,0
4,40250,0.029487522318959236,0.02208767645061016,-0.9996296167373657,0.9866105318069458,-0.1553529053926468,0.18031828105449677,29.78705406188965,-10.355429649353027,41.36137008666992,0
5,50161,-0.021614335477352142,-0.087607242166996,-0.993274986743927,0.451612263917923,-0.088236004114151,-0.039273347705602646,31.117616653442383,-9.471113204956055,39.376094818115234,0
6,59868,0.004100557416677475,0.04062696173787117,-1.0001212358474731,0.10688351094722748,-0.3162215054035187,0.1729869395494461,31.097211837768555,-9.20981502532959,41.213592529296875,0
7,69913,0.009022465907037258,0.024663781747221947,-1.0040231943130493,0.1834704428911209,-0.35584765672683716,0.7919400930404663,29.24842643737793,-10.755769729614258,40.60956954956055,0
8,79832,-0.009646035730838776,-0.005463579203933477,-0.9705168604850769,-0.6812205910682678,-0.3587699830532074,0.49908149242401123,30.90557861328125,-10.466064453125,41.50941848754883,0
9,90065,-0.0021696342155337334,0.09347750246524811,-0.9945037364959717,-0.14250361919403076,0.4343928396701813,-1.162508249282837,30.447742462158203,-11.764336585998535,39.65653610229492,0
10,99830,-0.04471269249916077,0.008648021146655083,-1.0376191139221191,-0.5028883814811707,0.1305176466703415,-0.31219974160194397,29.47622299194336,-10.635518074035645,39.917022705078125,0
11,109931,-0.022803880274295807,-0.00211109290830791,-1.0100369453430176,-0.31216689944267273,-1.303413987159729,0.5474043488502502,29.981138229370117,-10.396980285644531,41.23524856567383,0
12,120113,-0.021603519096970558,-0.014580030925571918,-1.0154365301132202,0.7744030356407166,0.013242417946457863,0.1210264191031456,29.861515045166016,-9.895907402038574,41.21465301513672,0
13,130059,0.05007275566458702,-0.038940608501434326,-1.01846444606781,-0.030922003090381622,-0.4576020836830139,0.01341288536787033,29.53752899169922,-9.71938419342041,40.2180290222168,0
14,139853,0.014569612219929695,-0.0013320392463356256,-1.0270726680755615,0.15206928551197052,0.48110562562942505,-0.45292457938194275,29.051517486572266,-10.209006309509277,37.841224670410156,0
15,149931,0.0005367278354242444,0.015620640479028225,-0.9985556602478027,-0.20502343773841858,-0.06632135063409805,-0.016676783561706543,29.843473434448242,-9.928099632263184,40.81627655029297,0
16,160001,-0.07173433154821396,0.07071107625961304,-0.9879590272903442,0.22404658794403076,-0.5088388323783875,0.10027028620243073,31.05955696105957,-10.255436897277832,39.42072677612305,0
17,170256,0.034475184977054596,-0.01626943051815033,-1.015103816986084,-0.8983224630355835,-0.6094020009040833,0.18584831058979034,30.466690063476562,-9.291764259338379,41.535274505615234,0
18,180067,0.07048587501049042,0.0214685071259737,-1.0098862648010254,0.03536033257842064,-0.3714098334312439,0.16673964262008667,30.15700340270996,-9.40979290008545,39.5394401550293,0
19,190165,-0.06666798144578934,-0.03923121467232704,-0.985607385635376,0.10767808556556702,0.7413255572319031,-0.180104598402977,28.942495346069336,-10.897224426269531,40.641292572021484,0
20,200089,-0.035176802426576614,-0.10283876955509186,-1.0049704313278198,0.333327978849411,0.8254332542419434,-0.05515554919838905,29.897705078125,-9.512245178222656,39.723121643066406,0
21,209745,0.03312192112207413,-0.056077420711517334,-1.0070182085037231,0.8746089339256287,0.143889918923378,-0.02706678956747055,29.87957191467285,-12.66215705871582,40.03861999511719,0
22,220033,0.058061227202415466,-0.012199952267110348,-1.0358206033706665,-0.9904476404190063,-0.4277591109275818,0.003029346466064453,30.486129760742188,-10.521740913391113,40.47218322753906,0
23,229925,0.013392515480518341,0.009269414469599724,-0.9709661602973938,0.9953323006629944,0.11865570396184921,0.6134365797042847,32.3666877746582,-9.946883201599121,40.91222381591797,0
24,240059,0.002452910179272294,0.062173403799533844,-0.9903951287269592,0.021794099360704422,-0.25149643421173096,0.1005227118730545,31.64695167541504,-8.722652435302734,40.27651596069336,0
25,250269,-0.05385403335094452,0.0881899893283844,-0.9876862168312073,-0.23262478411197662,-0.18890683352947235,0.09125591069459915,30.786741256713867,-11.297708511352539,39.4791145324707,0
26,259930,0.015300544910132885,-0.011536034755408764,-0.9950272440910339,-0.467600017786026,0.17412203550338745,0.23268309235572815,29.626373291015625,-8.48468017578125,40.23002624511719,0
27,270088,0.01156731229275465,0.029658351093530655,-0.9645878076553345,0.06119710952043533,0.29957085847854614,0.08190705627202988,30.024778366088867,-11.026799201965332,39.30048751831055,0
28,280025,0.01035283599048853,-0.012184720486402512,-1.0043243169784546,-0.18643464148044586,-0.3648413121700287,-0.14403164386749268,31.26578712463379,-9.814061164855957,39.86885070800781,0
29,289918,-0.018281280994415283,0.051174405962228775,-1.016778826713562,0.41443994641304016,-0.27074554562568665,-0.3414328396320343,29.568668365478516,-10.623076438903809,40.4976806640625,0
30,299890,0.07208963483572006,-0.05445969104766846,-1.002260684967041,-7.954844477353618e-06,-0.3377555310726166,-0.9665559530258179,30.37050437927246,-10.105208396911621,39.057003021240234,0
31,309945,-0.02155684120953083,-0.04100297391414642,-0.9684491753578186,0.09082120656967163,-0.7615326642990112,0.7546228170394897,30.956703186035156,-10.501144409179688,40.03629684448242,0
32,320065,0.006411774083971977,-0.04843083769083023,-1.01907217502594,0.1968010812997818,0.32594507932662964,-0.04605039581656456,27.554546356201172,-9.065621376037598,40.30852127075195,0
33,330074,0.00818041991442442,0.002475630957633257,-1.0107007026672363,0.2790350317955017,0.02754943259060383,1.923337459564209,30.77785301208496,-10.687222480773926,40.142425537109375,0
34,339761,0.020706797018647194,-0.014702707529067993,-1.050461769104004,0.6118658781051636,0.45330357551574707,-0.06168414652347565,29.31777000427246,-9.609474182128906,38.8444709777832,0
35,350088,-0.04449505731463432,-0.006061977241188288,-0.970036506652832,-0.7681653499603271,-0.11921360343694687,-0.789583683013916,29.961088180541992,-11.460469245910645,39.08852005004883,0
36,359821,-0.038808222860097885,0.043668705970048904,-0.9991353154182434,-0.020197400823235512,0.4985959529876709,-0.20721836388111115,30.621007919311523,-11.340559959411621,40.49593734741211,0
37,370246,0.06299147009849548,0.008491632528603077,-1.002516508102417,-0.37913084030151367,-0.29887181520462036,0.4439231753349304,30.067169189453125,-9.253941535949707,38.17449188232422,0
38,380030,0.04845018684864044,0.01419654581695795,-0.9812167286872864,1.0038484334945679,0.34375905990600586,-0.20205971598625183,30.439645767211914,-9.86361026763916,39.854591369628906,0
39,390390,0.038035351783037186,-0.02039455808699131,-0.9633743762969971,-0.8622444272041321,-0.052804335951805115,0.3369147479534149,28.53978157043457,-9.168732643127441,39.984867095947266,0
40,400019,0.020381871610879898,0.01105452235788107,-1.0228551626205444,0.9590940475463867,-0.11403848230838776,-0.0880291685461998,30.6895809173584,-10.66965103149414,38.259830474853516,0
41,409915,0.01891680806875229,-0.0610620491206646,-1.0198569297790527,-1.307209849357605,-0.284444123506546,0.7981845736503601,30.293094635009766,-9.805119514465332,41.785362243652344,0
42,420000,-0.00577770359814167,-0.006747222505509853,-0.9979830384254456,0.9849537014961243,0.05622285231947899,-0.28413861989974976,27.817119598388672,-10.033333778381348,40.714595794677734,0
43,430235,-0.04396284371614456,0.04445095360279083,-0.9957782030105591,0.1421324908733368,0.11631042510271072,-0.17304791510105133,30.021146774291992,-11.485564231872559,41.50380325317383,0
44,439941,-0.03244789317250252,0.04426588490605354,-0.9876140356063843,0.2633240818977356,0.19996967911720276,0.6078001260757446,31.78342628479004,-8.777971267700195,40.48674774169922,0
45,449958,0.027571460232138634,-0.03440164402127266,-1.0022165775299072,0.7099543213844299,0.8331633806228638,0.07793743908405304,27.68864631652832,-11.621036529541016,40.912315368652344,0
46,460034,-0.08818931877613068,-0.08197899162769318,-1.002411127090454,0.1485089212656021,0.8241206407546997,-0.4214513599872589,28.655658721923828,-9.49193286895752,38.18579864501953,0
47,469961,0.022009240463376045,-0.04198918491601944,-0.9866645336151123,0.006420443300157785,0.3250732123851776,0.4538400173187256,30.048480987548828,-10.32105541229248,40.45967483520508,0
48,479857,-0.07912655919790268,0.019678033888339996,-0.9985913634300232,0.2834070324897766,-0.45755189657211304,-0.32386231422424316,30.86581802368164,-10.544114112854004,41.67402648925781,0
49,489803,-0.017644798383116722,-0.09391959756612778,-1.0380719900131226,-0.09875991195440292,-0.9401249885559082,0.6341822147369385,29.783050537109375,-9.147327423095703,40.710235595703125,0
50,500070,0.0018720815423876047,0.009815637022256851,-0.9716216921806335,-0.21506313979625702,0.28190183639526367,0.028412632644176483,29.099634170532227,-9.506094932556152,39.340576171875,0
51,509843,-0.13396665453910828,0.08795042335987091,-1.0033658742904663,0.16384822130203247,0.06351897120475769,0.2054806649684906,31.01957130432129,-10.00171947479248,40.16512680053711,0
52,520141,0.028549253940582275,-0.0605984665453434,-1.0454179048538208,0.29339176416397095,-0.9126945734024048,-0.15170878171920776,30.762670516967773,-10.51599407196045,41.358394622802734,0
53,530154,0.03344259038567543,0.005146381910890341,-1.0153319835662842,-0.6485252380371094,-0.04233238473534584,0.40301117300987244,30.091936111450195,-9.61876106262207,39.94759750366211,0
54,540302,0.069261334836483,0.057437725365161896,-0.9859656095504761,0.508509635925293,0.18672537803649902,-0.2827887535095215,30.1439266204834,-8.998565673828125,40.719703674316406,0
55,549850,-0.020894823595881462,-0.07667097449302673,-1.0153758525848389,-0.5871024131774902,0.48420536518096924,0.08790262043476105,31.132272720336914,-9.638924598693848,40.10984420776367,0
56,560455,0.017652159556746483,-0.037154339253902435,-0.9967450499534607,-0.2712498605251312,0.8336775898933411,-0.3942747712135315,30.80767822265625,-10.872114181518555,38.951148986816406,0
57,569981,-0.04637818783521652,-0.054206665605306625,-0.976860523223877,-0.7346555590629578,-0.8847321271896362,0.061928339302539825,30.16828727722168,-10.543807029724121,39.02963638305664,0
58,580094,-0.037595491856336594,-0.051613111048936844,-1.0210689306259155,0.4697091579437256,0.22476226091384888,-0.5883409976959229,30.561416625976562,-9.718055725097656,40.351139068603516,0
59,589831,-0.022990919649600983,-0.019731000065803528,-1.0010440349578857,0.10501046478748322,-0.4648183584213257,0.6793072819709778,30.149526596069336,-11.189112663269043,39.882667541503906,0
60,600178,-0.07057395577430725,-0.06908980011940002,-1.0023798942565918,-0.14955617487430573,0.41863739490509033,0.7717260718345642,29.245969772338867,-10.034409523010254,38.91798400878906,0
61,610083,0.04912625625729561,0.048034533858299255,-0.9776875972747803,-0.5305677652359009,0.555514395236969,0.9277740120887756,31.308818817138672,-9.900979042053223,39.59160232543945,0
62,620002,-0.03371309116482735,-0.0038915781769901514,-0.9852257370948792,0.10223943740129471,-0.22131043672561646,0.2858988642692566,29.98719596862793,-11.190128326416016,41.84910583496094,0
63,630223,-0.02862437441945076,-0.11030200868844986,-1.012389898300171,1.038149356842041,-0.025862684473395348,-0.5266592502593994,29.877172470092773,-9.206576347351074,40.002540588378906,0
64,640003,0.098015695810318,-0.0076259104534983635,-0.943076491355896,0.5519127249717712,-0.0749596357345581,-0.07015185058116913,28.157791137695312,-9.783609390258789,40.60139465332031,0
65,649962,0.013372369110584259,-0.08602678030729294,-0.9845823049545288,-0.46565330028533936,0.14574913680553436,0.044793546199798584,30.892494201660156,-9.436625480651855,38.13825988769531,0
66,659882,-0.10401808470487595,0.014493294060230255,-1.0076884031295776,-0.5943320393562317,0.23152688145637512,-0.37111541628837585,30.067893981933594,-11.358261108398438,41.29865264892578,0
67,669953,0.03778938204050064,0.06225529685616493,-1.004553198814392,0.26975157856941223,0.07455757260322571,0.6670829057693481,29.107772827148438,-9.854094505310059,41.971153259277344,0
68,679865,-0.008563806302845478,0.023794613778591156,-0.9711102247238159,-0.35310208797454834,0.1653899997472763,0.2883073389530182,30.119239807128906,-10.708505630493164,38.56494903564453,0
69,690015,-0.00591974938288331,-0.011813773773610592,-1.0237205028533936,0.5360473990440369,1.1159272193908691,-0.3103216290473938,30.142765045166016,-10.2156400680542,41.37922668457031,0
70,699868,-0.07013630121946335,-0.058655403554439545,-0.9835487008094788,-0.4906282424926758,1.2339293956756592,-0.8673381805419922,31.28373908996582,-8.73816204071045,41.862754821777344,0
71,709987,-0.01655001752078533,-0.048104044049978256,-0.9662842154502869,0.2107975035905838,-0.18566875159740448,-0.9971076846122742,28.909069061279297,-10.45529556274414,39.83987045288086,0
72,719737,0.0007962947129271924,-0.09363137930631638,-1.0301603078842163,-0.17250438034534454,0.8978027105331421,1.079871416091919,30.278385162353516,-10.226048469543457,41.10604476928711,0
73,729893,0.013125710189342499,-0.0844554454088211,-1.0311163663864136,-0.004582218825817108,0.3580782115459442,-1.4598933458328247,30.460174560546875,-8.476425170898438,40.33580780029297,0
74,739997,0.005128567107021809,-0.04094497486948967,-1.011277437210083,-0.13566851615905762,0.5139668583869934,-0.09157021343708038,30.485883712768555,-9.242446899414062,38.78162384033203,0
75,749959,0.019718540832400322,0.009545564651489258,-1.0507062673568726,-0.3911155164241791,-0.1553240716457367,-0.4833340048789978,32.290794372558594,-10.140787124633789,40.5242805480957,0
76,759928,0.014545598067343235,0.03902486339211464,-0.9980695247650146,0.31088557839393616,0.28188323974609375,-0.03666739910840988,28.74567222595215,-10.292227745056152,41.927059173583984,0
77,770203,-0.010171490721404552,0.008011323399841785,-0.9881641268730164,-1.0049070119857788,0.06007704511284828,0.21691419184207916,29.283321380615234,-8.86206340789795,40.389793395996094,0
78,779898,-0.01565634086728096,-0.05469517037272453,-1.011185646057129,-0.4861186742782593,-0.1808754950761795,0.7844986915588379,29.337926864624023,-10.241415023803711,40.72819519042969,0
79,789964,-0.020333603024482727,0.07978709042072296,-0.966296911239624,0.06837541610002518,0.32438841462135315,0.11863567680120468,30.942829132080078,-8.93290901184082,38.53330993652344,0
80,799798,-0.009746273048222065,0.030714411288499832,-0.9913546442985535,0.169838085770607,0.022478803992271423,0.31820839643478394,30.38779640197754,-9.619562149047852,41.067108154296875,0
81,809844,-0.0184218380600214,0.002163910074159503,-0.9884275794029236,-0.47677284479141235,-0.20435099303722382,-0.35813188552856445,30.253238677978516,-10.344133377075195,39.28292465209961,0
82,820076,0.025940019637346268,-0.09993158280849457,-0.9998960494995117,0.3868354856967926,-0.5116148591041565,0.04112035036087036,29.862594604492188,-9.154439926147461,39.98513412475586,0
83,830079,0.06457475572824478,-0.03846202790737152,-1.0134358406066895,-0.23488527536392212,-0.6895722150802612,-0.5002731084823608,31.030004501342773,-8.76653003692627,39.67744064331055,0
84,839843,-0.02480524592101574,-0.01808008924126625,-0.9912902116775513,0.20929309725761414,0.4589200019836426,0.04671032726764679,29.145551681518555,-10.264060020446777,40.865211486816406,0
85,850108,-0.046300940215587616,0.13404443860054016,-1.0179333686828613,0.04971511289477348,0.49217480421066284,-0.07784046977758408,31.529438018798828,-10.584970474243164,39.61648941040039,0
86,860067,-0.05907853692770004,-0.012510880827903748,-0.9849632382392883,0.0019541445653885603,0.29294005036354065,-0.03915992006659508,28.755807876586914,-9.192201614379883,38.331111907958984,0
87,870068,-0.06020551919937134,0.029871148988604546,-1.0028069019317627,0.2540278434753418,-0.737850546836853,-0.22205595672130585,28.66098403930664,-9.751203536987305,39.14723587036133,0
88,879997,-0.03542019799351692,0.00570202199742198,-1.0050742626190186,1.5446528196334839,-0.05081090331077576,-0.2894146740436554,29.62938690185547,-10.029656410217285,39.52846908569336,0
89,889921,-0.05220772698521614,0.024004779756069183,-0.9640076756477356,0.10287393629550934,-0.712009608745575,-0.4510684609413147,30.56351089477539,-10.747969627380371,40.22260284423828,0
90,899957,-0.035511564463377,-0.06493633985519409,-1.0111219882965088,-0.2412426620721817,-0.1860608011484146,0.33966222405433655,31.456695556640625,-9.279272079467773,40.25605392456055,0
91,910197,-0.07194254547357559,-0.019763246178627014,-1.0092047452926636,-1.0663820505142212,-0.7617508769035339,0.46920695900917053,31.606595993041992,-10.369717597961426,40.97031784057617,0
92,919938,0.03407927602529526,-0.10335944592952728,-1.0048726797103882,0.45932650566101074,0.022460298612713814,0.6182011365890503,31.045452117919922,-11.84277057647705,39.999019622802734,0
93,930207,-0.033068329095840454,0.07500571757555008,-1.0120980739593506,-0.21536757051944733,0.6984913945198059,0.35357072949409485,29.756656646728516,-11.318906784057617,40.47449493408203,0
94,940053,-0.07583985477685928,0.06803224235773087,-1.0113261938095093,0.290810763835907,-0.5000090599060059,-0.773053765296936,28.679277420043945,-9.457138061523438,38.22446823120117,0
95,950038,-0.021213222295045853,0.08299203962087631,-1.0143873691558838,0.20066365599632263,0.16278845071792603,-0.4565929174423218,31.4300594329834,-10.799875259399414,39.44199752807617,0
96,960191,0.01429788675159216,0.004122819285839796,-0.9985266923904419,-0.427694171667099,0.9711537957191467,-0.0947488322854042,30.924251556396484,-10.2932710647583,37.653785705566406,0
97,970327,0.048519182950258255,-0.07831155508756638,-0.9743850231170654,0.22566452622413635,-0.2998296320438385,0.5910949110984802,29.671144485473633,-8.456374168395996,40.50664138793945,0
98,980025,0.017997371032834053,0.04330882802605629,-1.0152781009674072,0.15490306913852692,0.888706386089325,-0.1880127638578415,30.06133270263672,-10.293972969055176,38.49589538574219,0
99,989777,0.08336959034204483,0.06474271416664124,-0.9891133308410645,0.5450953841209412,-1.1753252744674683,0.39850738644599915,31.290916442871094,-10.460793495178223,41.00148010253906,0
100,1000216,0.060890406370162964,0.08341939002275467,-0.9866083860397339,0.9922224283218384,-0.8656429648399353,-0.4748106896877289,28.767141342163086,-10.489788055419922,41.3081169128418,0
101,1010134,0.0024103561881929636,0.06962607055902481,-1.0200151205062866,-0.03429128974676132,0.5235947966575623,-0.40781864523887634,30.6684513092041,-10.564041137695312,41.27328872680664,0
102,1019914,-0.056421369314193726,-0.0710165798664093,-0.9995468258857727,0.9898391366004944,0.5232229828834534,0.2074572890996933,28.762371063232422,-8.757569313049316,40.424652099609375,0
103,1029933,0.08638839423656464,-0.04397536814212799,-0.9919898509979248,-0.19175098836421967,0.2716156840324402,0.03131425008177757,30.496383666992188,-10.646586418151855,41.58132553100586,0
104,1039823,0.0013655838556587696,0.053815651684999466,-0.9850113391876221,-0.2211848795413971,-0.4378219246864319,0.932939887046814,30.962772369384766,-10.039904594421387,40.70665740966797,0
105,1049912,-0.04320462793111801,-0.00036353329778648913,-0.9839140176773071,0.18438927829265594,-0.3075932562351227,-0.7968636751174927,31.305185317993164,-10.934124946594238,40.309295654296875,0
106,1060017,0.001002068747766316,-0.06731642037630081,-0.9981918334960938,0.12189620733261108,0.26070988178253174,0.21114975214004517,31.245508193969727,-9.27124309539795,41.576602935791016,0
107,1069808,-0.009822037070989609,0.0754886269569397,-0.9768279790878296,-0.4855804741382599,-0.09624521434307098,0.29937314987182617,30.61057472229004,-10.838675498962402,40.69517517089844,0
108,1080052,0.02494916506111622,-0.0020288533996790648,-1.0102097988128662,0.40290045738220215,-0.14152033627033234,-0.27679017186164856,29.295333862304688,-10.400754928588867,39.3660888671875,0
109,1090442,0.01636037603020668,0.057058002799749374,-0.9662184715270996,0.4686986207962036,-0.46406131982803345,0.9757511019706726,30.99267578125,-11.46507453918457,40.030914306640625,0
110,1099992,-0.11220789700746536,0.004951138980686665,-1.015697956085205,0.17338624596595764,0.029322391375899315,0.1592952460050583,28.81059455871582,-9.025630950927734,38.56379318237305,0
111,1109894,-0.0004153232730459422,-0.03009473718702793,-0.9750099778175354,-0.21117445826530457,0.23844002187252045,-0.5555747151374817,30.92157745361328,-9.579684257507324,40.85762405395508,0
112,1120075,-0.03882678598165512,-0.10460623353719711,-0.9873371720314026,1.0036906003952026,-0.2054247260093689,0.20718763768672943,29.530414581298828,-7.610926628112793,40.86504364013672,0
113,1129822,0.14334499835968018,0.05914432927966118,-0.9874354600906372,0.6045286655426025,0.5143924355506897,0.16540083289146423,30.884519577026367,-9.832789421081543,41.916900634765625,0
114,1140024,-0.035549212247133255,-0.09221142530441284,-1.0041626691818237,0.052965808659791946,-0.2532775104045868,0.47614288330078125,30.74118423461914,-10.054778099060059,40.014892578125,0
115,1149986,0.038071196526288986,0.0629781186580658,-1.0516066551208496,-0.4847310781478882,-0.03625507652759552,-0.42130306363105774,29.51841926574707,-11.62486743927002,39.42475128173828,0
116,1160047,0.06498048454523087,-0.01647287979722023,-0.9553748369216919,-1.1813894510269165,0.31629469990730286,-0.062045205384492874,30.89309310913086,-8.91033935546875,39.887203216552734,0
117,1169714,-0.014445293694734573,-0.02747097797691822,-1.0107516050338745,0.6880398392677307,-1.0527509450912476,0.07792621850967407,29.580839157104492,-10.522006034851074,39.94367599487305,0
118,1179902,0.005437204614281654,-0.031763870269060135,-1.0088826417922974,0.03156312182545662,-0.3175838887691498,0.4622746706008911,30.40104103088379,-8.613183975219727,38.908355712890625,0
119,1189777,0.05896281450986862,0.000655802374240011,-1.021591067314148,0.2405029684305191,0.1760234534740448,0.023922668769955635,31.361244201660156,-9.851194381713867,39.24126052856445,0
120,1199808,-0.10014615207910538,0.07571136951446533,-0.9999228119850159,-0.5309359431266785,-0.2900073826313019,-0.1765015423297882,28.09885597229004,-10.417922019958496,40.48225784301758,0
121,1210063,-0.01360010914504528,-0.01693987287580967,-1.0119189023971558,0.5571337938308716,0.43395811319351196,-0.25148847699165344,29.744098663330078,-9.31661319732666,40.26744842529297,0
122,1220175,0.010011584497988224,-0.08491983264684677,-1.0364925861358643,0.33653509616851807,0.6755321025848389,-0.6123512387275696,30.116361618041992,-10.197856903076172,39.26735305786133,0
123,1229877,-0.04220103845000267,0.07780332863330841,-1.0141938924789429,-0.1402740478515625,0.6529812216758728,0.6357591152191162,29.748504638671875,-10.711669921875,43.082271575927734,0
124,1239985,-0.019606387242674828,-0.0029398442711681128,-0.9951350092887878,0.6320022940635681,-0.7128067016601562,-0.43342453241348267,31.485090255737305,-9.867135047912598,39.95731735229492,0
125,1249947,0.0031506598461419344,0.01786150224506855,-1.0209943056106567,0.07510846853256226,-0.0017359026242047548,0.5110671520233154,30.324058532714844,-9.875443458557129,39.94305419921875,0
126,1260186,-0.00273950956761837,0.02633855491876602,-0.9981026649475098,-0.3140627443790436,0.5696415901184082,0.46269136667251587,28.79149627685547,-7.535974979400635,41.1724967956543,0
127,1270161,-0.025300849229097366,0.04531193524599075,-1.0199637413024902,1.3859306573867798,-0.34181490540504456,-0.7877540588378906,28.928417205810547,-10.109570503234863,40.14796447753906,0
128,1279707,-0.025718357414007187,-0.07774296402931213,-1.0043188333511353,-0.04341190308332443,-0.3484870195388794,-0.8946271538734436,28.590694427490234,-9.225418090820312,37.8768424987793,0
129,1289938,0.10161074250936508,0.013062647543847561,-1.014304518699646,-0.22248747944831848,0.2652820944786072,0.24594970047473907,29.685047149658203,-9.160881042480469,38.518699645996094,0
130,1300015,0.06474773585796356,-0.02869434282183647,-1.012933373451233,0.5246614813804626,-0.012235717847943306,-0.45499372482299805,30.11029815673828,-11.827374458312988,41.652462005615234,0
131,1309977,-0.023760562762618065,-0.03598242998123169,-1.0034397840499878,0.8859913945198059,0.1020316556096077,-0.34824103116989136,29.866403579711914,-10.595072746276855,39.822811126708984,0
132,1319694,-0.030083363875746727,0.025665851309895515,-0.9868354201316833,-0.5439320802688599,0.1743273288011551,0.24464716017246246,30.1864013671875,-9.098054885864258,40.496482849121094,0
133,1329891,0.1512300670146942,0.07107724249362946,-1.02924382686615,0.1704074591398239,0.6461159586906433,-0.22366265952587128,29.528234481811523,-11.005555152893066,37.83982467651367,0
134,1340025,0.013791397213935852,-0.01240372471511364,-0.9838383197784424,0.20966815948486328,-0.2826071083545685,0.042491428554058075,31.59840965270996,-10.61262321472168,40.631385803222656,0
135,1350150,-0.06889714300632477,0.024674255400896072,-1.0198063850402832,-0.44492223858833313,1.0279215574264526,-0.07724996656179428,30.36307144165039,-9.842283248901367,39.92512893676758,0
136,1359762,-0.15068264305591583,-0.0052049350924789906,-1.0037906169891357,-0.11608968675136566,0.6676437258720398,0.46396780014038086,29.799861907958984,-10.073966026306152,39.111297607421875,0
137,1370026,5.462774424813688e-05,-0.03712862357497215,-0.9765636920928955,-0.13592901825904846,0.7145375609397888,0.30220869183540344,28.447956085205078,-9.867636680603027,39.262027740478516,0
138,1379935,-0.08150205761194229,-0.13143916428089142,-1.0321325063705444,-0.30876192450523376,-0.9219769835472107,0.12452627718448639,30.756494522094727,-9.624088287353516,42.28516387939453,0
139,1389818,0.02562795765697956,0.033813122659921646,-1.0092662572860718,-0.6598761677742004,-0.7719055414199829,0.3812090754508972,29.181655883789062,-10.300671577453613,41.00897979736328,0
140,1399978,-0.03806782141327858,-0.09042327105998993,-1.003823161125183,-0.291090190410614,-0.15510648488998413,-0.24942603707313538,30.292407989501953,-10.657432556152344,40.80221939086914,0
141,1409523,0.03413248434662819,0.012941760942339897,-1.0205751657485962,-0.20132635533809662,-0.42838072776794434,0.4287925064563751,30.962005615234375,-11.492920875549316,39.07319641113281,0
142,1420133,-0.029219647869467735,-0.06288240104913712,-0.9822354912757874,-0.48695069551467896,-0.5747559666633606,0.09429965913295746,30.252490997314453,-11.688566207885742,40.16655349731445,0
143,1429892,-0.00034620834048837423,-0.02822396717965603,-1.0233906507492065,-0.3262259364128113,0.13774460554122925,-0.8229331374168396,29.373741149902344,-10.114888191223145,39.44529724121094,0
144,1439966,0.03239532560110092,0.008287087082862854,-0.9823601245880127,0.6678557991981506,-1.2258487939834595,1.1168183088302612,29.7824764251709,-11.173181533813477,39.762569427490234,0
145,1450179,0.060197316110134125,0.005690979305654764,-0.9823223948478699,0.43492162227630615,0.04306745529174805,0.025256669148802757,29.618152618408203,-11.387896537780762,39.29043960571289,0
146,1460029,-0.005294834263622761,-0.09422564506530762,-1.0148154497146606,0.14142684638500214,0.6076585650444031,-0.5980412364006042,29.965425491333008,-11.787469863891602,39.011573791503906,0
147,1469885,0.04978029057383537,-0.035821083933115005,-1.0007867813110352,0.9168528914451599,-0.26931190490722656,-1.097410798072815,30.657520294189453,-9.677120208740234,39.372169494628906,0
148,1480308,0.15682104229927063,-0.02281528152525425,-0.9804068803787231,0.510344922542572,0.09295235574245453,0.2245524674654007,31.117706298828125,-8.936382293701172,40.80808639526367,0
149,1490034,-0.003668044926598668,0.06714878976345062,-1.0076892375946045,0.6026800274848938,-0.08633209764957428,-0.5731656551361084,30.990026473999023,-11.566312789916992,41.30662155151367,0
150,1500036,0.018783872947096825,0.005702489521354437,-1.031319260597229,-0.5347439050674438,0.4251750111579895,1.0636262893676758,31.28746223449707,-9.956546783447266,40.762325286865234,0
151,1510043,-5.6744684115983546e-05,0.04720630496740341,-0.9783991575241089,-0.6891146302223206,-0.7866477370262146,-0.33935782313346863,29.326927185058594,-9.487698554992676,38.907447814941406,0
152,1519800,0.04354620352387428,0.0691828578710556,-0.994186282157898,-0.8000458478927612,-0.4684522747993469,0.41171079874038696,30.21265983581543,-11.602069854736328,39.029144287109375,0
153,1529983,-0.011836577206850052,-0.011276801116764545,-0.9630078673362732,0.013832471333444118,0.3319701552391052,-0.3733111619949341,30.37686538696289,-10.650050163269043,38.941925048828125,0
154,1540057,-0.0033365029376000166,-0.03127532824873924,-1.0047982931137085,0.19357138872146606,0.5004941821098328,-0.07857351005077362,30.25614356994629,-10.736105918884277,40.493385314941406,0
155,1550177,-0.08598658442497253,-0.006981584243476391,-0.9892696738243103,0.7202308773994446,-0.2861122190952301,-0.08041106164455414,28.34565544128418,-9.499971389770508,39.225528717041016,0
156,1560165,0.10108498483896255,-0.01245194487273693,-1.0021047592163086,-1.2137465476989746,0.6725425124168396,-0.7149097919464111,30.344797134399414,-9.011709213256836,39.937808990478516,0
157,1569981,0.14525340497493744,-0.01759878545999527,-1.0052893161773682,0.3254494071006775,-0.2128000408411026,0.16613927483558655,29.505617141723633,-9.362776756286621,40.97554016113281,0
158,1579847,-0.06336347758769989,0.09840140491724014,-1.022315502166748,-0.261853963136673,0.8957697749137878,-0.12214033305644989,29.298734664916992,-9.363101959228516,39.72277069091797,0
159,1590099,-0.041317809373140335,-0.07206296920776367,-1.0264724493026733,-0.4004320800304413,-0.05142361670732498,-0.431454598903656,29.182323455810547,-10.411303520202637,37.90610122680664,0
160,1600064,-0.050572898238897324,-0.0004003738285973668,-1.0582484006881714,0.653938889503479,0.4062759578227997,0.11004773527383804,29.42598533630371,-11.65681266784668,38.955989837646484,0
161,1609980,-0.10965719819068909,-0.08336970955133438,-0.9880266189575195,1.1247262954711914,0.486346960067749,0.5304491519927979,30.509502410888672,-10.033163070678711,38.94792556762695,0
162,1620066,0.07374896854162216,0.002737940289080143,-1.0030559301376343,-0.7426305413246155,-0.35705089569091797,-0.3122355043888092,30.820575714111328,-10.523414611816406,39.25612258911133,0
163,1629739,-0.02346767857670784,0.022931378334760666,-0.999168336391449,-0.20990848541259766,-0.1832897663116455,-0.7533876895904541,29.220022201538086,-8.94471549987793,38.245567321777344,0
164,1639854,0.012821692042052746,0.018978862091898918,-0.9945560693740845,-0.2958310544490814,0.14901338517665863,0.1994619369506836,29.64665412902832,-12.009221076965332,40.31694793701172,0
165,1649817,-0.06169993057847023,0.013474680483341217,-0.9970700144767761,0.6403892040252686,-0.35931530594825745,0.48745355010032654,30.359907150268555,-9.501258850097656,41.05805206298828,0
166,1660005,0.024890631437301636,-0.015712250024080276,-0.9812520146369934,0.06692469865083694,0.15609456598758698,0.11899316310882568,28.894058227539062,-9.01990795135498,41.68986892700195,0
167,1670181,-0.04150460287928581,-0.017723986878991127,-1.0234938859939575,-0.14190661907196045,-0.3643331229686737,0.3906267285346985,28.846755981445312,-8.52282428741455,41.25117874145508,0
168,1679859,0.030742555856704712,0.030578002333641052,-0.9741149544715881,0.2793118953704834,0.0477343387901783,-0.014949169009923935,30.69485855102539,-10.224515914916992,42.077728271484375,0
169,1689696,0.043429434299468994,0.07412054389715195,-1.0102952718734741,0.5011798739433289,0.09723664075136185,0.30458304286003113,27.958038330078125,-8.98223876953125,39.95197677612305,0
170,1699963,0.05217187851667404,-0.008167124353349209,-0.9941306710243225,0.41276973485946655,-0.2269219607114792,-0.8486360907554626,28.843486785888672,-10.648265838623047,38.95212936401367,0
171,1709973,0.05210009962320328,0.08435950428247452,-1.0461543798446655,-0.5081584453582764,0.47061431407928467,0.4266158640384674,29.87961196899414,-11.145925521850586,41.24275207519531,0
172,1719876,0.017991265282034874,-0.01010521687567234,-0.993515133857727,0.09983406215906143,-0.25824224948883057,-0.5830084681510925,29.659757614135742,-9.04090404510498,41.572792053222656,0
173,1729928,-0.09969843178987503,-0.12347239255905151,-0.9749211072921753,0.07061100751161575,0.29092729091644287,0.5320484638214111,30.434070587158203,-10.321463584899902,41.65681838989258,0
174,1739859,-0.01582142896950245,-0.042433787137269974,-1.0363818407058716,0.14366722106933594,0.06995849311351776,-0.1778244823217392,28.37501335144043,-9.615106582641602,39.25684356689453,0
175,1750015,-0.04796450585126877,0.08322885632514954,-1.0238633155822754,0.015730207785964012,-0.09539410471916199,0.36058124899864197,29.898283004760742,-10.602887153625488,39.813575744628906,0
176,1759930,0.04069949686527252,0.03265880048274994,-1.0148594379425049,-0.4174969792366028,-0.44686436653137207,0.5201094150543213,29.855457305908203,-10.035892486572266,39.298622131347656,0
177,1770022,-0.0005310368724167347,-0.029570451006293297,-1.0235238075256348,-0.2673673927783966,0.19577817618846893,-0.49682581424713135,28.371570587158203,-9.375106811523438,40.09933090209961,0
178,1779959,0.1367308348417282,0.05437683314085007,-0.977879524230957,0.45956042408943176,-0.47597959637641907,-0.3119507431983948,29.56836700439453,-11.070188522338867,41.27903747558594,0
179,1789684,-0.06102956458926201,0.041416361927986145,-1.0175189971923828,-0.2993370592594147,-0.47149693965911865,0.40139153599739075,29.238082885742188,-9.302366256713867,40.154014587402344,0
180,1800240,0.01415793877094984,-0.06100478023290634,-0.9959209561347961,0.4973832070827484,0.08611834794282913,-0.2434273213148117,29.082305908203125,-9.798543930053711,40.85721206665039,0
181,1810277,0.01052998099476099,0.030429115518927574,-0.9747492671012878,-0.7042623162269592,0.18069463968276978,-1.0202631950378418,31.358394622802734,-11.219575881958008,39.890357971191406,0
182,1819930,0.03143498674035072,0.11478783190250397,-0.9960662126541138,-0.05272512510418892,0.7430298924446106,-0.07248657196760178,30.390748977661133,-11.174357414245605,40.03327941894531,0
183,1829589,0.06347469985485077,0.08178717643022537,-0.9866698384284973,-0.07887942343950272,-0.1244928389787674,0.028264028951525688,31.847169876098633,-10.380735397338867,39.34469223022461,0
184,1839776,-0.09662345796823502,0.003833426395431161,-1.024263858795166,-0.2715807259082794,0.3845050632953644,-0.4361737370491028,29.953445434570312,-9.946311950683594,40.585086822509766,0
185,1849937,0.004327304195612669,0.001372138736769557,-1.0139904022216797,0.058006830513477325,0.09171619266271591,0.0972752496600151,29.496999740600586,-11.04874038696289,38.00314712524414,0
186,1859987,0.00474061444401741,0.015674084424972534,-1.044007420539856,-0.0001965490955626592,-0.47153541445732117,-0.17692840099334717,31.313373565673828,-10.709725379943848,41.41910171508789,0
187,1869987,0.027881145477294922,-0.03417152166366577,-1.0112888813018799,0.863153874874115,-0.8460568189620972,-0.17089322209358215,30.605712890625,-10.655058860778809,39.321014404296875,0
188,1879756,0.016721006482839584,0.04762312024831772,-1.0122910737991333,-0.09707902371883392,-0.4814416170120239,1.1973071098327637,30.93476676940918,-10.392688751220703,40.12041091918945,0
189,1890263,0.006491665728390217,0.005974046420305967,-1.0064176321029663,-1.20650315284729,0.16174300014972687,-0.13064002990722656,31.88620376586914,-9.515557289123535,40.0484504699707,0
190,1899949,0.020838161930441856,0.0950303003191948,-0.9992210865020752,0.16596095263957977,0.01332089863717556,0.1355162262916565,30.089981079101562,-9.322211265563965,39.59931945800781,0
191,1910021,-0.027619050815701485,0.1106330081820488,-1.0030021667480469,-0.2639941871166229,-0.23885126411914825,0.6497933864593506,29.545385360717773,-11.734718322753906,40.1075439453125,0
192,1920087,-0.14450889825820923,0.042811792343854904,-0.9884704351425171,0.7905254364013672,-1.2728430032730103,-0.027372539043426514,27.86037254333496,-9.211263656616211,40.09463119506836,0
193,1930020,0.022772392258048058,-0.0529356487095356,-1.0019381046295166,-0.1695777177810669,-0.6977065205574036,-0.14288777112960815,29.79107093811035,-10.559505462646484,40.695762634277344,0
194,1940198,0.009798715822398663,-0.03536933287978172,-0.9815905690193176,0.2831379771232605,-0.1417398452758789,-1.048892617225647,28.834827423095703,-11.392372131347656,40.57762145996094,0
195,1949996,-0.022060105577111244,0.11121192574501038,-1.0074089765548706,0.27552729845046997,0.2255317121744156,-0.22277769446372986,31.79555892944336,-9.943163871765137,39.09080505371094,0
196,1959714,0.013170084916055202,-0.05923375114798546,-1.02753746509552,-0.05857660993933678,0.6949563026428223,0.2035774290561676,29.6129207611084,-8.299142837524414,37.93319320678711,0
197,1970010,-0.0045654322020709515,-0.08946921676397324,-1.0004562139511108,0.15674830973148346,0.2157599925994873,-0.1614232063293457,29.723915100097656,-11.805254936218262,39.39751052856445,0
198,1980113,0.07971649616956711,-0.04218146204948425,-1.0045785903930664,0.33277079463005066,-0.19828198850154877,0.6873505711555481,29.16384506225586,-9.390527725219727,39.317893981933594,0
199,1990154,0.010107038542628288,0.0011174697428941727,-0.994526207447052,-0.34301289916038513,0.19118548929691315,-0.004903921391814947,28.851266860961914,-9.63773250579834,40.600982666015625,0
200,1999887,-0.019167780876159668,-0.05330395698547363,-1.0230975151062012,0.31824246048927307,-0.6614652872085571,-0.3006211519241333,31.677358627319336,-9.974690437316895,39.3056755065918,0
201,2010010,-0.06812694668769836,0.044533323496580124,-0.9814778566360474,-0.2514159083366394,0.23573629558086395,-0.6534450650215149,29.295740127563477,-10.091935157775879,39.841617584228516,0
202,2019773,0.0268106609582901,0.005435273516923189,-1.017214059829712,-0.10845901817083359,-0.3181593716144562,0.240754172205925,30.80463218688965,-8.885306358337402,38.92839431762695,0
203,2029839,0.010059797205030918,-0.08890574425458908,-0.9745087027549744,0.09074518084526062,0.2757742404937744,0.1386210322380066,32.57988357543945,-8.745789527893066,40.185420989990234,0
204,2039857,-0.11150745302438736,0.08254624158143997,-1.0035550594329834,0.07440683245658875,-1.3013266324996948,0.8044261932373047,30.327495574951172,-9.890254974365234,38.934120178222656,0
205,2050132,-0.08932456374168396,-0.02372056059539318,-1.0284481048583984,-0.3017684519290924,0.5487057566642761,0.2491931915283203,29.567487716674805,-9.019452095031738,39.661373138427734,0
206,2060066,-0.04829473793506622,0.06725355237722397,-1.0267270803451538,-0.6019097566604614,0.013619044795632362,0.2482031136751175,31.034093856811523,-9.602168083190918,39.439125061035156,0
207,2069997,-0.06506622582674026,-0.03294016793370247,-1.0202763080596924,0.24170371890068054,-0.07759279012680054,-0.08399686962366104,29.353368759155273,-9.286425590515137,40.57576370239258,0
208,2079830,-0.022893035784363747,-0.0722789615392685,-0.9564967155456543,0.031739477068185806,-0.11535979062318802,-0.5685458183288574,29.853212356567383,-10.16015911102295,41.12205505371094,0
209,2089951,0.025896864011883736,0.0015010738279670477,-0.9985464215278625,0.5192373991012573,0.19984808564186096,-0.395359069108963,30.052753448486328,-11.263924598693848,39.533145904541016,0
210,2100113,-0.05062027648091316,0.06097827106714249,-0.969255805015564,-0.03388416767120361,-0.42046982049942017,-0.006760990712791681,30.883073806762695,-8.313370704650879,37.62428665161133,0
211,2110274,-0.03392118960618973,0.009819545783102512,-0.9974479675292969,0.03138544782996178,-0.2036687731742859,0.09486397355794907,30.42473602294922,-9.074911117553711,39.830650329589844,0
212,2119940,0.041046142578125,-0.05343307554721832,-1.0056589841842651,0.29788705706596375,0.38366883993148804,-0.8717814087867737,29.184837341308594,-11.019482612609863,40.1733283996582,0
213,2129772,-0.000766323006246239,-0.04734431579709053,-1.018832802772522,0.1626715213060379,-0.5381894707679749,0.8952333331108093,29.217317581176758,-8.243931770324707,40.61861801147461,0
214,2140052,-0.029977543279528618,-0.008253968320786953,-0.9768610596656799,-0.3936035633087158,-0.14299415051937103,-0.862863302230835,30.523216247558594,-11.340083122253418,40.90553665161133,0
215,2149887,-0.019814273342490196,0.056309014558792114,-0.9805684089660645,0.5780107975006104,0.15249235928058624,-0.233408123254776,31.066354751586914,-10.732843399047852,39.612247467041016,0
216,2159817,0.06938198208808899,-0.002242109039798379,-0.9662651419639587,1.0924463272094727,0.09025906026363373,0.12636828422546387,29.732013702392578,-12.493664741516113,41.553462982177734,0
217,2170005,-0.06222159415483475,0.00515050208196044,-1.0053167343139648,-0.016310906037688255,-0.226522296667099,-1.173946499824524,30.646177291870117,-8.729698181152344,40.99671936035156,0
218,2179984,-0.035118114203214645,0.08517973870038986,-0.9436703324317932,0.2907637655735016,-0.4921872615814209,-0.38948050141334534,30.02324676513672,-9.802454948425293,41.221160888671875,0
219,2190232,0.029950419440865517,0.04307880625128746,-0.9787490963935852,0.6038618087768555,-0.4679116904735565,0.3424588441848755,31.474157333374023,-8.435226440429688,40.91719055175781,0
220,2199890,-0.001707327552139759,0.029743080958724022,-1.0049920082092285,-0.45469093322753906,0.613996684551239,-0.22919973731040955,29.288606643676758,-8.951951026916504,41.46517562866211,0
221,2209992,0.000975375878624618,0.027519961819052696,-1.0067074298858643,-0.048945922404527664,0.49768683314323425,-0.43612563610076904,30.895587921142578,-10.660527229309082,40.4029541015625,0
222,2219673,0.030208773910999298,0.0500330850481987,-1.0132102966308594,-0.19708144664764404,0.2290341556072235,0.9033008217811584,31.415571212768555,-8.88844108581543,39.67822265625,0
223,2229764,0.053770482540130615,-0.06809495389461517,-0.9975471496582031,-0.00924757495522499,0.5637907981872559,-0.03926609829068184,29.935989379882812,-9.88917350769043,40.281494140625,0
224,2240172,-0.0729963555932045,-0.057343244552612305,-1.014976978302002,0.3513881266117096,0.40906649827957153,0.37020859122276306,29.805078506469727,-10.226822853088379,39.90745162963867,0
225,2249822,-0.030241405591368675,-0.06115606427192688,-1.0083129405975342,-0.1573079228401184,-0.2755601108074188,-0.13800238072872162,29.282989501953125,-11.146066665649414,40.0399055480957,0
226,2259805,0.039033275097608566,-0.003192272735759616,-0.9797106385231018,-0.2602154314517975,-0.2633249759674072,-0.002287806710228324,31.89801025390625,-10.7108736038208,40.417205810546875,0
227,2269804,-0.017042499035596848,0.06271009892225266,-1.0120421648025513,-0.4354698061943054,-0.27620822191238403,0.26168760657310486,30.099199295043945,-9.22097396850586,38.31498718261719,0
228,2279799,-0.02478910982608795,0.08196207135915756,-0.9787574410438538,-0.8389319181442261,-0.18102554976940155,-0.3483080565929413,29.05777359008789,-8.877546310424805,39.698917388916016,0
229,2289984,0.0983879491686821,0.00433604558929801,-0.9791906476020813,-0.11129742860794067,0.5338147878646851,0.13691821694374084,29.382335662841797,-10.273797988891602,41.10050582885742,0
230,2299790,0.05721680074930191,0.019904164597392082,-0.9739024639129639,0.5338425636291504,-0.4892108738422394,0.12523965537548065,29.371047973632812,-9.357084274291992,39.54774856567383,0
231,2309943,-0.013163682073354721,-0.016388189047574997,-1.0159673690795898,0.10157976299524307,-0.05028858780860901,0.003200953360646963,31.230234146118164,-9.51761245727539,39.06746292114258,0
232,2319858,-0.09617818146944046,0.004575070925056934,-1.0354517698287964,0.22876116633415222,0.026866236701607704,0.6520615816116333,29.307382583618164,-8.848657608032227,41.69132614135742,0
233,2329988,0.04109543561935425,-0.017246481031179428,-0.9904034733772278,-1.0997933149337769,0.7236775755882263,-0.5980961918830872,31.802959442138672,-10.26227855682373,40.04011154174805,0
234,2340194,0.012307973578572273,-0.006385509390383959,-0.9881311655044556,0.3397116959095001,-0.1068728119134903,0.1476013958454132,30.69326400756836,-9.712091445922852,41.110313415527344,0
235,2349856,0.08640360832214355,0.012459547258913517,-0.9854867458343506,0.3861923813819885,-0.15834453701972961,0.15492144227027893,28.53541374206543,-11.125091552734375,40.05634689331055,0
236,2359920,0.07349573820829391,-0.05697081983089447,-1.000675916671753,-0.5530303716659546,-0.4424956738948822,1.0820249319076538,29.595266342163086,-10.785149574279785,40.13426208496094,0
237,2370267,0.037200864404439926,0.03180437535047531,-1.0099101066589355,0.64423006772995,0.1279066652059555,-0.19473718106746674,31.468273162841797,-8.373824119567871,38.42732620239258,0
238,2379663,-7.576578354928643e-05,-0.03870852291584015,-1.0337975025177002,0.47149479389190674,0.3965766429901123,0.33385762572288513,30.1318416595459,-9.253484725952148,41.01799774169922,0
239,2390097,-0.05962540954351425,-0.02499196119606495,-1.0097804069519043,0.020442351698875427,-0.19334319233894348,-0.7794767022132874,30.492692947387695,-9.358306884765625,40.2714958190918,0
240,2400008,0.014974435791373253,0.011192943900823593,-0.9791747331619263,-0.42969468235969543,-0.03117896430194378,0.2901058793067932,30.61684799194336,-9.542954444885254,40.777252197265625,0
241,2409990,0.033218953758478165,0.05851607397198677,-0.9968909025192261,0.10728383809328079,-0.145368292927742,-0.4458976686000824,29.856719970703125,-10.689367294311523,40.4625358581543,0
242,2419898,0.011148959398269653,-0.0483291894197464,-0.9931525588035583,-0.060264118015766144,-0.16948767006397247,-0.18310818076133728,30.500946044921875,-9.771780014038086,38.5627555847168,0
243,2430083,0.04400505870580673,-0.04265040159225464,-1.0012396574020386,-0.5832456350326538,-0.6784253120422363,-0.48350057005882263,29.473007202148438,-10.768174171447754,39.82304382324219,0
244,2439716,-0.05915537476539612,0.06344655156135559,-0.9682272672653198,-0.2894497215747833,-0.18999403715133667,-0.35614141821861267,30.000648498535156,-9.835365295410156,39.60796356201172,0
245,2450057,0.021776478737592697,-0.0012096124701201916,-0.9967302083969116,-0.12083831429481506,-0.8335508704185486,-0.3658130466938019,31.71695327758789,-10.383472442626953,39.50516128540039,0
246,2460054,-0.03664369136095047,0.10381028801202774,-1.0031509399414062,0.20928728580474854,-0.09738337993621826,-0.5605409741401672,29.069257736206055,-9.915291786193848,41.64255142211914,0
247,2470096,0.11474600434303284,-0.001383632654324174,-1.0078318119049072,-0.020459093153476715,0.5943973064422607,-0.19805508852005005,28.3675479888916,-10.196162223815918,39.454776763916016,0
248,2479953,0.0713491141796112,0.03221339359879494,-1.0066653490066528,0.4079887568950653,0.13148799538612366,0.6244965195655823,29.324615478515625,-10.341197967529297,37.809608459472656,0
249,2490033,0.00442385021597147,-0.05990014970302582,-0.9762418866157532,0.020735424011945724,-0.4671251177787781,0.6147856712341309,30.50750160217285,-9.604798316955566,41.81147766113281,0
250,2499987,0.0323689803481102,0.038575105369091034,-0.9817562103271484,-0.8707010746002197,-0.22099491953849792,-0.18091323971748352,30.182109832763672,-10.998188018798828,38.746768951416016,0
251,2509876,-0.041801247745752335,-0.00945364497601986,-0.995010256767273,-0.13794638216495514,-0.07969169318675995,-0.5974379777908325,29.526893615722656,-9.708717346191406,40.70053482055664,0
252,2520021,-0.0399489551782608,-0.03294109180569649,-1.0142194032669067,0.24198469519615173,0.501727283000946,-0.2257523238658905,27.965452194213867,-9.676081657409668,39.32884979248047,0
253,2529950,-0.011741548776626587,0.09458684176206589,-0.9968262314796448,-0.23491306602954865,0.3041017949581146,-0.4795840084552765,31.981229782104492,-12.656195640563965,40.97124099731445,0
254,2540053,0.023592274636030197,-0.048497702926397324,-1.006360411643982,-0.12537354230880737,-0.03887369856238365,0.22675834596157074,29.083986282348633,-11.692028045654297,41.11698913574219,0
255,2550144,0.035690683871507645,-0.03384758532047272,-1.0138683319091797,0.05431521683931351,-1.038057565689087,-0.35447973012924194,30.61606788635254,-10.462711334228516,38.30657196044922,0
256,2560183,0.021713586524128914,-0.0868564322590828,-1.037374496459961,0.35191214084625244,0.0335116982460022,-0.06194038689136505,32.76155471801758,-10.320565223693848,40.188194274902344,0
257,2570080,-0.13723847270011902,0.006060668267309666,-1.0175211429595947,-0.7659100890159607,1.3731882572174072,-0.07972127944231033,31.352489471435547,-9.089427947998047,39.81209945678711,0
258,2579828,-0.06703069061040878,-0.042983461171388626,-1.0316188335418701,-0.019302088767290115,0.2433946579694748,0.17321518063545227,30.92270278930664,-10.146830558776855,40.047340393066406,0
259,2589856,0.06423714756965637,-0.05392873287200928,-1.0156217813491821,-0.453916072845459,-0.589169979095459,-0.6526124477386475,29.885515213012695,-10.386770248413086,41.02001190185547,0
260,2599884,0.025313153862953186,-0.016861537471413612,-0.9971387386322021,-0.10870464891195297,-0.20127682387828827,-0.5649912357330322,30.69170570373535,-8.291253089904785,38.8420295715332,0
261,2609776,-0.07985267788171768,0.011515587568283081,-1.0031648874282837,0.7545198798179626,0.30543264746665955,-0.3869315981864929,32.472801208496094,-9.503303527832031,40.15485763549805,0
262,2619880,0.01704247295856476,0.052842963486909866,-1.0245904922485352,-0.4146202504634857,0.166928231716156,-0.2868160903453827,31.083786010742188,-9.503525733947754,40.834442138671875,0
263,2630215,0.10971085727214813,-0.0822267010807991,-1.0000169277191162,0.0679011270403862,-0.13598787784576416,0.5383872389793396,29.868927001953125,-10.113215446472168,41.06583786010742,0
264,2639994,0.01869448460638523,0.055321644991636276,-1.054468035697937,0.0027842039708048105,-0.002671285765245557,0.29373106360435486,29.240055084228516,-9.518746376037598,39.18500900268555,0
265,2649752,-0.04140666872262955,0.10627536475658417,-1.0336898565292358,0.8319512009620667,0.697077214717865,-0.15948809683322906,29.062511444091797,-9.804548263549805,38.5042724609375,0
266,2659528,-0.05454589053988457,0.03681178018450737,-0.9925118684768677,0.0344669483602047,-0.03823460265994072,0.38669511675834656,28.342531204223633,-9.985274314880371,39.40974807739258,0
267,2670266,-0.07823459059000015,-0.023142393678426743,-0.9522936940193176,0.15493059158325195,0.02746533788740635,-0.5377815961837769,27.724594116210938,-10.720568656921387,40.87175369262695,0
268,2679722,0.05155915021896362,-0.008116088807582855,-1.0195497274398804,-0.9148577451705933,0.578852653503418,0.049607835710048676,29.71809196472168,-10.312569618225098,41.87591552734375,0
269,2690204,0.03575514256954193,-0.0023195906542241573,-0.9804723262786865,-0.22315143048763275,0.8058227896690369,0.47770223021507263,30.33210563659668,-9.037144660949707,40.26847839355469,0
270,2700192,-0.061842869967222214,-0.002297976752743125,-0.9745950698852539,0.6641743779182434,-0.3126547932624817,-0.16972830891609192,30.11568832397461,-9.2293062210083,40.985931396484375,0
271,2709984,-0.0018469949718564749,-0.03649020940065384,-1.0198031663894653,0.13757729530334473,-0.02944588102400303,0.023503676056861877,29.645994186401367,-9.075994491577148,40.6379280090332,0
272,2720134,0.04684174060821533,0.05989338457584381,-0.9679272174835205,-0.23443298041820526,-1.240296483039856,-0.48324644565582275,30.44609832763672,-10.608070373535156,41.33839797973633,0
273,2729876,0.007920370437204838,-0.05612531304359436,-0.9917508363723755,-0.007448255084455013,-0.23260165750980377,0.1538989245891571,29.10456085205078,-9.725066184997559,39.149688720703125,0
274,2739828,-0.024912118911743164,0.028050178661942482,-0.9894294738769531,-0.5469633340835571,0.29821571707725525,-1.0790033340454102,29.84389305114746,-9.585769653320312,39.276939392089844,0
275,2750044,-0.022796062752604485,-0.08155698329210281,-1.0254387855529785,0.13597573339939117,0.3275049328804016,0.21517594158649445,28.34304428100586,-10.073783874511719,39.37378692626953,0
276,2759842,0.01919717714190483,0.03421611711382866,-0.9766528606414795,-0.4610888957977295,-0.5910846590995789,-0.0024604753125458956,30.768800735473633,-11.297140121459961,41.14645004272461,0
277,2770178,-0.01100882887840271,-0.035449739545583725,-0.9863402843475342,-0.025016948580741882,0.3407072424888611,-0.30605587363243103,30.973562240600586,-9.361237525939941,40.248374938964844,0
278,2780216,-0.04112215340137482,0.09591342508792877,-0.987514078617096,0.3133816719055176,-0.7338445782661438,-0.11699730902910233,29.004966735839844,-10.122426986694336,40.98288345336914,0
279,2789820,0.05237755551934242,0.02727685682475567,-0.9808230400085449,0.5866113305091858,-0.13376545906066895,-0.09690822660923004,28.97408103942871,-11.814300537109375,39.83094787597656,0
280,2799691,-0.004570786841213703,-0.02371516451239586,-0.9864901900291443,1.0827628374099731,-0.0654386654496193,0.5175179839134216,29.925180435180664,-9.152082443237305,40.03322219848633,0
281,2809752,-0.00888926349580288,-0.026524875313043594,-1.0104166269302368,-0.4099752604961395,-0.5062809586524963,-0.43691539764404297,30.2294979095459,-9.995918273925781,39.141109466552734,0
282,2819942,0.003964672330766916,-0.005089452024549246,-0.961275577545166,-0.5424080491065979,0.043737418949604034,0.645386278629303,30.423032760620117,-9.568909645080566,39.64421081542969,0
283,2829781,-0.043244484812021255,-0.05799490213394165,-1.0037477016448975,0.26698070764541626,0.3938348889350891,-0.0784325897693634,28.523008346557617,-10.320100784301758,40.755409240722656,0
284,2839994,0.014705542474985123,0.032876722514629364,-0.9805595278739929,-0.19435910880565643,-0.6788983345031738,-0.30631589889526367,30.339937210083008,-8.534948348999023,39.294185638427734,0
285,2849891,-0.01013264711946249,0.018204379826784134,-0.9829390645027161,-0.5819903016090393,0.57783043384552,-0.3201657831668854,30.112957000732422,-10.341080665588379,38.4329719543457,0
286,2860018,0.0666685700416565,-0.011344077996909618,-0.9691554307937622,-0.3197706937789917,-0.29237860441207886,-0.9924983978271484,30.91041374206543,-7.794307708740234,39.35171890258789,0
287,2870085,-0.05460253357887268,0.135059654712677,-0.9747951626777649,-0.6050828695297241,0.5181077718734741,0.2929040193557739,29.781570434570312,-10.514079093933105,39.9254150390625,0
288,2879940,-0.030566196888685226,0.021584806963801384,-1.0027034282684326,1.0472216606140137,0.062289029359817505,-0.19535155594348907,29.064611434936523,-10.186266899108887,39.68765640258789,0
289,2890084,-0.05937580019235611,0.059471938759088516,-1.0077184438705444,0.6943196654319763,-0.061882100999355316,-0.14841407537460327,30.340152740478516,-11.051462173461914,38.70579147338867,0
290,2900035,0.11198180913925171,-0.09143426269292831,-0.9817039966583252,0.8170273303985596,0.13451452553272247,0.7095077633857727,28.497215270996094,-9.495833396911621,42.28269577026367,0
291,2909839,0.024564694613218307,-0.013701032847166061,-0.9712030291557312,-0.048956867307424545,0.1626816987991333,0.3202270269393921,31.1988582611084,-11.519652366638184,40.01594924926758,0
292,2919995,0.049071431159973145,0.0006817921530455351,-0.9917811751365662,-0.3427015542984009,1.0406941175460815,0.05249077081680298,30.1711368560791,-8.778220176696777,40.43792724609375,0
293,2929775,0.09212568402290344,0.013016441836953163,-1.0066814422607422,0.6731241941452026,-0.5023472905158997,-0.7296450734138489,30.529481887817383,-12.114277839660645,39.10847854614258,0
294,2939689,0.045591771602630615,0.07323843985795975,-0.9953514337539673,0.47424575686454773,0.005554028786718845,-0.7684748768806458,30.87451171875,-10.580808639526367,39.91178894042969,0
295,2950027,-0.09043347090482712,0.02277097851037979,-0.9368994832038879,-0.3037213981151581,0.559487521648407,0.2182556688785553,28.546051025390625,-9.669859886169434,40.53899002075195,0
296,2960121,-0.041442908346652985,-0.026300013065338135,-0.984569787979126,0.18988566100597382,0.5656802654266357,-0.06845864653587341,30.14912223815918,-10.918852806091309,40.35504913330078,0
297,2969969,-0.014938055537641048,-0.030274497345089912,-1.0187561511993408,-0.5765689611434937,-0.16009850800037384,0.029862049967050552,31.064590454101562,-9.008440017700195,42.90910720825195,0
298,2979969,0.0727052390575409,0.032492268830537796,-1.0106648206710815,-0.822654128074646,-0.02341557666659355,-0.028635868802666664,30.483474731445312,-10.755748748779297,37.32550811767578,0
299,2989783,-0.01310842577368021,0.013784276321530342,-0.9944640398025513,-0.21070434153079987,-0.18628063797950745,0.7922360301017761,30.36054039001465,-9.666638374328613,40.473819732666016,0
300,3000189,-0.03309568017721176,-0.05211259424686432,-1.0071959495544434,0.5936154723167419,-0.4973873198032379,0.8623413443565369,29.192041397094727,-9.347383499145508,39.12400817871094,0
301,3010139,-0.019043976441025734,0.011173242703080177,-0.982789933681488,-0.27991577982902527,-0.9398021101951599,-0.17269884049892426,30.103225708007812,-9.438230514526367,40.54386520385742,0
302,3019946,-0.03708551451563835,0.049786970019340515,-1.0115102529525757,-0.854436993598938,0.18008720874786377,0.9356892704963684,30.10114860534668,-8.630764961242676,40.92161560058594,0
303,3029791,0.011216489598155022,0.011925401166081429,-0.9926345348358154,-0.09974446892738342,-0.23747676610946655,0.01661350205540657,30.23089027404785,-9.258676528930664,38.583465576171875,0
304,3040009,-0.003413584316149354,-0.00824409443885088,-1.0168838500976562,-1.1776189804077148,0.4678196310997009,0.5799259543418884,27.859140396118164,-8.299554824829102,38.818241119384766,0
305,3049908,0.09717760980129242,-0.06657486408948898,-1.0006259679794312,0.5277603268623352,0.02196517400443554,0.5984297394752502,30.921735763549805,-12.397173881530762,39.21405029296875,0
306,3060036,0.02805914543569088,-0.02114288881421089,-1.0107296705245972,0.8365166187286377,-0.1612101048231125,-0.8830111026763916,30.706743240356445,-11.907350540161133,40.328914642333984,0
307,3069985,-0.05002292990684509,0.01837906800210476,-0.9951264262199402,0.3187853693962097,-0.46293720602989197,-0.011658118106424809,31.60416603088379,-10.33958625793457,38.77437210083008,0
308,3079738,0.005411893595010042,0.020123066380620003,-1.0116543769836426,-0.21344833076000214,-0.8922783136367798,-0.005660984665155411,30.23334312438965,-10.051143646240234,38.83336639404297,0
309,3090135,-0.03425142168998718,0.03397446870803833,-0.9609236121177673,-0.06808169186115265,0.6278863549232483,-0.1572445034980774,29.905405044555664,-11.822022438049316,42.02083969116211,0
310,3099836,0.005253416020423174,-0.025488443672657013,-0.9882413148880005,-0.4290591776371002,-0.7226032614707947,-0.16845235228538513,30.1638126373291,-9.265398979187012,40.034122467041016,0
311,3109850,0.07661356031894684,-0.1446445882320404,-1.0158895254135132,0.19997867941856384,0.276012659072876,0.27317506074905396,29.357959747314453,-7.020742416381836,39.218475341796875,0
312,3120014,0.06934512406587601,-0.021882014349102974,-1.0293573141098022,-0.502411425113678,-0.2770684063434601,0.5647088289260864,28.568941116333008,-10.311555862426758,39.901611328125,0
313,3130508,0.06378892064094543,-0.041415777057409286,-1.0115755796432495,-0.41800418496131897,0.2621707320213318,-0.32416605949401855,28.73341941833496,-10.97114372253418,39.611690521240234,0
314,3139888,0.014330890029668808,-0.018655141815543175,-0.9960011839866638,-0.11195874214172363,-0.2420666515827179,-0.7878633141517639,30.92534065246582,-9.456018447875977,38.10097885131836,0
315,3149915,-0.03366650640964508,-0.014627490192651749,-0.9873356223106384,-0.14754973351955414,-0.06644459813833237,-0.4430449903011322,31.905263900756836,-9.788223266601562,40.75516128540039,0
316,3159793,0.06486387550830841,0.05188972130417824,-1.0057621002197266,-1.2377574443817139,-0.267700731754303,0.009265228174626827,31.336698532104492,-11.209979057312012,39.78065872192383,0
317,3170172,-0.10510997474193573,-0.017799464985728264,-0.9661335945129395,-0.2539026141166687,-0.5512620210647583,0.956161379814148,31.3781795501709,-10.723182678222656,37.96467590332031,0
318,3179775,-0.022558635100722313,-0.03242992237210274,-1.0093917846679688,-0.3846195936203003,0.06310633569955826,0.2037908285856247,29.230897903442383,-10.90720272064209,39.86741256713867,0
319,3189897,-0.02866952307522297,-0.08456169068813324,-0.9891107678413391,-0.3144832253456116,0.1348731815814972,0.5643524527549744,30.627750396728516,-10.250151634216309,39.25186538696289,0
320,3200295,0.0017874964978545904,0.00022965544485487044,-0.9762240052223206,0.22285643219947815,0.0238653514534235,0.22726474702358246,30.712352752685547,-9.723212242126465,40.0916862487793,0
321,3209977,-0.027301538735628128,-0.037924330681562424,-0.9892781972885132,0.6974313259124756,-0.2237544059753418,0.099265918135643,29.628908157348633,-10.230052947998047,40.04511260986328,0
322,3219644,-0.04081033170223236,0.03910980373620987,-1.0373889207839966,0.5641523003578186,-0.02180493250489235,-0.1833786815404892,31.872961044311523,-9.873785018920898,39.671852111816406,0
323,3229975,0.019421514123678207,-0.00970680732280016,-1.016894817352295,0.6341921091079712,0.5785021185874939,0.34802529215812683,30.284902572631836,-8.430594444274902,40.95732879638672,0
324,3240091,0.10286159813404083,-0.05905910208821297,-0.9989956617355347,-0.7017068266868591,0.2809476852416992,-0.016469398513436317,30.929670333862305,-11.292920112609863,41.17215347290039,0
325,3250133,0.10505363345146179,-0.030696868896484375,-1.0111019611358643,-0.44716310501098633,-0.032613031566143036,-0.21419961750507355,30.038379669189453,-8.890854835510254,41.39470291137695,0
326,3259998,-0.037013500928878784,-0.029208334162831306,-1.0052274465560913,0.08323376625776291,-0.6589439511299133,0.26308542490005493,29.266542434692383,-10.352852821350098,41.485530853271484,0
327,3269904,-0.042594194412231445,0.09077479690313339,-0.9867621064186096,-0.044356703758239746,-0.18465149402618408,-0.22541743516921997,31.642810821533203,-9.560669898986816,41.08864974975586,0
328,3280077,0.02493068017065525,-0.0764225423336029,-0.9867851734161377,0.3343244791030884,0.02761841006577015,0.540822446346283,27.507823944091797,-11.117020606994629,41.99053192138672,0
329,3290045,0.020087283104658127,0.07840938866138458,-1.0288541316986084,0.0935046374797821,-0.23030059039592743,0.027700576931238174,31.039640426635742,-10.413284301757812,41.28056716918945,0
330,3299861,-0.07355576008558273,0.15943355858325958,-1.009204387664795,-0.38788896799087524,0.0020495299249887466,0.08636955171823502,29.524099349975586,-11.078683853149414,40.20209884643555,0
331,3309882,-0.08806505799293518,-0.0099546629935503,-1.0181925296783447,-0.9855992794036865,-0.9392138123512268,-0.20732450485229492,28.788827896118164,-10.204917907714844,43.26628112792969,0
332,3319903,-0.03362550958991051,0.01704639568924904,-1.0416536331176758,-0.6746348738670349,0.29947710037231445,-0.13761311769485474,30.339515686035156,-9.403433799743652,38.901641845703125,0
333,3329957,0.066948801279068,-0.07186445593833923,-1.035977840423584,0.9528669118881226,-0.1833782196044922,-0.15080209076404572,29.993648529052734,-10.145089149475098,40.010536193847656,0
334,3339897,0.03372811898589134,-0.02521044760942459,-0.9892012476921082,-0.011297602206468582,0.4432089924812317,-0.025929726660251617,31.22813606262207,-10.158011436462402,40.241451263427734,0
335,3349850,-0.028732459992170334,-0.048081882297992706,-1.007643699645996,0.012797718867659569,0.8681442737579346,-0.12726391851902008,30.58452606201172,-10.171170234680176,39.96472930908203,0
336,3360395,0.009716404601931572,-0.0565217062830925,-1.0217374563217163,0.37982991337776184,-0.3891424238681793,-0.5848701000213623,28.633934020996094,-11.802420616149902,38.38093185424805,0
337,3369959,0.06304750591516495,0.012187881395220757,-0.9612841606140137,0.5972449779510498,-0.24967758357524872,0.2995203137397766,30.95457649230957,-9.737018585205078,39.065853118896484,0
338,3379876,-0.009961804375052452,-0.03389711678028107,-0.9937203526496887,-0.07751879096031189,-0.03526384010910988,-0.28545644879341125,29.568965911865234,-10.0467529296875,38.50782775878906,0
339,3389969,-0.10885051637887955,-0.032609425485134125,-0.9984979629516602,0.14882662892341614,0.5685075521469116,-0.9372974038124084,30.85691261291504,-10.787863731384277,40.14890670776367,0
340,3399804,-0.026838740333914757,0.005375604145228863,-1.015395998954773,-0.2771691381931305,0.18888208270072937,0.30248787999153137,31.26890754699707,-11.799408912658691,38.62385559082031,0
341,3410013,-0.07555335760116577,-0.09519924968481064,-1.022251009941101,-0.3426480293273926,0.3884487450122833,-0.1844644397497177,29.31161880493164,-9.708593368530273,38.027957916259766,0
342,3420027,0.0514155738055706,-0.009008188731968403,-1.0344789028167725,-0.310076504945755,0.7703242897987366,-0.13175219297409058,28.69927215576172,-11.892807960510254,39.91984176635742,0
343,3429716,-0.034526750445365906,0.005663491319864988,-0.9881048798561096,0.31700679659843445,-0.5401614308357239,0.17947600781917572,27.1049747467041,-8.664448738098145,40.62656021118164,0
344,3439931,0.0048349942080676556,0.054116472601890564,-0.9560577869415283,-0.301143079996109,0.6438255906105042,-0.07831000536680222,30.657073974609375,-9.645392417907715,41.191673278808594,0
345,3449846,-0.05701850354671478,-0.033549968153238297,-0.9842080473899841,-0.15072551369667053,-0.12081318348646164,-1.410719633102417,29.95682144165039,-8.185859680175781,40.351810455322266,0
346,3459917,-0.009161926805973053,0.013111788779497147,-1.0178757905960083,0.0018424323061481118,0.4087209105491638,-0.48775792121887207,30.747684478759766,-10.548340797424316,41.11335754394531,0
347,3470030,0.03696286678314209,0.02962653338909149,-1.0024025440216064,0.18700584769248962,0.23603662848472595,-0.46269097924232483,29.61451530456543,-9.02471923828125,41.267921447753906,0
348,3480185,-0.002422585152089596,0.04548107087612152,-0.977946400642395,0.12135741114616394,0.6891754865646362,-1.067660927772522,30.887731552124023,-9.182490348815918,40.146915435791016,0
349,3490064,-0.10077432543039322,0.030484691262245178,-0.9724183678627014,0.9818888902664185,0.26062414050102234,-0.20914770662784576,30.591495513916016,-8.177901268005371,40.96998596191406,0
350,3500086,0.016458911821246147,0.06961171329021454,-0.9846445322036743,0.038351528346538544,-0.45174187421798706,0.18652841448783875,30.14866828918457,-11.260979652404785,41.23004150390625,0
351,3509869,0.020713314414024353,0.08792496472597122,-1.0261037349700928,-0.4876142144203186,-0.036561645567417145,-0.2961263954639435,30.313016891479492,-10.747763633728027,40.86864471435547,0
352,3519937,-0.011438310146331787,0.09527166932821274,-1.0006897449493408,-0.03324151411652565,0.36265745759010315,-1.2010047435760498,29.91489601135254,-10.934903144836426,40.697998046875,0
353,3529980,-0.01696007512509823,-0.007538551930338144,-0.9922013282775879,0.312797874212265,-0.013098904862999916,0.3398376405239105,29.962003707885742,-9.699461936950684,40.338783264160156,0
354,3539978,0.033442866057157516,0.02123131789267063,-0.994638204574585,-0.2616160213947296,-0.16372239589691162,-0.4408051073551178,30.988393783569336,-9.475399017333984,40.31861114501953,0
355,3549754,-0.10347993671894073,-0.00012923512258566916,-1.0035268068313599,-0.4416641592979431,-0.7065792083740234,-0.16210339963436127,32.517032623291016,-9.934690475463867,38.61098098754883,0
356,3559791,0.03931590914726257,-0.1085401102900505,-0.9755484461784363,0.6830431222915649,0.025293707847595215,0.15048785507678986,29.862131118774414,-12.41140365600586,39.28099060058594,0
357,3569939,-0.07380329072475433,0.04251983016729355,-0.996522843837738,0.38921496272087097,0.5303569436073303,-0.2741062343120575,29.62110137939453,-11.121459007263184,39.716373443603516,0
358,3579984,0.12705600261688232,-0.053621020168066025,-1.011842131614685,-0.3438369631767273,0.9143804311752319,-0.3974270522594452,29.478561401367188,-10.132913589477539,40.095054626464844,0
359,3590002,-0.09514662623405457,-0.0017101768171414733,-1.0187691450119019,-0.1837509721517563,-0.8480696678161621,-0.29986807703971863,31.309551239013672,-10.204352378845215,39.82289505004883,0
360,3599927,-0.0740136057138443,0.045858461409807205,-0.9973046183586121,-0.4830886125564575,0.6143341064453125,0.4152396321296692,30.441247940063477,-10.809653282165527,38.07305145263672,0
361,3610177,-0.014399579726159573,0.04845624789595604,-0.9833492636680603,0.2808472812175751,0.029794270172715187,0.9352955222129822,29.51873207092285,-10.493239402770996,39.923824310302734,0
362,3620036,-0.018360907211899757,-0.04782237857580185,-1.0077697038650513,0.05498313531279564,-0.033326517790555954,-0.010072239674627781,30.995588302612305,-9.146745681762695,38.692474365234375,0
363,3629870,-0.0038182204589247704,0.005180360749363899,-1.0008829832077026,-0.6454031467437744,0.4068348705768585,0.2990073561668396,32.1640739440918,-9.966513633728027,40.77292251586914,0
364,3640221,0.028454845771193504,-0.061306435614824295,-0.987186074256897,-0.21251967549324036,0.44916266202926636,-0.052919741719961166,31.40751075744629,-9.295417785644531,38.582763671875,0
365,3649913,0.02307124249637127,-0.048146653920412064,-1.0179874897003174,0.08104338496923447,-0.5085341930389404,-0.8006274104118347,31.041528701782227,-11.811156272888184,39.962196350097656,0
366,3659949,0.04539309814572334,-0.02621402032673359,-0.9852020144462585,-0.8333155512809753,0.9630137085914612,0.5227972269058228,30.411579132080078,-9.297064781188965,40.89654541015625,0
367,3670038,0.01436283253133297,0.06364728510379791,-1.012882947921753,-0.013263553380966187,-0.19773347675800323,-0.0267038457095623,29.422643661499023,-12.581441879272461,40.463836669921875,0
368,3680068,0.060941919684410095,0.06794605404138565,-0.9796940684318542,0.6048167943954468,-0.420800119638443,-0.18223926424980164,29.248851776123047,-9.02397632598877,40.94203567504883,0
369,3689658,-0.0782540962100029,-0.04479789733886719,-1.0543609857559204,-0.7425622940063477,0.8195810914039612,0.5317710041999817,30.401235580444336,-9.012818336486816,41.27123260498047,0
370,3699733,0.05323005095124245,-0.0010001943446695805,-1.00926673412323,0.4973129332065582,-0.3740646243095398,-0.8918207287788391,31.37966537475586,-11.049874305725098,40.15915298461914,0
371,3710306,-0.04087195545434952,0.10252810269594193,-1.025723934173584,-0.3820447027683258,0.749354898929596,0.9960539937019348,28.772140502929688,-9.735946655273438,39.821781158447266,0
372,3719868,-0.0809701681137085,-0.06254826486110687,-1.0261389017105103,-0.11917376518249512,-0.6123690009117126,-0.16144539415836334,29.932247161865234,-10.722105979919434,41.89157485961914,0
373,3729588,0.06530589610338211,0.0512131005525589,-0.9804474115371704,0.09319427609443665,0.495580792427063,-0.20888184010982513,29.056903839111328,-9.795186042785645,39.70372772216797,0
374,3739877,0.01844010129570961,-0.008271916769444942,-0.9849343299865723,-0.1926192194223404,-0.6141525506973267,0.7330088019371033,29.831560134887695,-8.595316886901855,39.14509582519531,0
375,3750007,0.03898487985134125,-0.0398854985833168,-0.9793225526809692,-0.1900651603937149,-0.05895867943763733,0.4393344223499298,30.150083541870117,-10.193268775939941,40.04673767089844,0
376,3759998,-0.023621680215001106,-0.007245797663927078,-0.9838166832923889,0.27049848437309265,0.2502398192882538,0.44273436069488525,29.021013259887695,-10.718927383422852,40.296180725097656,0
377,3769578,-0.025074686855077744,0.019186455756425858,-1.000868797302246,0.16793781518936157,-0.1566992551088333,-0.06288515031337738,30.655752182006836,-11.133540153503418,39.1386604309082,0
378,3779995,-0.09914752095937729,0.038465067744255066,-1.0254913568496704,0.08691950142383575,0.4658724069595337,0.20704355835914612,30.91845703125,-11.71579360961914,40.78184127807617,0
379,3789953,-0.09390456974506378,0.0022928654216229916,-0.9981182217597961,0.5433334112167358,1.413442611694336,0.23990435898303986,29.663820266723633,-9.168773651123047,39.41886901855469,0
380,3799891,-0.01807468757033348,0.05052685737609863,-1.01714289188385,-0.57294762134552,-0.8374162912368774,0.42686378955841064,28.476835250854492,-9.507505416870117,38.00494384765625,0
381,3810141,0.008713921532034874,-0.029504550620913506,-0.9821808934211731,-0.6917804479598999,-0.807115375995636,-0.05328361317515373,29.121463775634766,-10.198802947998047,39.264732360839844,0
382,3820397,-0.004777873866260052,0.01988825388252735,-0.9896782040596008,0.6342989206314087,-0.378650039434433,-0.1743841916322708,30.378862380981445,-9.653665542602539,40.124290466308594,0
383,3829815,0.08769849687814713,-0.05268098786473274,-1.0074325799942017,-0.5697307586669922,0.4104587435722351,0.7686392664909363,31.145397186279297,-9.38683795928955,38.63331985473633,0
384,3840176,-0.06189267337322235,-0.030538201332092285,-0.9976615905761719,-0.5608875751495361,0.11402246356010437,0.2839776873588562,30.220340728759766,-12.218767166137695,39.92744827270508,0
385,3850147,0.06092162802815437,-0.08853862434625626,-0.9911196231842041,-0.7986690998077393,-0.8809688687324524,0.4832577705383301,31.61573600769043,-8.992349624633789,38.828372955322266,0
386,3860009,-0.06951439380645752,-0.10386794805526733,-0.9919248223304749,0.03001864068210125,0.0941176638007164,-0.9472230076789856,30.131502151489258,-9.910871505737305,38.955020904541016,0
387,3869984,-0.01467464305460453,0.049584463238716125,-1.0069583654403687,-0.7122963666915894,-0.41590195894241333,0.3905225992202759,29.330270767211914,-10.819733619689941,40.69647216796875,0
388,3880052,-0.0018552509136497974,0.02613260969519615,-1.0073069334030151,-0.0818781927227974,0.4015955626964569,-0.569050133228302,30.33375358581543,-10.88354206085205,40.35068130493164,0
389,3890064,0.0330192893743515,-0.0873473733663559,-1.0094491243362427,0.09504587948322296,0.17267338931560516,-0.025456059724092484,32.67084884643555,-10.509495735168457,40.41785430908203,0
390,3899838,-0.01637829653918743,-0.016215909272432327,-1.0209500789642334,-0.7549107074737549,-0.6667425036430359,-0.2693783938884735,29.916460037231445,-8.205573081970215,40.08942413330078,0
391,3910089,0.027584213763475418,-0.014316524378955364,-1.028363823890686,-0.4978399872779846,-0.06304143369197845,-0.7787822484970093,31.017656326293945,-9.218245506286621,41.17873764038086,0
392,3920289,0.04195958375930786,-0.02575557492673397,-0.9985923171043396,0.3180806040763855,-1.1522406339645386,-0.49761465191841125,28.84514045715332,-11.062481880187988,40.47523498535156,0
393,3929999,0.005492061376571655,0.0030692804139107466,-1.0256083011627197,0.037761054933071136,0.524910569190979,0.21634337306022644,31.024763107299805,-9.068572998046875,40.29286575317383,0
394,3940014,0.02660205401480198,0.010416839271783829,-1.0245245695114136,0.35969865322113037,0.967804491519928,0.8522418141365051,29.6362361907959,-10.941853523254395,38.491512298583984,0
395,3950038,0.0029583184514194727,-0.007971993647515774,-0.9947918057441711,0.6528410315513611,-0.07559357583522797,0.7419793605804443,29.755247116088867,-12.27417278289795,39.55511474609375,0
396,3960043,0.07046737521886826,0.022253025323152542,-0.997490406036377,-0.22286288440227509,0.26731330156326294,-0.18690125644207,30.34868812561035,-9.922076225280762,41.52388000488281,0
397,3969947,-0.10538934916257858,0.03701046109199524,-1.0007543563842773,-0.5422278642654419,-0.5679006576538086,-0.10208108276128769,28.764503479003906,-9.045853614807129,38.84090042114258,0
398,3980023,0.03966027870774269,-0.006609204690903425,-0.9760777354240417,-0.22974146902561188,0.5161296129226685,0.07923945039510727,29.942556381225586,-10.514318466186523,39.996089935302734,0
399,3990064,-0.05701379477977753,-0.006058911327272654,-0.9908798336982727,-0.24823014438152313,-0.7389116883277893,-0.28676971793174744,31.300050735473633,-8.31746768951416,41.02479934692383,0
400,4000296,0.021248716861009598,-0.02899966947734356,-0.9886958003044128,-0.5976337790489197,-0.12786929309368134,0.022097531706094742,31.40463638305664,-9.570355415344238,40.283016204833984,0
401,4010084,-0.07359782606363297,0.05045031011104584,-1.0211303234100342,0.09498519450426102,0.913981020450592,-0.1663365215063095,29.513751983642578,-11.395660400390625,40.01679992675781,0
402,4019712,0.004920252598822117,0.03587931767106056,-1.015160083770752,-0.422197550535202,0.118803009390831,0.360624223947525,30.10809898376465,-9.47824478149414,38.944725036621094,0
403,4029989,0.0673879012465477,0.021703340113162994,-0.9881750345230103,1.070332646369934,-1.400883436203003,-0.08194752782583237,30.05820083618164,-12.891669273376465,40.23358917236328,0
404,4039956,-0.10012388974428177,-0.07184429466724396,-0.9996178150177002,0.3173673152923584,-0.6014941930770874,0.4714047908782959,30.860563278198242,-10.455352783203125,39.062801361083984,0
405,4050350,0.02279614470899105,0.043921347707509995,-0.9777928590774536,-0.03409823775291443,0.1203186884522438,-0.3014124035835266,31.035104751586914,-10.620065689086914,38.725242614746094,0
406,4059748,0.04288186877965927,0.008050372824072838,-0.9931133389472961,0.004369423724710941,0.25803905725479126,-0.5716551542282104,31.311756134033203,-8.920278549194336,38.89704895019531,0
407,4069971,0.006979122292250395,-0.007081344723701477,-1.0218985080718994,-0.7199214696884155,0.58488529920578,-0.12998639047145844,29.722183227539062,-10.567173957824707,40.60898971557617,0
408,4080117,0.014357209205627441,-0.028308304026722908,-0.9874508380889893,1.2025773525238037,0.812694787979126,0.25373753905296326,32.21005630493164,-10.823482513427734,40.57225799560547,0
409,4090067,-0.003917993512004614,-0.057333070784807205,-1.0110886096954346,-0.23295192420482635,0.25539302825927734,0.060641784220933914,31.860761642456055,-9.811245918273926,39.55657958984375,0
410,4099761,-0.08301607519388199,-0.023035140708088875,-1.0240650177001953,0.3371898829936981,-0.5237690806388855,-0.741855263710022,30.886016845703125,-10.504051208496094,40.83816909790039,0
411,4109813,0.01310288067907095,-0.023825444281101227,-1.003509283065796,0.831058144569397,0.35264599323272705,0.26384374499320984,30.641454696655273,-9.639264106750488,38.90684127807617,0
412,4120060,-0.05685511231422424,-0.009797952137887478,-0.9784902930259705,-0.4252259135246277,-0.17428478598594666,-0.47630903124809265,30.30436134338379,-9.95862865447998,39.60514450073242,0
413,4129866,0.0419485904276371,0.032981570810079575,-0.955459475517273,0.18745440244674683,-0.05739552155137062,-0.5833109021186829,30.169992446899414,-9.422224998474121,40.54238510131836,0
414,4140036,-0.07262072712182999,-0.03192133828997612,-0.9916626811027527,-0.47011181712150574,0.2319684773683548,-0.5864225029945374,32.26515197753906,-11.151392936706543,40.912315368652344,0
415,4150218,-0.049660373479127884,-0.01224908884614706,-0.9826002717018127,0.689479649066925,0.6134600043296814,-0.20133019983768463,29.385900497436523,-10.631489753723145,40.230525970458984,0
416,4159866,-0.013108881190419197,-0.052284568548202515,-0.9893365502357483,-0.8235564231872559,-0.23779885470867157,-0.24720031023025513,32.142372131347656,-10.276250839233398,39.95077896118164,0
417,4169994,0.020277168601751328,-0.0086207939311862,-1.0344152450561523,0.2151607722043991,0.008651625365018845,0.3383423984050751,29.40607261657715,-8.957594871520996,39.1225700378418,0
418,4179883,0.0007358150323852897,-0.00831130612641573,-1.0203837156295776,-0.3059733808040619,0.3055517375469208,-0.2573760151863098,29.402729034423828,-10.995735168457031,41.183738708496094,0
419,4190088,0.01956535130739212,0.02604774385690689,-0.9905596375465393,-0.04724612459540367,0.12821179628372192,-0.9014908671379089,29.528339385986328,-9.693896293640137,39.680484771728516,0
420,4200214,0.031680647283792496,0.0544581413269043,-0.979638934135437,-0.4421255588531494,1.1108301877975464,-0.2950931191444397,30.111074447631836,-10.613935470581055,40.582069396972656,0
421,4209936,-0.020383460447192192,-0.10644790530204773,-0.9996520280838013,0.16890078783035278,0.8543763160705566,0.32031431794166565,29.197717666625977,-9.87067985534668,38.38065719604492,0
422,4220176,0.03416166082024574,0.11509447544813156,-0.9941266775131226,-0.37263140082359314,0.007271437905728817,-0.8288016319274902,29.0980167388916,-11.68608570098877,42.02745056152344,0
423,4229791,0.05675170570611954,-0.10481482744216919,-0.9478903412818909,0.06655669957399368,0.5832766890525818,-0.5715377926826477,28.542104721069336,-10.573064804077148,40.028648376464844,0
424,4239994,0.015922756865620613,0.05994345247745514,-0.979274570941925,-0.14957915246486664,-0.5723873376846313,0.681266188621521,30.08647918701172,-8.650839805603027,40.789817810058594,0
425,4249801,0.04808729514479637,0.021061742678284645,-0.9884223341941833,-0.5754479169845581,0.4081939160823822,-0.729880690574646,30.547447204589844,-9.607743263244629,39.84169006347656,0
426,4260270,-0.016544412821531296,-0.011343170888721943,-1.0064995288848877,0.5677420496940613,-0.5038232207298279,0.76778644323349,31.58506965637207,-11.13585090637207,40.4951171875,0
427,4269755,0.007608065381646156,0.04700441285967827,-0.9885209202766418,0.24811162054538727,0.15221638977527618,-0.447783499956131,31.060415267944336,-10.711939811706543,40.192867279052734,0
428,4279866,-0.010320883244276047,-0.03438587859272957,-1.0121463537216187,0.8675487637519836,0.5143639445304871,0.23834586143493652,30.69645118713379,-9.107596397399902,40.322139739990234,0
429,4290181,-0.004692570306360722,-0.0028439313173294067,-0.9834327101707458,-0.6845497488975525,-0.04504440724849701,-0.20907704532146454,30.697275161743164,-9.768327713012695,39.92831039428711,0
430,4300149,-0.0058994232676923275,0.03640710562467575,-1.0309637784957886,-0.4408458471298218,0.4724901616573334,1.0901542901992798,30.881175994873047,-9.607318878173828,38.7005615234375,0
431,4309982,0.002398390555754304,0.060829415917396545,-1.0005357265472412,0.4132176339626312,-0.9684887528419495,-0.42747968435287476,31.100231170654297,-8.804637908935547,40.31947326660156,0
432,4319666,-0.06936716288328171,0.007847676053643227,-0.9878432154655457,-0.4202459752559662,-0.6110655665397644,0.2883911430835724,30.478479385375977,-10.652857780456543,39.893226623535156,0
433,4329888,0.07307373732328415,-0.010834557935595512,-1.010473370552063,-0.3354291021823883,0.8067474961280823,0.7801083922386169,30.414039611816406,-8.698551177978516,40.394676208496094,0
434,4339977,-0.02775988169014454,-0.04147462546825409,-0.9838399887084961,0.6409348845481873,-0.14720101654529572,0.41632112860679626,29.861709594726562,-9.122235298156738,39.92671203613281,0
435,4350112,0.05476297065615654,-0.04422890394926071,-1.0132685899734497,0.31193143129348755,0.7259177565574646,-0.2295314073562622,30.828420639038086,-10.488635063171387,40.35446548461914,0
436,4360147,0.04165567085146904,-0.08612741529941559,-1.0156193971633911,-0.14659751951694489,0.06743012368679047,0.0756349042057991,31.022432327270508,-9.245857238769531,40.70004653930664,0
437,4370119,-0.0034826290793716908,-0.08205749094486237,-1.015371561050415,-0.650577187538147,0.7388312816619873,0.44840049743652344,28.804445266723633,-9.341571807861328,41.05558776855469,0
438,4380217,-0.03453825041651726,0.09651977568864822,-0.9807983636856079,0.3662170171737671,0.22685177624225616,0.34558069705963135,28.18747901916504,-12.198997497558594,40.2315673828125,0
439,4390112,-0.011556245386600494,-0.0047278814017772675,-1.0053874254226685,0.04293682798743248,-0.1287381798028946,-0.3949132263660431,29.842336654663086,-9.684101104736328,40.86640930175781,0
440,4399622,-0.08586901426315308,-0.02959931083023548,-1.0206407308578491,0.26527053117752075,-0.2509538233280182,-0.9693936705589294,30.29953956604004,-10.276491165161133,38.735286712646484,0
441,4409958,-0.004537555854767561,0.019011836498975754,-0.9924563765525818,0.45760247111320496,0.21862658858299255,0.16839800775051117,29.1452579498291,-8.973220825195312,39.99140930175781,0
442,4420037,0.0477670393884182,0.015551691874861717,-1.0132466554641724,-0.5386524796485901,0.998131275177002,-0.02032015658915043,28.10376739501953,-9.743316650390625,38.86158752441406,0
443,4430019,-0.0028397315181791782,-0.042094286531209946,-0.9831153154373169,-0.24758318066596985,-0.1437378227710724,-0.21702508628368378,30.953643798828125,-12.31935977935791,40.44530487060547,0
444,4439725,0.012447121553122997,0.024574894458055496,-1.044203758239746,1.051903247833252,0.6687883734703064,-0.6619389057159424,29.213586807250977,-10.071738243103027,40.3998908996582,0
445,4450272,-0.07480235397815704,-0.0183103047311306,-0.9464743733406067,0.12743662297725677,0.31901562213897705,0.3697456419467926,30.62703514099121,-8.931879043579102,39.13056564331055,0
446,4460108,0.029409727081656456,-0.03761469945311546,-1.0199306011199951,0.28465667366981506,-0.19716985523700714,0.3832486569881439,31.601587295532227,-10.240962028503418,40.86371612548828,0
447,4470194,-0.07307686656713486,-0.05662853270769119,-1.0052216053009033,0.1837335079908371,-0.12627877295017242,-1.0037933588027954,30.23377799987793,-9.687990188598633,38.567806243896484,0
448,4480073,0.029698625206947327,0.034026458859443665,-0.9932159185409546,0.6542223691940308,-1.4339545965194702,0.13921430706977844,30.05898094177246,-10.608481407165527,40.45193099975586,0
449,4490212,0.028044458478689194,0.0656200647354126,-1.0036541223526,0.24693721532821655,0.7275745272636414,0.297360360622406,30.93471336364746,-9.236252784729004,39.72603988647461,0
450,4499721,0.07192275673151016,0.05799590051174164,-1.0213099718093872,-0.4644278883934021,-0.011331249959766865,-0.13359089195728302,29.638568878173828,-10.40404987335205,40.108272552490234,0
451,4510042,0.06541693955659866,0.11395946890115738,-0.9872149229049683,-0.46740832924842834,0.900348961353302,-0.334244042634964,29.401123046875,-10.160551071166992,40.667789459228516,0
452,4520115,-0.17039252817630768,-0.046451181173324585,-0.9837216734886169,-0.725801408290863,0.1237487941980362,-1.1945197582244873,29.64813995361328,-10.420939445495605,39.53479766845703,0
453,4530102,0.058134157210588455,0.025212008506059647,-1.0215154886245728,0.6380017399787903,0.01712554134428501,-0.011010602116584778,29.655691146850586,-9.84774398803711,40.72731399536133,0
454,4540079,-0.005392764694988728,0.0648115798830986,-0.9921776652336121,0.5110943913459778,0.6349169611930847,0.04531342536211014,29.537736892700195,-10.917684555053711,39.26036834716797,0
455,4549931,-0.0706024020910263,-0.022329844534397125,-1.0347849130630493,-0.15825775265693665,0.5696101784706116,0.1934669017791748,30.49388313293457,-9.046056747436523,40.83618927001953,0
456,4559917,0.05073072761297226,0.008109127171337605,-0.9716673493385315,-0.36878982186317444,-0.11148317903280258,0.398578941822052,31.00441551208496,-9.33479118347168,39.31447219848633,0
457,4570357,0.0525391511619091,-0.05226224288344383,-1.007062315940857,-0.21516281366348267,-0.10773168504238129,-0.4027397334575653,29.818960189819336,-11.570178985595703,39.5351448059082,0
458,4579634,0.001945104799233377,-0.02446487359702587,-0.9945414662361145,0.3796398341655731,-0.12636296451091766,-0.08806854486465454,30.038990020751953,-8.582592010498047,38.97224426269531,0
459,4589809,-0.021568523719906807,-0.04482833296060562,-1.01104736328125,0.029285190626978874,-0.3494515120983124,-0.04670444130897522,31.182832717895508,-10.338176727294922,40.12079620361328,0
460,4599536,0.0019526273244991899,-0.013215645216405392,-1.0303899049758911,0.12219676375389099,0.22525471448898315,-0.1242874413728714,29.89556312561035,-8.884173393249512,39.040985107421875,0
461,4609820,-0.09536801278591156,-0.06644411385059357,-1.0069421529769897,-0.12727315723896027,-0.689661979675293,0.4676135778427124,30.445634841918945,-10.789861679077148,38.98600769042969,0
462,4620175,0.016593651846051216,0.11256618797779083,-1.0021607875823975,-0.08822733908891678,0.4706276059150696,0.7499036192893982,30.11983871459961,-8.281899452209473,40.1025505065918,0
463,4630175,0.040958255529403687,0.0345776304602623,-0.9918321967124939,-0.31289827823638916,-0.8144121170043945,0.3076963722705841,30.324092864990234,-10.020430564880371,39.97977828979492,0
464,4640095,-0.039068493992090225,-0.15708830952644348,-1.0063310861587524,-0.4763554334640503,-0.17281076312065125,-0.42144760489463806,30.372039794921875,-10.086420059204102,40.63178634643555,0
465,4650207,0.05393547937273979,0.014900472946465015,-0.9928768277168274,0.13115933537483215,0.47506770491600037,0.06246686354279518,29.24131202697754,-8.956406593322754,40.48972702026367,0
466,4660283,0.06351073831319809,0.055293355137109756,-1.0474872589111328,0.0989917516708374,0.4947853088378906,-0.0947810709476471,29.16846466064453,-9.254324913024902,41.66667175292969,0
467,4670014,0.01860579289495945,0.04433330520987511,-0.9958819150924683,0.36106228828430176,-0.03878561034798622,0.9895102381706238,29.39087677001953,-10.967306137084961,40.85285186767578,0
468,4680160,0.03810377046465874,0.00673247454687953,-0.9947382211685181,0.3139033019542694,-0.47842463850975037,0.1049177348613739,29.030969619750977,-9.062281608581543,41.21992492675781,0
469,4689786,-0.04593329131603241,-0.012704272754490376,-1.0582427978515625,0.35268643498420715,0.4092322885990143,0.27398809790611267,28.992830276489258,-9.92009162902832,40.46913146972656,0
470,4700296,-0.0824708342552185,0.05748989060521126,-0.9949887990951538,-0.04306307062506676,-1.2837272882461548,-0.27474474906921387,29.817079544067383,-10.177329063415527,38.86111831665039,0
471,4710060,0.06484761089086533,-0.06636713445186615,-1.0172539949417114,-0.09010040760040283,-0.17939244210720062,0.29267358779907227,31.35433578491211,-9.618048667907715,40.71540832519531,0
472,4720071,0.06294990330934525,-0.06567440181970596,-1.0016180276870728,-0.2768704891204834,0.06170845031738281,-0.5557645559310913,29.00605010986328,-10.057441711425781,38.65196990966797,0
473,4730033,0.040495891124010086,0.03434552624821663,-1.0187500715255737,0.3673913776874542,-0.2898571789264679,0.6268748044967651,29.614648818969727,-9.945149421691895,41.29359817504883,0
474,4740159,-0.023984940722584724,-0.009787452407181263,-0.9940428733825684,0.4702616035938263,0.36801639199256897,0.8569771647453308,30.258508682250977,-9.66116714477539,41.20466995239258,0
475,4749899,0.031763624399900436,0.05537552013993263,-0.9900398254394531,0.5145967602729797,0.31798216700553894,-0.26649728417396545,27.538246154785156,-9.002668380737305,41.5621337890625,0
476,4760041,0.05351141467690468,0.035709965974092484,-1.0105994939804077,1.0018067359924316,0.6314849853515625,-0.39128342270851135,30.366979598999023,-11.903526306152344,38.842105865478516,0
477,4769911,0.06754287332296371,0.03685043379664421,-0.9850122928619385,-0.7595189809799194,-0.010965421795845032,-0.4222654700279236,32.117698669433594,-10.3587064743042,38.145851135253906,0
478,4780193,0.025983011350035667,-0.03510618209838867,-0.9939781427383423,-0.7981204986572266,0.5158281326293945,-0.03512784093618393,30.78555679321289,-9.580631256103516,41.44620132446289,0
479,4789915,-0.08673649281263351,0.05649242177605629,-0.9621317386627197,-0.16867657005786896,-0.3831615746021271,-0.20337989926338196,29.115985870361328,-8.266860008239746,39.97395324707031,0
480,4800148,-0.06617740541696548,0.05128546431660652,-0.9905769228935242,0.6113649606704712,-0.41444963216781616,0.7364043593406677,30.300996780395508,-11.12208366394043,38.86860275268555,0
481,4809994,-0.007414811756461859,-0.019887544214725494,-0.9988714456558228,-0.5068545937538147,-0.6402788758277893,0.2468189150094986,30.77573013305664,-10.775111198425293,40.24748992919922,0
482,4820051,-0.06903262436389923,0.016121022403240204,-0.9863160252571106,-0.08397865295410156,-0.30365902185440063,-0.6617024540901184,29.15243911743164,-9.222530364990234,40.41923522949219,0
483,4829965,0.047076769173145294,4.7135279601207e-05,-1.0090305805206299,-0.25844186544418335,-0.1768786609172821,-0.14740724861621857,29.686031341552734,-9.874018669128418,39.97935485839844,0
484,4839787,-0.014889934100210667,0.028737064450979233,-1.0101243257522583,0.559049129486084,0.3698902726173401,-0.2191208451986313,29.168071746826172,-10.916935920715332,40.31059646606445,0
485,4849894,-0.03317487984895706,0.1271277666091919,-1.0118591785430908,-1.0158593654632568,0.07334953546524048,0.9078415036201477,29.603626251220703,-11.088245391845703,38.220523834228516,0
486,4860041,-0.008002979680895805,0.047562375664711,-0.9954953193664551,-0.6478002071380615,0.7539575099945068,0.3051615059375763,28.257244110107422,-8.47253704071045,39.9683723449707,0
487,4869934,0.1416611671447754,-0.046500708907842636,-1.0281245708465576,0.5203813910484314,0.06471564620733261,-0.3558441400527954,32.47595977783203,-9.30583381652832,38.29879379272461,0
488,4879824,-0.004930118098855019,-0.027188634499907494,-0.9701098799705505,-0.9551854729652405,0.1844215840101242,0.049830228090286255,28.902416229248047,-9.355111122131348,38.8206672668457,0
489,4889745,-0.006891646888107061,0.030909141525626183,-0.9986892938613892,0.43162938952445984,-0.23642610013484955,-0.6569319367408752,29.671859741210938,-9.915183067321777,37.859439849853516,0
490,4900016,-0.08990858495235443,0.0402148962020874,-0.9728875160217285,-0.16665326058864594,0.8225420713424683,0.24693596363067627,30.13616943359375,-9.934194564819336,40.4781379699707,0
491,4909783,0.006287147291004658,0.08216213434934616,-0.9895479083061218,0.42212241888046265,0.1080760657787323,-0.053089167922735214,30.980106353759766,-11.245490074157715,38.98294448852539,0
492,4920244,-0.009213498793542385,-0.0293605737388134,-1.0069729089736938,0.09556666016578674,-0.7594937682151794,0.4167725741863251,29.114723205566406,-9.714426040649414,39.82166290283203,0
493,4930017,0.011159955523908138,-0.06223341450095177,-1.0090442895889282,-0.5000975131988525,0.27577757835388184,0.6293738484382629,28.499656677246094,-11.703197479248047,41.32245635986328,0
494,4939777,-0.010168520733714104,0.045435380190610886,-0.9751995205879211,0.1197044849395752,0.22200416028499603,0.3976195752620697,30.213706970214844,-9.656420707702637,39.222679138183594,0
495,4949817,-0.0036909356713294983,0.005409446079283953,-1.0354797840118408,0.1885729879140854,-0.052498240023851395,-0.13515442609786987,29.54133415222168,-8.037422180175781,39.92323684692383,0
496,4959961,0.010388647206127644,-0.005538844969123602,-1.0157184600830078,-1.3150871992111206,1.126024842262268,0.31189367175102234,30.521772384643555,-9.010087013244629,40.3957633972168,0
497,4970097,-0.05713571980595589,-0.015309515409171581,-0.9790765047073364,0.2522032856941223,-0.4536427855491638,-0.12957343459129333,28.933120727539062,-9.721179962158203,39.474327087402344,0
498,4980238,0.04881865158677101,0.08791286498308182,-1.0338672399520874,-0.44843098521232605,0.49577954411506653,0.6328166723251343,29.98036003112793,-10.256302833557129,39.74109649658203,0
499,4989999,-0.0001961841044249013,-0.024199506267905235,-0.9919054508209229,-0.46821698546409607,0.06643921136856079,-1.4084311723709106,31.40958023071289,-10.730627059936523,39.180763244628906,0
500,5000047,-0.0298346858471632,-0.032361581921577454,-0.96320641040802,-0.21840134263038635,0.33139488101005554,0.07211793959140778,29.230453491210938,-9.979490280151367,38.9454460144043,0
501,5009791,-0.03830191120505333,-0.048171985894441605,-1.0175502300262451,0.07327181845903397,0.03775821998715401,0.4914258122444153,28.449600219726562,-10.371906280517578,40.48341751098633,0
502,5020028,-0.00839263666421175,0.0011256297584623098,-0.9841437935829163,0.3257484436035156,-0.13609981536865234,-0.5263338088989258,29.4270076751709,-11.095458030700684,42.69614791870117,0
503,5029849,0.07452145963907242,-0.02300545945763588,-1.0003559589385986,0.1919766217470169,-0.07893381267786026,0.16847693920135498,29.77532196044922,-8.689790725708008,38.74409103393555,0
504,5039942,0.05694533511996269,0.027188831940293312,-1.0149856805801392,-0.7013751864433289,0.830568253993988,0.45693516731262207,31.317455291748047,-8.344873428344727,40.87622833251953,0
505,5049966,-0.0026238663122057915,-0.02536127343773842,-0.9891504049301147,0.8655701875686646,-0.4809187650680542,-0.7781875729560852,29.899635314941406,-10.07611083984375,40.15663146972656,0
506,5059980,-0.04507651552557945,0.017231086269021034,-0.968620240688324,-0.6755906939506531,0.770149827003479,0.06678430736064911,29.364988327026367,-7.992923259735107,39.56204605102539,0
507,5069745,0.04063210263848305,-0.009752894751727581,-1.017202377319336,0.6012740731239319,0.043715961277484894,0.7034334540367126,30.027545928955078,-10.423826217651367,39.98219299316406,0
508,5080019,0.04240909218788147,-0.004433544352650642,-1.013296365737915,-0.814174234867096,-0.04990715533494949,-0.27161848545074463,29.959299087524414,-10.225171089172363,42.13525390625,0
509,5090116,0.026126263663172722,-0.07319232076406479,-0.9426301121711731,-0.6252433657646179,0.1751161813735962,1.265759825706482,28.586233139038086,-9.875748634338379,40.72235107421875,0
510,5100295,-0.02155980095267296,0.02812846563756466,-0.9875720143318176,-0.1980343908071518,-0.20756104588508606,0.9021005034446716,31.75666046142578,-9.267884254455566,39.41529083251953,0
511,5109858,-0.022777462378144264,-0.018171390518546104,-0.9910760521888733,-0.3256026804447174,-0.494769424200058,0.15538664162158966,28.977127075195312,-10.952529907226562,40.59451675415039,0
512,5119942,0.03701760247349739,-0.019131824374198914,-1.0043773651123047,-0.053506091237068176,-0.04333796352148056,0.3529198467731476,30.48990249633789,-8.335372924804688,37.39419937133789,0
513,5130136,0.039253827184438705,0.058700595051050186,-0.9625159502029419,-0.02620844542980194,0.590949296951294,-0.20257796347141266,28.9385986328125,-9.82120132446289,39.76724624633789,0
514,5139942,-0.060336511582136154,-0.03882409259676933,-0.9969635009765625,0.6694198250770569,-0.9303004741668701,1.2896207571029663,29.71185874938965,-10.409734725952148,39.92878341674805,0
515,5149968,0.03374286741018295,0.044621411710977554,-0.9938713312149048,0.2715074121952057,-0.18973776698112488,0.2921457588672638,30.01861572265625,-8.275718688964844,40.27617263793945,0
516,5160086,-0.0757145956158638,0.008751998655498028,-0.979995846748352,-0.14690059423446655,-0.061023611575365067,-0.11208750307559967,30.7359676361084,-10.469765663146973,39.9624137878418,0
517,5169916,-0.06878076493740082,-0.04345703125,-0.999029278755188,0.7124828100204468,-0.15318705141544342,0.5798175930976868,31.46925926208496,-10.197636604309082,39.474945068359375,0
518,5180047,-0.04339783266186714,-0.015123853459954262,-0.9855746030807495,-0.1655750572681427,0.45609357953071594,-0.17581133544445038,29.811952590942383,-9.768570899963379,38.8543586730957,0
519,5190133,-0.03205297887325287,-0.023290319368243217,-0.9649562239646912,-0.18991634249687195,-0.2850547134876251,-0.20789514482021332,27.111204147338867,-7.777932643890381,39.34953689575195,0
520,5200125,-0.01149444468319416,-0.008287832140922546,-0.9886353611946106,-0.3360392153263092,0.2512849271297455,-0.12516473233699799,27.539405822753906,-10.902763366699219,39.471126556396484,0
521,5210168,-0.005509079433977604,-0.1117735505104065,-1.002090573310852,0.24344564974308014,0.43214133381843567,-0.22003331780433655,30.12672996520996,-9.044973373413086,40.11425018310547,0
522,5220140,-0.07724069803953171,-0.031883228570222855,-0.9697546362876892,0.4997509717941284,0.24369287490844727,0.335440456867218,30.478139877319336,-10.412307739257812,39.39325714111328,0
523,5230212,0.059705253690481186,-0.0001315530389547348,-1.0047762393951416,-0.035473890602588654,-0.1417401283979416,-0.8968020081520081,29.378990173339844,-9.381271362304688,41.20793914794922,0
524,5239986,-0.09039342403411865,-0.057797353714704514,-1.006182312965393,0.29450950026512146,0.8666603565216064,0.10807754844427109,29.414371490478516,-10.392926216125488,38.47175216674805,0
525,5249967,0.02590499445796013,0.09255648404359818,-1.0067081451416016,-0.9253097176551819,-0.5619242191314697,0.6211948990821838,30.128366470336914,-9.850489616394043,40.252777099609375,0
526,5259990,0.06162118539214134,0.09014889597892761,-0.9883435368537903,0.9059879779815674,-0.0772077813744545,0.32261285185813904,31.773571014404297,-9.496148109436035,39.514312744140625,0
527,5270166,-0.040391627699136734,-0.0001914478634716943,-1.0160530805587769,-0.22838044166564941,0.0023122513666749,-0.15371523797512054,31.315753936767578,-10.234461784362793,39.45125961303711,0
528,5280211,0.06063025817275047,-0.04197864234447479,-0.9837889075279236,-0.3235280513763428,-0.24520091712474823,0.23739805817604065,30.59076499938965,-11.008283615112305,39.99571228027344,0
529,5289759,0.0019379454897716641,-0.06367756426334381,-0.9957719445228577,0.7663536071777344,0.3582874536514282,-0.35899999737739563,29.248043060302734,-12.74831771850586,39.88950729370117,0
530,5299886,-0.00394054688513279,-0.05627240985631943,-0.9863614439964294,-0.1329682171344757,-0.07936014980077744,0.30144765973091125,29.037639617919922,-9.149888038635254,40.21293640136719,0
531,5309916,-0.06421536952257156,-0.029789751395583153,-0.9981322884559631,-0.4350830018520355,-0.6268375515937805,0.09386865794658661,30.107318878173828,-9.465229034423828,40.29862594604492,0
532,5320127,-0.006121881306171417,-0.009335637092590332,-1.0055372714996338,-0.44152191281318665,-0.2124667465686798,-0.5533033609390259,30.192678451538086,-10.76228141784668,39.913719177246094,0
533,5329845,-0.04332423582673073,0.06657189875841141,-1.0206166505813599,-0.1652967780828476,0.1223750039935112,-0.2594851553440094,29.540529251098633,-9.399954795837402,40.41775131225586,0
534,5339851,-0.036707788705825806,-0.02706679329276085,-0.9902400374412537,0.18546970188617706,0.17929384112358093,0.3458508551120758,30.889665603637695,-10.99718952178955,40.99704360961914,0
535,5350123,0.07654761523008347,-0.05006556212902069,-1.0088328123092651,-1.23965322971344,0.48350006341934204,0.251075804233551,30.01799201965332,-11.591333389282227,41.78940200805664,0
536,5360260,-0.013407970778644085,-0.04477165266871452,-1.0262125730514526,1.0473405122756958,0.28304600715637207,0.4496946930885315,31.39457893371582,-8.302183151245117,38.0056266784668,0
537,5369953,-0.02018674835562706,-0.014551568776369095,-0.9778247475624084,-0.37987518310546875,-0.6698388457298279,-0.4968765079975128,30.77266502380371,-9.10662841796875,38.85232925415039,0
538,5380143,-0.04668719694018364,-0.08148659765720367,-0.9901991486549377,0.07406829297542572,-0.26697537302970886,-0.3548746705055237,30.748899459838867,-9.696955680847168,38.722564697265625,0
539,5390079,0.022253334522247314,0.05402004346251488,-1.015771746635437,-0.24505683779716492,-0.2005922794342041,0.10405575484037399,29.349681854248047,-9.597174644470215,40.80704879760742,0
540,5399959,-0.03616056963801384,0.058048561215400696,-0.9827210307121277,-0.49599483609199524,0.5103042721748352,0.006778986193239689,29.712779998779297,-9.92878532409668,38.99729537963867,0
541,5410212,0.025408245623111725,-0.015752725303173065,-0.9708498120307922,-0.04303008317947388,-0.19333156943321228,-0.34968918561935425,29.396364212036133,-10.975968360900879,40.52322006225586,0
542,5420074,-0.11376555263996124,0.05001898854970932,-1.0088262557983398,-0.629844605922699,0.1777389496564865,-0.6261985301971436,30.067821502685547,-9.96391487121582,42.091068267822266,0
543,5430194,-0.016444148495793343,0.017790887504816055,-1.0095850229263306,0.5818248391151428,-0.5540698766708374,-0.10559869557619095,29.314544677734375,-9.69674015045166,39.429439544677734,0
544,5440060,-0.0415496751666069,-0.01709551177918911,-1.0025185346603394,1.0376862287521362,-0.0820726677775383,-1.5756622552871704,29.522388458251953,-11.75221061706543,39.34829330444336,0
545,5450047,0.01162951160222292,0.1052015945315361,-0.986144483089447,-0.1513192057609558,0.8689758777618408,0.5704578161239624,29.43173599243164,-9.238786697387695,39.611175537109375,0
546,5460071,0.07108105719089508,0.042380690574645996,-0.9803066849708557,0.12565752863883972,0.6396918892860413,0.33784428238868713,29.399303436279297,-12.306602478027344,39.43358612060547,0
547,5470030,-0.01716201938688755,-0.0033093297388404608,-1.0114153623580933,0.1971573680639267,0.3039417266845703,0.6326379179954529,29.095714569091797,-9.496936798095703,39.64744186401367,0
548,5480042,-0.024105442687869072,0.0790405124425888,-1.0308775901794434,-0.08067771047353745,1.0155017375946045,-0.2769991457462311,30.51323699951172,-10.53040885925293,38.94306945800781,0
549,5489760,0.021668650209903717,-0.026077566668391228,-1.0047435760498047,0.11570237576961517,-0.33998456597328186,0.04969418793916702,29.01983642578125,-12.860551834106445,40.7093391418457,0
550,5499950,-0.05568109452724457,0.01011691428720951,-0.9940119981765747,-0.07321017235517502,-1.0745218992233276,-0.3464263379573822,31.123329162597656,-10.62609577178955,38.431793212890625,0
551,5510072,0.1047205999493599,-0.011315702460706234,-1.0085642337799072,0.02495807223021984,-0.3888365626335144,0.5476351976394653,31.0645694732666,-9.853782653808594,38.37467956542969,0
552,5519937,-0.07405616343021393,-0.040218740701675415,-1.0053597688674927,0.24786099791526794,0.22466334700584412,-0.6217803955078125,28.394132614135742,-10.842991828918457,39.99979782104492,0
553,5530034,-0.05861588940024376,-0.046108443289995193,-0.9440574049949646,-0.20096655189990997,0.9261776804924011,0.631176769733429,30.04010009765625,-9.795516967773438,40.526329040527344,0
554,5540125,-0.06382086873054504,-0.02779526449739933,-1.0017327070236206,-0.8248314261436462,-0.5320414304733276,0.2919006049633026,29.96181297302246,-9.284130096435547,39.12389373779297,0
555,5550261,-0.001807489083148539,-0.00387581461109221,-0.9675338864326477,0.3195554316043854,0.07991587370634079,0.31038475036621094,30.67439079284668,-10.43213939666748,39.84171676635742,0
556,5560109,0.06568840146064758,-0.09785540401935577,-0.9976112842559814,0.6609283089637756,0.9182802438735962,0.631914496421814,30.89923095703125,-9.743369102478027,42.12013626098633,0
557,5570090,-0.02021506242454052,0.09505864977836609,-0.9787886142730713,-0.1567976325750351,-0.6990262866020203,0.709373414516449,29.56044578552246,-10.332091331481934,41.44977569580078,0
558,5579839,0.08504385501146317,0.03259793296456337,-0.99704509973526,-0.6650278568267822,-0.8120015263557434,0.2867012917995453,28.78472900390625,-10.856058120727539,41.128089904785156,0
559,5589908,0.03804466500878334,0.010541394352912903,-1.0383429527282715,0.008705683052539825,-0.18092255294322968,-1.2452735900878906,29.457714080810547,-9.508330345153809,39.49626159667969,0
560,5600310,0.04269880801439285,-0.04376695305109024,-0.9976258277893066,-0.05361734703183174,0.46980759501457214,-0.027956489473581314,31.297372817993164,-11.579447746276855,40.66434860229492,0
561,5610029,0.05256374180316925,-0.05440344661474228,-1.0116734504699707,-0.1092318668961525,-0.10804029554128647,-0.20604830980300903,29.736692428588867,-10.364858627319336,41.144588470458984,0
562,5619981,0.10970530658960342,-0.01461478229612112,-1.017723798751831,-0.1650928556919098,-0.5073941349983215,-0.0016214874340221286,29.236183166503906,-8.958061218261719,40.675262451171875,0
563,5630150,-0.16095297038555145,-0.15716730058193207,-0.9955768585205078,0.5172492861747742,-0.4408740997314453,-0.6000037789344788,30.594863891601562,-8.970990180969238,39.838470458984375,0
564,5639942,0.00717806164175272,-0.00920998677611351,-1.0340265035629272,0.7940302491188049,-0.01356529165059328,-0.04966996982693672,29.66677474975586,-9.69999885559082,39.36017990112305,0
565,5650055,0.05698773264884949,-0.00013064747327007353,-1.001219630241394,0.17458954453468323,-0.5856641530990601,0.34099528193473816,30.753284454345703,-9.549598693847656,41.07589340209961,0
566,5660139,-0.030612807720899582,0.0678078830242157,-0.980162501335144,0.2733667194843292,-0.16407841444015503,-0.021626373752951622,28.809059143066406,-10.52880859375,38.96888732910156,0
567,5670063,-0.028030838817358017,-0.007702164817601442,-1.003804087638855,-0.10755110532045364,0.45214757323265076,0.017776211723685265,31.344717025756836,-8.721237182617188,38.922508239746094,0
568,5680187,-0.02701953612267971,-0.05862092226743698,-0.9901022911071777,0.12163716554641724,0.2750639021396637,0.19795195758342743,29.13515281677246,-10.021240234375,40.53072738647461,0
569,5690037,0.016475755721330643,-0.12084783613681793,-0.9803850650787354,-0.6496190428733826,0.2563961446285248,0.9535313248634338,30.78757667541504,-9.72740364074707,39.65155029296875,0
570,5700091,-0.04567297175526619,0.03305196017026901,-0.9953230023384094,-0.31062808632850647,-0.15738971531391144,0.22497017681598663,28.40683937072754,-10.690418243408203,41.07052993774414,0
571,5709821,0.040629368275403976,-0.04991096258163452,-0.9838730692863464,0.18065635859966278,0.15990565717220306,-0.18566417694091797,30.503055572509766,-8.749300003051758,40.35255432128906,0
572,5720122,0.03579121455550194,0.05301655828952789,-1.0219649076461792,0.2627620995044708,0.49045878648757935,-0.9425972700119019,29.76222038269043,-10.60075569152832,40.95753860473633,0
573,5730157,0.11619684845209122,0.03861420601606369,-0.9786924123764038,-0.8513703346252441,0.07703327387571335,-0.5691812634468079,30.75678825378418,-9.630494117736816,41.200748443603516,0
574,5740098,-0.04098132997751236,0.0745440274477005,-0.9911539554595947,-0.5494740009307861,-0.8364438414573669,-0.39089295268058777,31.3629150390625,-10.71648120880127,41.58283996582031,0
575,5750112,-0.015829117968678474,0.012564110569655895,-0.9768412709236145,-1.0874614715576172,-0.02741602621972561,0.10513728857040405,30.64993667602539,-10.32198429107666,40.29774475097656,0
576,5759942,0.06156270205974579,0.012007110752165318,-0.9761627316474915,-0.820348858833313,-0.20215538144111633,-0.514219343662262,28.718568801879883,-8.783326148986816,39.649288177490234,0
577,5769982,-0.03686431422829628,-0.03251838684082031,-0.984630286693573,0.7210381031036377,0.1299002766609192,0.7136221528053284,31.5322265625,-12.038484573364258,39.00163269042969,0
578,5779973,0.006809896789491177,0.08052201569080353,-1.0278085470199585,0.45296111702919006,0.3542417585849762,-0.9876519441604614,30.528560638427734,-12.516809463500977,39.21855163574219,0
579,5789777,0.004521894734352827,0.057333845645189285,-1.0004374980926514,-0.00012164370127720758,-0.4084591865539551,0.45885196328163147,28.595552444458008,-8.499516487121582,40.78629684448242,0
580,5800001,0.02047525905072689,0.001368354307487607,-1.0089296102523804,-0.5673049092292786,-0.6284360289573669,0.1075376346707344,30.141786575317383,-10.72192668914795,39.87066650390625,0
581,5809940,0.0461064949631691,0.029155481606721878,-0.9592564702033997,-0.2800540030002594,-0.3298836648464203,-0.1768690049648285,29.564346313476562,-11.087611198425293,42.1280403137207,0
582,5820227,0.08101390302181244,0.03952847421169281,-0.9959272146224976,0.5455474853515625,-0.5450665950775146,0.34364405274391174,29.948484420776367,-9.811123847961426,38.68334197998047,0
583,5830038,-0.008794263936579227,-0.029893556609749794,-0.9983296394348145,0.16133205592632294,0.10028473287820816,-0.09008640795946121,28.728853225708008,-9.787851333618164,38.45648193359375,0
584,5840325,0.06628545373678207,0.006572078447788954,-1.017830729484558,-0.0438561774790287,-0.1832668036222458,-0.4388110637664795,30.36366081237793,-11.454136848449707,39.5987434387207,0
585,5850126,0.018374452367424965,0.002076023491099477,-1.0265477895736694,-0.10427029430866241,0.20533065497875214,-0.6182385683059692,29.5544376373291,-11.523014068603516,40.458717346191406,0
586,5859983,-0.005782041233032942,-0.012670394964516163,-0.9661697149276733,-0.2088499367237091,-0.6795843839645386,0.08281397074460983,27.14630889892578,-12.435972213745117,40.7263298034668,0
587,5869935,-0.07892993837594986,-0.03791647031903267,-1.0186302661895752,0.006581289693713188,0.4777114689350128,0.358844518661499,31.10124397277832,-11.486332893371582,40.59450912475586,0
588,5880001,-0.05090418830513954,-0.027055341750383377,-0.9834418296813965,-0.09877670556306839,-0.6429005265235901,0.02507147192955017,31.476831436157227,-11.47286319732666,39.44783020019531,0
589,5889936,0.0909532830119133,0.03756691887974739,-0.9850592017173767,0.5209632515907288,0.2979639172554016,0.06930653005838394,30.691091537475586,-9.203625679016113,39.18901824951172,0
590,5900093,-0.027293525636196136,0.05058026686310768,-1.0029385089874268,0.25901728868484497,-0.7920309901237488,0.028702063485980034,30.29998016357422,-9.160245895385742,40.35165786743164,0
591,5910106,0.08725984394550323,0.06194010376930237,-0.9831027388572693,0.19338878989219666,0.552156925201416,0.1735217273235321,30.439123153686523,-10.252241134643555,39.03243637084961,0
592,5920314,0.0827096477150917,0.03998872637748718,-1.045926809310913,-0.4887263774871826,0.12079209089279175,0.11612521857023239,31.711376190185547,-9.176566123962402,40.08017349243164,0
593,5929839,-0.10075953602790833,-0.04981695115566254,-1.009291410446167,-0.6059654951095581,-0.9925342202186584,-0.3922275900840759,30.91704750061035,-10.460329055786133,39.97674560546875,0
594,5940148,-0.021654007956385612,-0.05814596265554428,-1.0225027799606323,0.6653388142585754,-0.1853344589471817,0.0371931828558445,29.503808975219727,-10.595762252807617,40.1939582824707,0
595,5950032,-0.0022923466749489307,-0.12404420971870422,-0.9641891121864319,-0.45775824785232544,0.22364851832389832,-0.2600350081920624,27.572168350219727,-11.001294136047363,40.654605865478516,0
596,5959954,-0.010594429448246956,0.025263184681534767,-0.9890176057815552,0.34056809544563293,-0.6199966073036194,-0.1331120878458023,31.166311264038086,-11.405451774597168,39.17393493652344,0
597,5970190,-0.028984321281313896,0.07110929489135742,-1.000578761100769,-0.6030954122543335,0.5181607007980347,-0.38032039999961853,28.653671264648438,-12.034297943115234,40.10639953613281,0
598,5980018,-0.012325724586844444,-0.08228067308664322,-0.987102746963501,-0.6743862628936768,0.08368638902902603,-0.7187225818634033,30.3397216796875,-11.511194229125977,39.3146858215332,0
599,5989910,0.020823422819375992,0.04450549930334091,-1.0217067003250122,0.41505905985832214,-0.33865493535995483,0.39600276947021484,29.49820327758789,-12.22751235961914,40.34054183959961,0
600,6000020,0.005092383362352848,-0.03229370340704918,-1.0397100448608398,0.23642347753047943,-0.1806691288948059,0.026342924684286118,28.75084686279297,-8.575888633728027,40.99679946899414,0
601,6010124,-0.04837256669998169,0.0015442927833646536,-1.0371336936950684,-0.3863951563835144,0.9240206480026245,0.8486588001251221,29.949983596801758,-11.850401878356934,39.40180969238281,0
602,6020006,0.03799022361636162,0.0628650113940239,-1.017716884613037,-0.9448832273483276,-0.25271761417388916,0.36517858505249023,29.88727569580078,-9.933309555053711,40.04789352416992,0
603,6030058,0.052930060774087906,0.025920070707798004,-1.0027958154678345,-0.5019790530204773,-0.49404141306877136,-0.1194610595703125,29.31919288635254,-11.534655570983887,41.52350616455078,0
604,6040074,0.034228645265102386,-0.0029338381718844175,-1.0195770263671875,-0.6417431831359863,0.6151804327964783,0.41637176275253296,29.604337692260742,-10.471489906311035,39.800559997558594,0
605,6049968,0.003993385937064886,-0.045202091336250305,-0.981902003288269,0.11445894092321396,0.5155303478240967,0.24749577045440674,30.074440002441406,-9.147871017456055,39.456993103027344,0
606,6060250,-0.05603187531232834,-0.000980813056230545,-0.9952802658081055,0.03534644842147827,0.5629671812057495,0.22571434080600739,29.40056610107422,-10.607036590576172,40.239837646484375,0
607,6069914,0.014520306140184402,-0.011722790077328682,-1.037972092628479,-0.4161166548728943,-0.17067483067512512,0.6597566604614258,31.21436309814453,-10.857146263122559,39.47911834716797,0
608,6079774,0.04984758421778679,0.034435003995895386,-0.997435986995697,-1.011374831199646,0.3477815091609955,-0.6774951219558716,29.61844253540039,-10.152008056640625,39.211891174316406,0
609,6089858,0.02929987572133541,-0.07939203828573227,-0.9657354354858398,0.11295006424188614,0.5841590166091919,0.43989837169647217,31.375112533569336,-11.351049423217773,39.133758544921875,0
610,6100203,0.013728976249694824,-0.14859038591384888,-0.9904723167419434,0.3114089071750641,0.26657646894454956,0.355327308177948,30.374876022338867,-9.019439697265625,40.3769645690918,0
611,6110087,-0.12209175527095795,0.0443183034658432,-1.026821494102478,-0.20493881404399872,-0.27723637223243713,-0.6300462484359741,30.837757110595703,-11.252903938293457,39.54744338989258,0
612,6120035,0.010295393876731396,-0.06577201187610626,-1.0212973356246948,-0.4046142101287842,-0.3508172035217285,-0.3021683394908905,31.539289474487305,-9.482851028442383,39.68218231201172,0
613,6129881,0.025095488876104355,0.03715907782316208,-0.9994030594825745,-0.19195999205112457,0.3839287757873535,0.01749754697084427,30.57440185546875,-9.791681289672852,41.779327392578125,0
614,6140134,-0.06796137243509293,0.04304495453834534,-0.9843243360519409,0.4284290075302124,-0.33850836753845215,-1.007066011428833,30.260347366333008,-9.00328254699707,41.422882080078125,0
615,6150126,0.03805982321500778,-0.024083910509943962,-0.9954625964164734,-0.2780317962169647,-0.25498223304748535,0.45172950625419617,28.067068099975586,-10.154475212097168,39.6858024597168,0
616,6160067,0.03294064477086067,0.006345533300191164,-1.0087043046951294,0.8638030886650085,0.4107721149921417,-0.08447923511266708,29.95456314086914,-10.300163269042969,40.14638900756836,0
617,6170000,0.014094652608036995,0.042790744453668594,-1.0235978364944458,-0.017003430053591728,0.14253096282482147,-0.4726071059703827,29.37032127380371,-9.800559043884277,39.6121711730957,0
618,6180037,-0.04019022732973099,0.024303752928972244,-1.0222480297088623,0.4880521297454834,-0.49363353848457336,-1.7600781917572021,28.429508209228516,-11.200066566467285,39.94113540649414,0
619,6189977,0.022739509120583534,-0.011326348409056664,-0.9918057322502136,0.34619924426078796,-0.11909450590610504,-0.7161952257156372,30.444963455200195,-9.47819709777832,41.33133316040039,0
620,6199940,-0.012775590643286705,0.09651680290699005,-1.0362266302108765,-0.6567857265472412,0.029204778373241425,-0.4628680646419525,29.417922973632812,-9.912353515625,40.751548767089844,0
621,6210035,0.007153774611651897,0.04549025744199753,-0.9997891783714294,0.0752205103635788,-0.315109521150589,0.12316904217004776,29.69695281982422,-9.472253799438477,39.81019973754883,0
622,6220133,0.029427848756313324,-0.020700465887784958,-0.996630072593689,-0.09059343487024307,0.4302919805049896,-0.6324299573898315,30.246416091918945,-9.87453556060791,40.73291778564453,0
623,6229922,0.025419605895876884,-0.024278201162815094,-0.9996734857559204,-0.46202555298805237,-0.15776818990707397,-0.03954775258898735,31.51837158203125,-7.949029445648193,40.09332275390625,0
624,6239931,-0.02410278469324112,0.004081107210367918,-1.0343689918518066,0.20116344094276428,0.22368282079696655,-0.7078477740287781,28.239797592163086,-9.716435432434082,39.92102813720703,0
625,6249881,0.038676124066114426,0.07650011777877808,-0.9920546412467957,1.033097267150879,-0.0806100144982338,-0.8410806059837341,30.698827743530273,-9.998564720153809,39.90343475341797,0
626,6259663,0.029685616493225098,0.07012256234884262,-1.004162311553955,-0.5565553903579712,-0.9490383267402649,-0.5201350450515747,29.639846801757812,-8.696391105651855,39.91720199584961,0
